time,seconds_elapsed,z,y,x
1750555350648501000,0.1005009765625,-0.280705988407135,-0.1824129968881607,-0.9862490296363831
1750555350658106400,0.1101064453125,-0.47516098618507385,-0.16514000296592712,-0.8312669992446899
1750555350667711200,0.119711181640625,-0.39642399549484253,-0.17661799490451813,-0.8027660250663757
1750555350677316000,0.129316162109375,-0.18695400655269623,-0.23309600353240967,-0.8264219760894775
1750555350686921200,0.138921142578125,-0.0051830001175403595,0.02614700049161911,-0.6970450282096863
1750555350696526300,0.1485263671875,-0.15041300654411316,0.198076993227005,-0.62220299243927
1750555350706131500,0.15813134765625,-0.3535560071468353,-0.13373799622058868,-0.3204379975795746
1750555350715736000,0.167736083984375,-0.34345000982284546,0.5688390135765076,-0.5939139723777771
1750555350725341200,0.177341064453125,-0.4113810062408447,0.8169080018997192,-0.7053490281105042
1750555350734946300,0.1869462890625,-0.4391849935054779,0.573498010635376,-0.6241499781608582
1750555350744551400,0.196551513671875,-0.17459699511528015,0.11271300166845322,-0.4657289981842041
1750555350754156300,0.20615625,0.0344109982252121,-0.13476400077342987,-0.2182530015707016
1750555350763761200,0.21576123046875,0.07475300133228302,-0.19810399413108826,0.06432799994945526
1750555350773366500,0.225366455078125,0.11254999786615372,-0.06339900195598602,0.19650700688362122
1750555350782971400,0.234971435546875,0.13066299259662628,-0.10752300173044205,0.11627499759197235
1750555350792576300,0.244576171875,0.0845159962773323,-0.20639899373054504,-0.011649999767541885
1750555350802181000,0.25418115234375,-0.06546899676322937,-0.2306160032749176,-0.20568500459194183
1750555350811786500,0.263786376953125,-0.37157198786735535,-0.2245360016822815,-0.3671320080757141
1750555350821391400,0.273391357421875,-0.6240379810333252,-0.17330099642276764,-0.33845800161361694
1750555350830996500,0.28299658203125,-0.6357120275497437,-0.46883299946784973,0.023840999230742455
1750555350840601300,0.292601318359375,-0.4751259982585907,-0.3439140021800995,0.2681039869785309
1750555350850206200,0.302206298828125,-0.2645849883556366,-0.09456299990415573,0.3312309980392456
1750555350859811600,0.3118115234375,-0.027130000293254852,-0.2784149944782257,0.39631399512290955
1750555350869416400,0.32141650390625,0.24564899504184723,-0.6974819898605347,0.487199991941452
1750555350879021300,0.331021240234375,0.3850780129432678,-0.7741510272026062,0.5904080271720886
1750555350888626400,0.34062646484375,0.31281301379203796,-0.7113789916038513,0.5003889799118042
1750555350898231600,0.3502314453125,0.08767600357532501,-0.6273000240325928,0.35611000657081604
1750555350907836400,0.35983642578125,0.049215998500585556,-0.45479699969291687,0.22399400174617767
1750555350917441300,0.369441162109375,0.09359200298786163,-0.34209200739860535,0.00020399999630171806
1750555350927046400,0.37904638671875,-0.055038999766111374,-0.2364329993724823,-0.06679899990558624
1750555350936651500,0.388651611328125,-0.10015200078487396,-0.17825500667095184,-0.19495199620723724
1750555350946256400,0.39825634765625,-0.0698779970407486,0.03690199926495552,-0.4598810076713562
1750555350955861500,0.407861572265625,-0.22062799334526062,0.21869799494743347,-0.5683490037918091
1750555350965466400,0.41746630859375,-0.35073599219322205,0.26962101459503174,-0.5555049777030945
1750555350975071500,0.427071533203125,-0.5502730011940002,0.22792500257492065,-0.45546600222587585
1750555350984676400,0.43667626953125,-0.6337680220603943,0.014012999832630157,-0.17775599658489227
1750555350994281500,0.446281494140625,-0.5963860154151917,-0.05301399901509285,0.05456399917602539
1750555351003886600,0.455886474609375,-0.4560370147228241,0.09527900069952011,0.07498099654912949
1750555351013491500,0.465491455078125,-0.33832499384880066,0.09388799965381622,0.058375000953674316
1750555351023096600,0.4750966796875,-0.2408829927444458,-0.06714800000190735,0.10490100085735321
1750555351032701700,0.48470166015625,-0.2271379977464676,-0.1880279928445816,0.18260499835014343
1750555351042306600,0.494306640625,-0.23366999626159668,-0.16863900423049927,0.12812599539756775
1750555351051911700,0.50391162109375,-0.23014500737190247,-0.1243399977684021,-0.034042999148368835
1750555351061516500,0.5135166015625,-0.2604990005493164,-0.037964001297950745,-0.18289600312709808
1750555351071121700,0.52312158203125,-0.20066699385643005,0.0674939975142479,-0.267753005027771
1750555351080726800,0.532726806640625,-0.07741200178861618,0.1123420000076294,-0.31915798783302307
1750555351090331600,0.54233154296875,0.06109900027513504,0.07621899992227554,-0.38844698667526245
1750555351099936800,0.551936767578125,0.14453600347042084,-0.04152299836277962,-0.30018898844718933
1750555351109542000,0.5615419921875,0.1782670021057129,-0.14315299689769745,-0.10475199669599533
1750555351119146800,0.571146728515625,0.20618000626564026,-0.21786299347877502,0.018231000751256943
1750555351128751900,0.580751953125,0.22390900552272797,-0.1692339926958084,0.018038999289274216
1750555351138357000,0.59035693359375,0.2709769904613495,-0.1569879949092865,0.05671999976038933
1750555351147961900,0.5999619140625,0.276091992855072,-0.1650419980287552,0.13599400222301483
1750555351157567000,0.60956689453125,0.24920900166034698,-0.21819500625133514,0.15203599631786346
1750555351167171800,0.619171875,0.12013600021600723,-0.2542020082473755,0.14656700193881989
1750555351176777000,0.62877685546875,-0.0263689998537302,-0.22426800429821014,0.13015399873256683
1750555351186381800,0.6383818359375,-0.156141996383667,-0.22667300701141357,0.05421900004148483
1750555351195987000,0.647987060546875,-0.21339799463748932,-0.22768700122833252,0.0629810020327568
1750555351205592000,0.657592041015625,-0.1313830018043518,-0.208746999502182,0.1958879977464676
1750555351215197000,0.667197021484375,0.10437700152397156,-0.19569599628448486,0.22130900621414185
1750555351224801800,0.6768017578125,0.3551509976387024,-0.17927899956703186,0.22795000672340393
1750555351234407000,0.686406982421875,0.4528059959411621,-0.14407700300216675,0.20759400725364685
1750555351244012000,0.696011962890625,0.4086950123310089,-0.1739100068807602,0.1725900024175644
1750555351253617200,0.7056171875,0.23423099517822266,-0.168381005525589,0.13097700476646423
1750555351263222000,0.715221923828125,0.06030600145459175,-0.08425299823284149,0.0887330025434494
1750555351272827100,0.7248271484375,0.03201799839735031,-0.029492000117897987,0.04399799928069115
1750555351282432300,0.734432373046875,0.09698600322008133,0.008696000091731548,0.04221799969673157
1750555351292037000,0.744037109375,0.17657199501991272,-0.03390200063586235,0.03894500061869621
1750555351301642500,0.753642578125,0.18813900649547577,-0.09435299783945084,0.013113999739289284
1750555351311247400,0.763247314453125,0.19495899975299835,-0.09517499804496765,0.022810999304056168
1750555351320852500,0.7728525390625,0.08476299792528152,-0.057107001543045044,-0.0810289978981018
1750555351330457300,0.782457275390625,0.00036100001307204366,0.03685599938035011,-0.11260999739170074
1750555351340062500,0.7920625,-0.0832810029387474,0.08316099643707275,-0.12206199765205383
1750555351349667600,0.80166748046875,-0.0820700004696846,0.1137709990143776,-0.078186996281147
1750555351359272400,0.8112724609375,-0.09761600196361542,0.08950000256299973,-0.02662700042128563
1750555351368877600,0.820877685546875,-0.11857199668884277,0.044620998203754425,-0.032708000391721725
1750555351378482400,0.830482421875,-0.15802399814128876,0.029817000031471252,-0.06073100119829178
1750555351388087600,0.840087646484375,-0.24419699609279633,0.008415999822318554,-0.10516499727964401
1750555351397692700,0.849692626953125,-0.3648119866847992,-0.005177999846637249,-0.04269599914550781
1750555351407297500,0.859297607421875,-0.45638298988342285,-0.025823000818490982,0.048872001469135284
1750555351416902700,0.868902587890625,-0.5399789810180664,-0.04224599897861481,0.14850600063800812
1750555351426507800,0.8785078125,-0.511900007724762,-0.10645599663257599,0.22530099749565125
1750555351436112600,0.888112548828125,-0.38115599751472473,-0.09193100035190582,0.19212399423122406
1750555351445717500,0.897717529296875,-0.2230840027332306,-0.14084500074386597,0.14990399777889252
1750555351455322600,0.907322509765625,-0.030107000842690468,-0.24087299406528473,0.10174299776554108
1750555351464927700,0.916927734375,0.1226319968700409,-0.18891499936580658,0.05590499937534332
1750555351474532600,0.92653271484375,0.21066200733184814,-0.1319430023431778,0.04336399957537651
1750555351484137700,0.9361376953125,0.26958900690078735,-0.020509999245405197,-0.03794100135564804
1750555351493742800,0.945742919921875,0.40527600049972534,0.011624000035226345,-0.014182000420987606
1750555351503347700,0.95534765625,0.5175510048866272,-0.039744000881910324,-0.03026599995791912
1750555351512952800,0.964952880859375,0.5350800156593323,-0.01880500093102455,-0.1733500063419342
1750555351522558000,0.974557861328125,0.4851509928703308,0.02892399951815605,-0.2638770043849945
1750555351532162800,0.984162841796875,0.2798520028591156,0.10892800241708755,-0.29469698667526245
1750555351541768000,0.993767822265625,0.05685000121593475,0.20731300115585327,-0.35590800642967224
1750555351551372800,1.003372802734375,0.03081499971449375,0.22718100249767303,-0.3195579946041107
1750555351560978200,1.012978271484375,0.15384499728679657,0.20674799382686615,-0.2863540053367615
1750555351570583000,1.0225830078125,0.328700989484787,0.20111200213432312,-0.17024900019168854
1750555351580188200,1.032188232421875,0.3343159854412079,0.14561699330806732,-0.08366300165653229
1750555351589793300,1.041793212890625,0.20313599705696106,0.09102600067853928,-0.008205999620258808
1750555351599398100,1.051398193359375,0.030579999089241028,0.09645599871873856,-0.049587998539209366
1750555351609003000,1.0610029296875,-0.01142599992454052,0.15965400636196136,-0.21848900616168976
1750555351618608000,1.070608154296875,0.006180999800562859,0.20630000531673431,-0.2569989860057831
1750555351628213200,1.080213134765625,-0.016334999352693558,0.18287800252437592,-0.19117799401283264
1750555351637818000,1.089818115234375,-0.02148599922657013,0.05225899815559387,0.03101300075650215
1750555351647423000,1.099423095703125,-0.054662998765707016,-0.05892600119113922,0.153656005859375
1750555351657028400,1.1090283203125,-0.06227000057697296,-0.08774799853563309,0.1283479928970337
1750555351666633200,1.11863330078125,-0.12887200713157654,-0.06310500204563141,-0.005917999893426895
1750555351676238300,1.12823828125,-0.1562899947166443,-0.023271000012755394,-0.11354199796915054
1750555351685843500,1.137843505859375,-0.0589900016784668,-0.011603999882936478,-0.14176400005817413
1750555351695448300,1.1474482421875,0.04420499876141548,-0.05211000144481659,-0.10286899656057358
1750555351705053400,1.157053466796875,0.07375600188970566,-0.08262299746274948,-0.012357000261545181
1750555351714658300,1.166658203125,0.09172400087118149,-0.08485099673271179,0.03513599932193756
1750555351724263700,1.176263671875,0.11545699834823608,-0.06716799736022949,-0.09489300101995468
1750555351733868500,1.18586865234375,0.09602899849414825,0.006711999885737896,-0.2979449927806854
1750555351743473400,1.195473388671875,0.0018289999570697546,0.08164499700069427,-0.4170989990234375
1750555351753078500,1.20507861328125,-0.19422200322151184,0.08011099696159363,-0.3472299873828888
1750555351762683600,1.21468359375,-0.21720999479293823,-0.002374999923631549,-0.13542400300502777
1750555351772288500,1.22428857421875,-0.09530200064182281,-0.08333899825811386,0.06423400342464447
1750555351781894000,1.233893798828125,0.16466699540615082,-0.15282200276851654,0.20883600413799286
1750555351791498800,1.243498779296875,0.32433998584747314,-0.19172999262809753,0.3073889911174774
1750555351801103600,1.253103515625,0.3566780090332031,-0.15922099351882935,0.19848500192165375
1750555351810708700,1.262708740234375,0.30326300859451294,-0.06740400195121765,0.05716799944639206
1750555351820313900,1.27231396484375,0.18547800183296204,-0.02860100008547306,-0.06277400255203247
1750555351829919000,1.2819189453125,-0.0010479999473318458,-0.009643999859690666,-0.06483499705791473
1750555351839523800,1.29152392578125,-0.12566499412059784,-0.04373899847269058,0.018420999869704247
1750555351849128700,1.301128662109375,-0.24120399355888367,-0.03238900005817413,0.11729100346565247
1750555351858733800,1.31073388671875,-0.2702459990978241,-0.014020999893546104,0.2003059983253479
1750555351868339000,1.3203388671875,-0.26289600133895874,0.08276800066232681,0.1509930044412613
1750555351877943800,1.32994384765625,-0.1338219940662384,0.20132699608802795,-0.022283000871539116
1750555351887549000,1.339548828125,-0.09971500188112259,0.22860999405384064,-0.15766599774360657
1750555351897154000,1.349154052734375,-0.11466699838638306,0.25053200125694275,-0.13967600464820862
1750555351906759200,1.35875927734375,-0.16468100249767303,0.1960189938545227,0.003080999944359064
1750555351916364000,1.368364013671875,-0.14682500064373016,0.08288600295782089,0.1494780033826828
1750555351925969200,1.37796923828125,-0.12074899673461914,-0.017361000180244446,0.3180840015411377
1750555351935574000,1.387573974609375,-0.014328000135719776,-0.08871100097894669,0.3699209988117218
1750555351945179400,1.397179443359375,0.15675799548625946,-0.09966599941253662,0.3265860080718994
1750555351954784300,1.4067841796875,0.23541200160980225,-0.09122700244188309,0.1654990017414093
1750555351964389000,1.41638916015625,0.18031999468803406,-0.0022589999716728926,-0.005690000019967556
1750555351973994200,1.425994140625,0.05021300166845322,0.09402099996805191,-0.12599299848079681
1750555351983599400,1.435599365234375,0.008704000152647495,0.1198590025305748,-0.17873899638652802
1750555351993204200,1.445204345703125,0.0781479999423027,0.06059399992227554,-0.12902100384235382
1750555352002809300,1.454809326171875,0.2307170033454895,-0.06850799918174744,0.034178998321294785
1750555352012414500,1.46441455078125,0.350941002368927,-0.22348199784755707,0.17985899746418
1750555352022019600,1.47401953125,0.31828200817108154,-0.226623997092247,0.2049420028924942
1750555352031624700,1.483624755859375,0.24891699850559235,-0.12028799951076508,0.1553570032119751
1750555352041229600,1.4932294921875,0.1283549964427948,-0.03024500049650669,0.059401001781225204
1750555352050834700,1.502834716796875,0.021066000685095787,0.07210599631071091,-0.051486000418663025
1750555352060439600,1.512439453125,-0.025237999856472015,0.08293899893760681,-0.06770700216293335
1750555352070044700,1.522044677734375,-0.08515600115060806,0.03054100088775158,-0.013407999649643898
1750555352079649500,1.5316494140625,-0.10091300308704376,-0.03180399909615517,0.0239889994263649
1750555352089254700,1.541254638671875,-0.03570299968123436,-0.039900001138448715,-0.03843599930405617
1750555352098859500,1.550859619140625,0.1168610006570816,-0.04295999929308891,-0.07265300303697586
1750555352108465000,1.56046484375,0.12492399662733078,-0.06859900057315826,-0.0310869999229908
1750555352118069800,1.57006982421875,0.018549999222159386,-0.01909700036048889,0.02077599987387657
1750555352127674600,1.579674560546875,-0.06017199903726578,0.010894999839365482,0.07059899717569351
1750555352137279700,1.58927978515625,-0.13588599860668182,-0.012586000375449657,0.08819600194692612
1750555352146884900,1.598884765625,-0.18740099668502808,-0.005307000130414963,0.0845009982585907
1750555352156489700,1.60848974609375,-0.18478700518608093,-0.01333099976181984,0.12178000062704086
1750555352166094800,1.6180947265625,-0.1545639932155609,0.004077000077813864,0.060378000140190125
1750555352175700000,1.627699951171875,-0.06250499933958054,0.033838000148534775,0.03378399834036827
1750555352185304800,1.637304931640625,0.014318999834358692,0.02871900051832199,0.010490999557077885
1750555352194910000,1.646909912109375,-0.08676499873399734,0.014012999832630157,0.014644999988377094
1750555352204515000,1.65651513671875,-0.20395000278949738,0.016448000445961952,-0.010273999534547329
1750555352214120200,1.6661201171875,-0.23720400035381317,0.0018469999777153134,-0.05008900165557861
1750555352223725000,1.67572509765625,-0.12293600291013718,0.0156870000064373,-0.10822899639606476
1750555352233330200,1.685330078125,-0.03836499899625778,0.008117999881505966,-0.04332299903035164
1750555352242935300,1.694935302734375,0.011555000208318233,0.0214649997651577,-0.010413999669253826
1750555352252540200,1.7045400390625,0.06019800156354904,0.08358100056648254,0.014303999952971935
1750555352262145000,1.71414501953125,0.12546800076961517,0.049959998577833176,-0.010673999786376953
1750555352271750400,1.72375048828125,0.06800200045108795,0.035211000591516495,-0.05096900090575218
1750555352281355500,1.73335546875,-0.04879000037908554,0.05697200074791908,-0.084586001932621
1750555352290960400,1.74296044921875,-0.13682200014591217,0.06577000021934509,-0.11559700220823288
1750555352300565500,1.7525654296875,-0.11830999702215195,0.08104299753904343,-0.13892799615859985
1750555352310170600,1.762170654296875,-0.08179999887943268,0.10046099871397018,-0.12401500344276428
1750555352319775500,1.771775390625,-0.10336700081825256,0.0849120020866394,-0.11561799794435501
1750555352329380600,1.781380615234375,-0.044819001108407974,0.07603099942207336,-0.08493699878454208
1750555352338985700,1.79098583984375,0.014209999702870846,0.06258200109004974,-0.11748600006103516
1750555352348590600,1.800590576171875,0.062233999371528625,0.03431500121951103,-0.14136900007724762
1750555352358196000,1.810196044921875,0.09907899796962738,0.0012499999720603228,-0.0800900012254715
1750555352367800800,1.81980078125,0.05928900092840195,0.0019330000504851341,-0.011811000294983387
1750555352377405700,1.82940576171875,0.008349999785423279,-0.01760699972510338,-0.002957999939098954
1750555352387011000,1.839010986328125,0.01886099949479103,0.04198800027370453,-0.007404000032693148
1750555352396616000,1.848615966796875,0.08167199790477753,0.03023499995470047,0.013195999898016453
1750555352406220800,1.858220703125,0.06979300081729889,-0.007242000196129084,0.013384999707341194
1750555352415826000,1.867825927734375,0.005783999804407358,-0.04539100080728531,0.05442199856042862
1750555352425431000,1.87743115234375,-0.0427899993956089,-0.03478600084781647,0.0266720000654459
1750555352435036000,1.887035888671875,-0.02671400085091591,-0.01699100062251091,0.010564000345766544
1750555352444641000,1.89664111328125,0.009418999776244164,-0.02348800003528595,-0.03053699992597103
1750555352454246100,1.90624609375,0.058077000081539154,-0.02021699957549572,-0.06417500227689743
1750555352463851300,1.915851318359375,0.09613700211048126,-0.02498999983072281,-0.03511099889874458
1750555352473456000,1.9254560546875,0.04357299953699112,-0.05157500132918358,0.03881299868226051
1750555352483061200,1.935061279296875,-0.04080500081181526,-0.058788001537323,0.11751700192689896
1750555352492666000,1.944666015625,-0.12477999925613403,-0.007627000100910664,0.14220300316810608
1750555352502271200,1.954271240234375,-0.12574300169944763,-0.0822020024061203,0.17632199823856354
1750555352511876400,1.96387646484375,-0.13491399586200714,-0.10522200167179108,0.13071799278259277
1750555352521481500,1.9734814453125,-0.18200799822807312,-0.027236999943852425,0.03785699978470802
1750555352531086300,1.98308642578125,-0.1736530065536499,0.08963599801063538,-0.02096799947321415
1750555352540691500,1.99269140625,-0.0774179995059967,0.12111400067806244,-0.07564400136470795
1750555352550296600,2.002296630859375,0.058306001126766205,0.10032200068235397,-0.03838000074028969
1750555352559901400,2.0119013671875,0.1653120070695877,0.021922999992966652,0.012641999870538712
1750555352569506600,2.021506591796875,0.2087090015411377,-0.03408699855208397,0.015073000453412533
1750555352579111700,2.031111572265625,0.15863600373268127,-0.044443998485803604,-0.029978999868035316
1750555352588716500,2.040716552734375,0.12574400007724762,-0.06251999735832214,-0.032225001603364944
1750555352598321400,2.0503212890625,0.11239100247621536,-0.06198500096797943,-0.05049699917435646
1750555352607926800,2.0599267578125,0.04073699936270714,-0.049233000725507736,-0.0026660000439733267
1750555352617531600,2.06953173828125,0.061928000301122665,-0.015244999900460243,0.038694001734256744
1750555352627136800,2.07913671875,0.07971400022506714,0.011783000081777573,0.026072999462485313
1750555352636741600,2.08874169921875,0.08673799782991409,0.024414999410510063,-0.18227200210094452
1750555352646346800,2.0983466796875,0.030306000262498856,0.12993000447750092,-0.15118899941444397
1750555352655952000,2.107951904296875,-0.143326997756958,0.15901799499988556,-0.17896099388599396
1750555352665557000,2.117556884765625,-0.21098299324512482,0.02084200084209442,-0.1426600068807602
1750555352675162000,2.127162109375,-0.12542100250720978,-0.033601999282836914,-0.07645399868488312
1750555352684767000,2.13676708984375,-0.0013650000328198075,-0.08803000301122665,0.18112799525260925
1750555352694372000,2.1463720703125,0.009132999926805496,-0.12134999781847,0.31445398926734924
1750555352703977000,2.15597705078125,0.008472000248730183,-0.10586600005626678,0.193900004029274
1750555352713582000,2.16558203125,0.12476400285959244,-0.06416799873113632,0.01995299942791462
1750555352723187000,2.17518701171875,0.17432400584220886,0.00330700003542006,-0.02676600031554699
1750555352732792000,2.1847919921875,0.06889700144529343,-0.020975999534130096,-0.0690699964761734
1750555352742397200,2.194397216796875,0.03200099989771843,-0.031727999448776245,-0.07541000097990036
1750555352752002000,2.204001953125,0.26249998807907104,-0.053293999284505844,-0.056508999317884445
1750555352761607200,2.213607177734375,0.4739829897880554,-0.04123200103640556,0.00813900027424097
1750555352771212500,2.223212646484375,0.5166140198707581,0.007658999878913164,-0.05513500049710274
1750555352780817400,2.2328173828125,0.32963401079177856,0.03238200023770332,-0.1392659991979599
1750555352790422500,2.242422607421875,0.023010000586509705,0.04636000096797943,-0.08777499943971634
1750555352800027600,2.252027587890625,-0.2007869929075241,0.0921040028333664,0.0010689999908208847
1750555352809632500,2.261632568359375,-0.3176569938659668,0.030539000406861305,0.11799000203609467
1750555352819237400,2.2712373046875,-0.2745729982852936,0.012706000357866287,0.15583999454975128
1750555352828842500,2.280842529296875,0.030987000092864037,-0.056963998824357986,0.15101900696754456
1750555352838447600,2.290447509765625,0.2094859927892685,-0.06346800178289413,0.10359299927949905
1750555352848052500,2.300052490234375,0.16485199332237244,0.0019990000873804092,0.038412999361753464
1750555352857657600,2.30965771484375,-0.14344599843025208,-0.0028470000252127647,0.019325999543070793
1750555352867262700,2.3192626953125,-0.6879000067710876,0.01712699979543686,-0.14104899764060974
1750555352876867600,2.32886767578125,-0.8480290174484253,0.0728050023317337,-0.05378599837422371
1750555352886472700,2.33847265625,-0.8456779718399048,0.045938000082969666,0.03381500020623207
1750555352896077600,2.34807763671875,-0.5088689923286438,0.05155700072646141,0.1374640017747879
1750555352905683000,2.357682861328125,-0.024623999372124672,-0.018271999433636665,0.12292999774217606
1750555352915287800,2.367287841796875,0.13044199347496033,-0.022052999585866928,-0.027463000267744064
1750555352924893000,2.376892822265625,-0.06677400320768356,0.04393500089645386,-0.1643889993429184
1750555352934498000,2.386498046875,-0.2720769941806793,0.06441699713468552,-0.22126400470733643
1750555352944103000,2.39610302734375,-0.028212999925017357,-0.010692999698221684,-0.1489119976758957
1750555352953708000,2.4057080078125,0.10354600101709366,-0.062185000628232956,-0.03152099996805191
1750555352963313200,2.415313232421875,0.23265500366687775,-0.17114800214767456,0.19051800668239594
1750555352972918000,2.42491796875,0.37877601385116577,-0.2310270071029663,0.24711599946022034
1750555352982523100,2.434523193359375,0.3649829924106598,-0.19478200376033783,0.19964399933815002
1750555352992128300,2.444128173828125,0.20378300547599792,-0.10579799860715866,0.030642999336123466
1750555353001733000,2.453733154296875,0.045882001519203186,-0.033284999430179596,-0.07003500312566757
1750555353011338200,2.463338134765625,0.10510899871587753,-0.008969999849796295,-0.11524499952793121
1750555353020943400,2.472943359375,0.2375040054321289,-0.05323600023984909,-0.01707099936902523
1750555353030548200,2.48254833984375,0.2643829882144928,-0.1358170062303543,0.11547700315713882
1750555353040153300,2.4921533203125,0.19086000323295593,-0.10201399773359299,0.18886500597000122
1750555353049758500,2.501758544921875,-0.0013940000208094716,0.011479999870061874,0.17037099599838257
1750555353059363600,2.511363525390625,-0.21381400525569916,0.09572699666023254,0.03093400038778782
1750555353068968400,2.520968505859375,-0.30840298533439636,0.15804900228977203,-0.07996799796819687
1750555353078573600,2.530573486328125,-0.23720699548721313,0.1459919959306717,-0.138387992978096
1750555353088178700,2.5401787109375,-0.20240700244903564,0.10963699966669083,-0.11814200133085251
1750555353097783600,2.549783447265625,-0.050971001386642456,0.007822000421583652,0.001285000005736947
1750555353107388700,2.559388671875,0.14573000371456146,-0.12304499745368958,0.07877600193023682
1750555353116993800,2.568993896484375,0.27755099534988403,-0.06537999957799911,0.0704760029911995
1750555353126598700,2.5785986328125,0.2401130050420761,0.03541899845004082,0.0029150000773370266
1750555353136203800,2.588203857421875,0.2667509913444519,0.16771200299263,-0.14568300545215607
1750555353145809000,2.597808837890625,0.16011899709701538,0.18251200020313263,-0.1662590056657791
1750555353155413800,2.607413818359375,0.0262449998408556,0.09739600121974945,0.007915000431239605
1750555353165019000,2.617018798828125,-0.007946999743580818,-0.014391999691724777,0.17569200694561005
1750555353174624000,2.6266240234375,-0.0743589997291565,-0.07167799770832062,0.21968799829483032
1750555353184228900,2.636228759765625,-0.08959200233221054,-0.04462499916553497,0.1643729954957962
1750555353193834200,2.645834228515625,0.018631000071763992,0.004734000191092491,0.054012998938560486
1750555353203439000,2.655439208984375,0.1510459929704666,0.0886550024151802,-0.10221400111913681
1750555353213044200,2.665044189453125,0.16277499496936798,0.12460599839687347,-0.16297000646591187
1750555353222649000,2.674649169921875,0.0032629999332129955,0.11941999942064285,-0.15757499635219574
1750555353232254200,2.684254150390625,-0.05963600054383278,0.17198100686073303,-0.0890439972281456
1750555353241859300,2.693859375,-0.0024790000170469284,0.108303003013134,-0.051114000380039215
1750555353251464400,2.70346435546875,0.16128100454807281,0.010600999929010868,-0.020111000165343285
1750555353261069600,2.713069580078125,0.23361900448799133,-0.0274640005081892,0.03287599980831146
1750555353270674400,2.72267431640625,0.1419290006160736,-0.009352999739348888,0.08864899724721909
1750555353280279300,2.732279296875,0.03212999925017357,0.030232999473810196,0.12113700062036514
1750555353289884400,2.741884521484375,0.007029999978840351,0.04187700152397156,0.05918699875473976
1750555353299489500,2.751489501953125,-0.019329000264406204,0.06095900014042854,-0.032510001212358475
1750555353309094400,2.761094482421875,-0.09463699907064438,0.06335899978876114,-0.08591300249099731
1750555353318699500,2.770699462890625,-0.1459749937057495,0.01312899962067604,-0.034735001623630524
1750555353328304600,2.7803046875,-0.1491210013628006,-0.04327800124883652,0.03890400007367134
1750555353337909800,2.78990966796875,0.03286600112915039,-0.057583998888731,0.0974539965391159
1750555353347514600,2.7995146484375,0.2009200006723404,-0.072502002120018,0.10679200291633606
1750555353357120000,2.8091201171875,0.2358279973268509,-0.04113699868321419,0.06178100034594536
1750555353366724900,2.818724853515625,0.18066999316215515,0.013826999813318253,0.007641000207513571
1750555353376329700,2.828329833984375,0.030872000381350517,0.027747999876737595,0.02132599987089634
1750555353385934800,2.837934814453125,-0.21115100383758545,-0.0018110000528395176,-0.006959000136703253
1750555353395540000,2.8475400390625,-0.2798379957675934,0.00795700028538704,-0.006504000164568424
1750555353405144800,2.857144775390625,-0.28492501378059387,-0.009209999814629555,0.04114000126719475
1750555353414750000,2.86675,-0.1847119927406311,-0.005667999852448702,0.14401300251483917
1750555353424355000,2.87635498046875,-0.001505000051110983,-0.0023350000847131014,0.1484380066394806
1750555353433960000,2.8859599609375,0.06270299851894379,-0.06631500273942947,0.16964800655841827
1750555353443565000,2.89556494140625,0.02321000024676323,-0.07569000124931335,0.13709500432014465
1750555353453170000,2.905169921875,-0.10133200138807297,-0.03857899829745293,-0.05572900176048279
1750555353462775300,2.914775390625,-0.23586900532245636,0.03233399987220764,-0.1839810013771057
1750555353472380200,2.924380126953125,-0.2321300059556961,0.03253500163555145,-0.19557900726795197
1750555353481985300,2.9339853515625,-0.15424999594688416,0.007029999978840351,-0.11693800240755081
1750555353491590400,2.94359033203125,-0.07174599915742874,-0.024887999519705772,-0.013268999755382538
1750555353501195300,2.9531953125,-0.05155999958515167,-0.007282999809831381,0.017162000760436058
1750555353510800100,2.962800048828125,0.019500000402331352,-0.010758999735116959,0.06255099922418594
1750555353520405500,2.972405517578125,0.05712699890136719,0.011951999738812447,0.05143800005316734
1750555353530010600,2.9820107421875,0.08075299859046936,-0.021247999742627144,-0.030293000862002373
1750555353539615500,2.991615478515625,0.13301299512386322,0.06607700139284134,-0.16298100352287292
1750555353549220600,3.001220703125,0.03523299843072891,0.09348200261592865,-0.21053999662399292
1750555353558825700,3.01082568359375,-0.11422699689865112,0.10653200000524521,-0.1559710055589676
1750555353568430600,3.0204306640625,-0.09881799668073654,0.09411200135946274,-0.02247699908912182
1750555353578035700,3.03003564453125,0.032047998160123825,-0.0002519999979995191,0.11207500100135803
1750555353587640800,3.039640869140625,0.21495799720287323,-0.10582999885082245,0.1486479938030243
1750555353597245700,3.04924560546875,0.2940469980239868,-0.08829600363969803,0.04525800049304962
1750555353606850600,3.0588505859375,0.32887500524520874,-0.06585399806499481,-0.09819400310516357
1750555353616456000,3.0684560546875,0.12696699798107147,-0.000623999978415668,-0.11666999757289886
1750555353626060800,3.078060791015625,-0.11951900273561478,0.018206000328063965,-0.03407299891114235
1750555353635666000,3.087666015625,-0.20704999566078186,0.021511999890208244,-0.0037990000564604998
1750555353645270800,3.097270751953125,-0.06786999851465225,0.04858899861574173,0.0027360001113265753
1750555353654876000,3.1068759765625,0.126459002494812,0.008326999843120575,0.000391999987186864
1750555353664481000,3.11648095703125,0.3699829876422882,-0.0855569988489151,-0.023000000044703484
1750555353674086000,3.1260859375,0.26830700039863586,-0.10082899779081345,-0.050898000597953796
1750555353683691300,3.135691162109375,-0.07213699817657471,0.08176799863576889,-0.1958869993686676
1750555353693296000,3.145296142578125,-0.3614329993724823,0.1087929978966713,-0.18736399710178375
1750555353702901000,3.15490087890625,-0.46029898524284363,0.059829000383615494,-0.12567800283432007
1750555353712506400,3.16450634765625,-0.3550789952278137,0.019565999507904053,-0.0634939968585968
1750555353722111200,3.174111328125,-0.18849900364875793,-0.016901999711990356,0.02670300006866455
1750555353731716400,3.18371630859375,0.0019030000548809767,-0.0555259995162487,0.12937800586223602
1750555353741321200,3.1933212890625,0.04881099984049797,-0.11225800216197968,0.17264099419116974
1750555353750926300,3.20292626953125,-0.07379200309515,-0.11125499755144119,0.06926000118255615
1750555353760531500,3.212531494140625,-0.18196000158786774,-0.03653400018811226,-0.028672000393271446
1750555353770136600,3.222136474609375,-0.26522600650787354,-0.007770999800413847,-0.05584700033068657
1750555353779741700,3.23174169921875,-0.2622630000114441,-0.0949539989233017,0.05496799945831299
1750555353789346600,3.2413466796875,-0.13727299869060516,-0.11246000230312347,0.10372599959373474
1750555353798951400,3.250951416015625,0.08449699729681015,-0.08850999921560287,0.039218999445438385
1750555353808556500,3.260556640625,0.18653999269008636,-0.029892999678850174,-0.045118000358343124
1750555353818161700,3.27016162109375,0.1811710000038147,0.02591400034725666,-0.1177539974451065
1750555353827766800,3.279766845703125,0.0757099986076355,0.09663400053977966,-0.1783670037984848
1750555353837372000,3.289371826171875,-0.02930299937725067,0.06500700116157532,-0.16856199502944946
1750555353846976800,3.298976806640625,-0.07588200271129608,0.07267799973487854,-0.13332000374794006
1750555353856582000,3.308581787109375,-0.021276000887155533,0.12960900366306305,-0.16344000399112701
1750555353866187000,3.31818701171875,0.0872960016131401,0.1308079957962036,-0.10623099654912949
1750555353875792000,3.3277919921875,0.18656399846076965,0.07799100130796432,-0.01066999975591898
1750555353885397200,3.337397216796875,0.25706300139427185,-0.016381999477744102,0.08781199902296066
1750555353895002000,3.347002197265625,0.2441920042037964,-0.05869099870324135,0.11241699755191803
1750555353904607000,3.35660693359375,0.169281005859375,-0.05251400172710419,0.058118000626564026
1750555353914212000,3.366212158203125,0.037147000432014465,-0.0017600000137463212,-0.05041399970650673
1750555353923817200,3.375817138671875,-0.0026340000331401825,0.07159999758005142,-0.11072000116109848
1750555353933422000,3.385422119140625,0.055546000599861145,0.0712210014462471,-0.020705999806523323
1750555353943027200,3.395027099609375,0.14562299847602844,0.0448869988322258,0.09442000091075897
1750555353952632300,3.40463232421875,0.2552570104598999,-0.05827099829912186,0.18909600377082825
1750555353962237400,3.414237548828125,0.3001739978790283,-0.07352100312709808,0.23871999979019165
1750555353971842300,3.42384228515625,0.29907500743865967,-0.05430600047111511,0.18825900554656982
1750555353981447700,3.43344775390625,0.24520699679851532,-0.07305300235748291,0.170974001288414
1750555353991052500,3.443052490234375,0.14558599889278412,-0.10300099849700928,0.1940539926290512
1750555354000657400,3.452657470703125,0.06018200144171715,-0.05950799956917763,0.21182900667190552
1750555354010262800,3.4622626953125,0.09219499677419662,0.049407001584768295,0.14505399763584137
1750555354019867600,3.47186767578125,0.1003900021314621,0.007071000058203936,0.13021600246429443
1750555354029472500,3.481472412109375,0.01990699954330921,-0.005384999793022871,0.17688000202178955
1750555354039078000,3.491077880859375,-0.07485800236463547,-0.009885000064969063,0.17149600386619568
1750555354048682800,3.500682861328125,-0.17670300602912903,0.000534999999217689,0.11874199658632278
1750555354058287600,3.51028759765625,-0.15043100714683533,0.04667399823665619,0.004097000230103731
1750555354067892700,3.519892822265625,-0.10286899656057358,0.08554799854755402,-0.10824000090360641
1750555354077497900,3.529497802734375,-0.12175799906253815,0.09714499861001968,-0.12091699987649918
1750555354087102700,3.539102783203125,-0.13361699879169464,0.09495799988508224,-0.07789800316095352
1750555354096708000,3.5487080078125,-0.10881900042295456,0.06937800347805023,-0.016783999279141426
1750555354106313000,3.55831298828125,-0.11518599838018417,0.007019999902695417,-0.006858999840915203
1750555354115918000,3.56791796875,-0.16107699275016785,-0.03162100166082382,0.017448000609874725
1750555354125523200,3.577523193359375,-0.26083800196647644,-0.012008000165224075,0.0243500005453825
1750555354135128000,3.587128173828125,-0.32903701066970825,0.004534000065177679,0.007774000056087971
1750555354144733200,3.596733154296875,-0.22708700597286224,0.00033599999733269215,-0.034728001803159714
1750555354154338300,3.60633837890625,-0.11299800127744675,0.013562999665737152,-0.07533200085163116
1750555354163943400,3.615943359375,-0.036329999566078186,0.012186000123620033,-0.08783300220966339
1750555354173548300,3.62554833984375,0.05529500171542168,-0.015255999751389027,-0.06586100161075592
1750555354183153200,3.635153076171875,0.13850100338459015,-0.04075400158762932,-0.04947799816727638
1750555354192758500,3.644758544921875,0.20096400380134583,-0.0974700003862381,-0.09105599671602249
1750555354202363400,3.65436328125,0.15868599712848663,-0.09025999903678894,-0.058566998690366745
1750555354211968300,3.66396826171875,-0.0068870000541210175,-0.07386399805545807,-0.013647000305354595
1750555354221573600,3.67357373046875,-0.136135995388031,-0.07106000185012817,0.04656900092959404
1750555354231178800,3.6831787109375,-0.1684810072183609,-0.05805400013923645,0.04044799879193306
1750555354240783600,3.69278369140625,-0.11591800302267075,-0.05514800176024437,0.042897000908851624
1750555354250388500,3.702388427734375,-0.0732249990105629,-0.037470001727342606,0.06271500140428543
1750555354259993900,3.711993896484375,0.029603000730276108,-0.03827099874615669,0.036928001791238785
1750555354269598700,3.7215986328125,0.07960499823093414,0.001664999988861382,-0.01962899975478649
1750555354279203800,3.731203857421875,0.09943900257349014,0.030208000913262367,-0.11207400262355804
1750555354288809000,3.74080908203125,0.07682099938392639,0.040991999208927155,-0.12042800337076187
1750555354298413800,3.750413818359375,-0.008689000271260738,0.04929199814796448,-0.08125799894332886
1750555354308019000,3.76001904296875,-0.07843700051307678,0.07232099771499634,-0.07955099642276764
1750555354317624000,3.7696240234375,-0.03414599969983101,0.06564600020647049,-0.07154499739408493
1750555354327229000,3.77922900390625,0.10065899789333344,0.044321998953819275,-0.01738700084388256
1750555354336833800,3.788833740234375,0.16161300241947174,0.026234999299049377,-0.005840000230818987
1750555354346439000,3.79843896484375,0.10013499855995178,0.04336100071668625,0.026241999119520187
1750555354356044000,3.8080439453125,0.0012750000460073352,0.08162400126457214,0.01433899998664856
1750555354365649200,3.817649169921875,-0.06426499783992767,0.09224700182676315,-0.05991499871015549
1750555354375254000,3.82725390625,-0.07243400067090988,0.07168799638748169,-0.07614599913358688
1750555354384859400,3.836859375,-0.07986100018024445,0.03219899907708168,-0.07204700261354446
1750555354394464300,3.84646435546875,-0.029431000351905823,-0.011335000395774841,-0.047463998198509216
1750555354404069000,3.856069091796875,0.012044000439345837,-0.016054000705480576,-0.0114139998331666
1750555354413674200,3.86567431640625,0.0053369998931884766,-0.034589000046253204,0.0018029999919235706
1750555354423279400,3.875279296875,-0.0022619999945163727,0.04745899885892868,-0.043772000819444656
1750555354432884200,3.88488427734375,-0.03450800105929375,0.088468998670578,-0.06808000057935715
1750555354442489000,3.894489013671875,-0.022324999794363976,0.03064499981701374,-0.022064000368118286
1750555354452094500,3.904094482421875,-0.0016949999844655395,0.0033160001039505005,-0.0100509999319911
1750555354461699600,3.913699462890625,0.014018000103533268,0.009510999545454979,-0.04552999883890152
1750555354471304400,3.923304443359375,0.00671500014141202,0.023740999400615692,-0.06718900054693222
1750555354480909600,3.93290966796875,-0.057117000222206116,-0.013632000423967838,-0.020857999101281166
1750555354490514700,3.9425146484375,-0.09487099945545197,-0.0407399982213974,0.06655199825763702
1750555354500119600,3.95211962890625,-0.10163000226020813,-0.06001799926161766,0.1618030071258545
1750555354509724700,3.961724609375,-0.10213600099086761,-0.07058300077915192,0.16468499600887299
1750555354519329800,3.971329833984375,-0.05795000120997429,-0.05378299951553345,0.09864500164985657
1750555354528934700,3.9809345703125,-0.004951999988406897,-0.01964399963617325,-0.06677699834108353
1750555354538539800,3.990539794921875,0.07337500154972076,-0.003398000029847026,-0.11798200011253357
1750555354548144600,4.00014453125,0.11875499784946442,-0.031982000917196274,-0.07698100060224533
1750555354557750000,4.00975,0.06799100339412689,-0.08088699728250504,0.0722460001707077
1750555354567354600,4.019354736328125,-0.05646499991416931,-0.03336400166153908,0.13286200165748596
1750555354576959700,4.028959716796875,-0.10332299768924713,0.06147399917244911,0.0977260023355484
1750555354586564900,4.03856494140625,-0.0484439991414547,0.14416499435901642,-0.04208900034427643
1750555354596170000,4.048169921875,0.079135000705719,0.12566199898719788,-0.12131399661302567
1750555354605775000,4.057775146484375,0.19283099472522736,0.0419749990105629,-0.12381900101900101
1750555354615380000,4.0673798828125,0.12291300296783447,-0.0482419990003109,-0.020646000280976295
1750555354624985000,4.076985107421875,0.051444001495838165,-0.08170100301504135,0.06713800132274628
1750555354634590000,4.08658984375,0.009708000347018242,-0.04947600141167641,0.0950080007314682
1750555354644195000,4.096195068359375,-0.06361299753189087,-0.060756001621484756,0.1349239945411682
1750555354653800200,4.10580029296875,-0.2218029946088791,-0.02753400057554245,0.13214099407196045
1750555354663405000,4.115405029296875,-0.28506898880004883,-0.03762200102210045,0.12995600700378418
1750555354673010400,4.125010498046875,-0.31792598962783813,-0.0758500024676323,0.043501000851392746
1750555354682615300,4.134615234375,-0.3900409936904907,-0.12264300137758255,-0.03941800072789192
1750555354692220400,4.144220458984375,-0.3960070013999939,-0.16939300298690796,-0.09514299780130386
1750555354701825500,4.153825439453125,-0.31813299655914307,-0.17027400434017181,-0.05783399939537048
1750555354711430700,4.1634306640625,-0.1771470010280609,-0.08770900219678879,0.006037999875843525
1750555354721035500,4.173035400390625,-0.11044099926948547,-0.04369499906897545,0.07573000341653824
1750555354730640400,4.182640380859375,0.02657400071620941,-0.059856999665498734,0.12871600687503815
1750555354740245800,4.192245849609375,0.11550500243902206,-0.06608600169420242,0.25900301337242126
1750555354749850600,4.2018505859375,0.009909000247716904,-0.04560200124979019,0.31256499886512756
1750555354759455700,4.211455810546875,-0.053325001150369644,-0.004077000077813864,0.2052060067653656
1750555354769060600,4.221060546875,0.018489999696612358,0.09227299690246582,0.06559199839830399
1750555354778665700,4.230665771484375,0.17579199373722076,0.14109699428081512,0.014413000084459782
1750555354788270800,4.240270751953125,0.3227570056915283,0.23024499416351318,0.07581400126218796
1750555354797876000,4.2498759765625,0.36043399572372437,0.28268900513648987,0.042452000081539154
1750555354807480800,4.259480712890625,0.3821290135383606,0.3293589949607849,0.01726900041103363
1750555354817085700,4.269085693359375,0.20996199548244476,0.2883189916610718,0.05057999864220619
1750555354826691000,4.278691162109375,0.039347998797893524,0.3250429928302765,0.08382099866867065
1750555354836296000,4.2882958984375,0.2434229999780655,0.3615790009498596,0.10562799870967865
1750555354845901000,4.297901123046875,0.9492970108985901,0.43585899472236633,0.030525000765919685
1750555354855506000,4.307505859375,2.126836061477661,0.3766149878501892,0.19075000286102295
1750555354865111000,4.317111083984375,3.132878065109253,0.3564330041408539,0.25936201214790344
1750555354874716200,4.326716064453125,4.026691913604736,0.437716007232666,0.027363000437617302
1750555354884321300,4.3363212890625,5.117730140686035,0.3191080093383789,-0.3634450137615204
1750555354893926100,4.345926025390625,8.22581958770752,-0.023579999804496765,-0.9824519753456116
1750555354903531300,4.35553125,12.709278106689453,-1.3769760131835938,-1.3454060554504395
1750555354913136400,4.365136474609375,15.437661170959473,-2.5975849628448486,-0.9544680118560791
1750555354922741500,4.374741455078125,16.71238136291504,-3.1697580814361572,-1.2186479568481445
1750555354932346400,4.384346435546875,16.23879051208496,-4.133031845092773,-2.13698410987854
1750555354941951200,4.393951171875,11.361173629760742,-5.088174819946289,-2.999336004257202
1750555354951556600,4.403556640625,5.435557842254639,-5.264983177185059,-3.1103880405426025
1750555354961161500,4.413161376953125,1.1037119626998901,-4.504517078399658,-1.7594490051269531
1750555354970766300,4.422766357421875,-1.865399956703186,-3.817660093307495,-0.026107000187039375
1750555354980371500,4.432371337890625,-2.7446489334106445,-4.856993198394775,1.8973770141601562
1750555354989976800,4.441976806640625,-4.268902778625488,-4.964629173278809,2.774338960647583
1750555354999581400,4.45158154296875,-7.5313591957092285,-3.199587106704712,1.98689603805542
1750555355009186800,4.461186767578125,-9.875017166137695,-1.491655945777893,1.0004680156707764
1750555355018791700,4.470791748046875,-9.593073844909668,-0.7929750084877014,0.21787799894809723
1750555355028396800,4.480396728515625,-8.494829177856445,-0.7852650284767151,-0.12153399735689163
1750555355038001700,4.490001708984375,-7.258392810821533,-0.9991970062255859,0.15354999899864197
1750555355047606800,4.499606689453125,-6.070028781890869,-1.5105500221252441,0.5863109827041626
1750555355057212000,4.5092119140625,-4.925548076629639,-1.9041199684143066,0.9281280040740967
1750555355066816800,4.518816650390625,-3.7938449382781982,-2.2155239582061768,1.0572439432144165
1750555355076422000,4.528421875,-2.9209070205688477,-2.4062321186065674,0.950232982635498
1750555355086027000,4.538027099609375,-2.433919906616211,-2.489051103591919,0.6277549862861633
1750555355095632000,4.5476318359375,-2.0523080825805664,-2.5428450107574463,0.42729198932647705
1750555355105237000,4.557237060546875,-2.12675404548645,-2.6173551082611084,0.1913750022649765
1750555355114842000,4.566842041015625,-2.592242956161499,-2.3429319858551025,-0.08284600079059601
1750555355124447200,4.576447265625,-3.045969009399414,-2.0107600688934326,-0.1712609976530075
1750555355134052000,4.586052001953125,-3.5341649055480957,-1.6538230180740356,-0.27174699306488037
1750555355143657200,4.5956572265625,-3.9157650470733643,-1.460582971572876,-0.32165101170539856
1750555355153262000,4.605261962890625,-3.9056060314178467,-1.3258830308914185,-0.38132500648498535
1750555355162867200,4.6148671875,-4.1640119552612305,-1.380748987197876,-0.32162201404571533
1750555355172472300,4.624472412109375,-4.226283073425293,-1.6107020378112793,-0.24347400665283203
1750555355182077400,4.634077392578125,-4.284453868865967,-1.8382829427719116,-0.07758200168609619
1750555355191682300,4.643682373046875,-4.968062877655029,-1.8983739614486694,0.29665300250053406
1750555355201287400,4.653287353515625,-5.855661869049072,-2.0076260566711426,0.6367390155792236
1750555355210892500,4.662892578125,-5.759556770324707,-2.5393118858337402,0.7726960182189941
1750555355220497400,4.672497314453125,-4.863540172576904,-3.5741260051727295,0.5828239917755127
1750555355230102500,4.6821025390625,-2.342452049255371,-4.244553089141846,-0.8107709884643555
1750555355239707600,4.691707763671875,0.6959279775619507,-4.136377811431885,-1.4968470335006714
1750555355249312500,4.7013125,1.429075002670288,-3.775909900665283,-1.922050952911377
1750555355258917400,4.71091748046875,2.153630018234253,-3.1115570068359375,-2.7587618827819824
1750555355268522800,4.720522705078125,5.27735710144043,-2.962476968765259,-2.384260892868042
1750555355278127600,4.730127685546875,8.77344799041748,-3.3663558959960938,-1.1865960359573364
1750555355287732700,4.739732666015625,10.571175575256348,-3.8704590797424316,-0.11580000072717667
1750555355297337900,4.749337890625,10.324417114257812,-3.753139019012451,0.7311279773712158
1750555355306942700,4.758942626953125,7.819562911987305,-3.068934917449951,1.101868987083435
1750555355316547800,4.7685478515625,5.072650909423828,-2.485985040664673,0.7347930073738098
1750555355326152700,4.778152587890625,4.350348949432373,-1.7260489463806152,0.24671700596809387
1750555355335758000,4.787758056640625,5.8145527839660645,-1.5318679809570312,-0.09626799821853638
1750555355345363000,4.797363037109375,7.849343776702881,-2.083717107772827,-0.24991899728775024
1750555355354968000,4.806968017578125,8.409751892089844,-2.108419895172119,-0.37851399183273315
1750555355364573200,4.8165732421875,7.488653182983398,-1.8607189655303955,-0.29770800471305847
1750555355374178000,4.826177978515625,5.529612064361572,-1.7818830013275146,-0.1998549997806549
1750555355383783000,4.835782958984375,3.8276209831237793,-1.6126799583435059,-0.07898300141096115
1750555355393388000,4.845387939453125,2.734147071838379,-1.4770469665527344,0.09149199724197388
1750555355402993200,4.8549931640625,2.169390916824341,-1.3740880489349365,0.20681999623775482
1750555355412598000,4.864597900390625,2.0148580074310303,-1.2267060279846191,0.30760499835014343
1750555355422203100,4.874203125,1.8593560457229614,-1.1550860404968262,0.3487829864025116
1750555355431808500,4.88380859375,1.6089340448379517,-1.0302660465240479,0.2996180057525635
1750555355441413400,4.893413330078125,1.5228079557418823,-0.8275700211524963,0.1363310068845749
1750555355451018500,4.9030185546875,1.4674420356750488,-0.7894889712333679,-0.017395999282598495
1750555355460623400,4.912623291015625,1.7322039604187012,-0.8048250079154968,-0.16215500235557556
1750555355470228500,4.922228515625,2.1029820442199707,-0.927836000919342,-0.29799601435661316
1750555355479833600,4.93183349609375,1.8390549421310425,-1.0081679821014404,-0.3149679899215698
1750555355489438700,4.941438720703125,0.8596469759941101,-0.8855689764022827,-0.3208659887313843
1750555355499043600,4.951043701171875,-0.03070800006389618,-0.8268960118293762,-0.14611299335956573
1750555355508648400,4.9606484375,-0.5089200139045715,-0.7896289825439453,0.00043200000072829425
1750555355518253800,4.97025390625,-0.4146899878978729,-0.7474669814109802,0.058111999183893204
1750555355527858700,4.979858642578125,0.02685300074517727,-0.8368620276451111,0.06556600332260132
1750555355537463600,4.989463623046875,0.44356098771095276,-0.8818889856338501,0.044387999922037125
1750555355547068700,4.999068603515625,0.8351140022277832,-0.8830549716949463,0.01657100021839142
1750555355556673800,5.008673828125,0.8192819952964783,-0.8261650204658508,0.012497999705374241
1750555355566279000,5.01827880859375,0.5109559893608093,-0.736847996711731,-0.06012500077486038
1750555355575884000,5.027884033203125,0.29907798767089844,-0.5618150234222412,-0.196259006857872
1750555355585489000,5.037489013671875,0.11831299960613251,-0.5243200063705444,-0.29675599932670593
1750555355595094000,5.047093994140625,-0.1378760039806366,-0.5223180055618286,-0.372078001499176
1750555355604699000,5.056698974609375,-0.2901270091533661,-0.4358299970626831,-0.36285400390625
1750555355614304000,5.066303955078125,-0.31280699372291565,-0.41661500930786133,-0.24142299592494965
1750555355623909000,5.0759091796875,-0.1316010057926178,-0.4181489944458008,-0.14568200707435608
1750555355633514000,5.085513916015625,0.3691740036010742,-0.35877498984336853,-0.1457809954881668
1750555355643119000,5.095119140625,0.698777973651886,-0.36113300919532776,-0.14468500018119812
1750555355652724200,5.10472412109375,0.6899880170822144,-0.35565000772476196,-0.10159199684858322
1750555355662329000,5.1143291015625,0.5219939947128296,-0.4431149959564209,-0.04717100039124489
1750555355671934200,5.123934326171875,0.26033198833465576,-0.4930669963359833,0.026863999664783478
1750555355681539300,5.133539306640625,-0.06548099964857101,-0.5257419943809509,0.10854499787092209
1750555355691144200,5.143144287109375,-0.2636899948120117,-0.5096340179443359,0.14509500563144684
1750555355700749300,5.152749267578125,-0.296299010515213,-0.35598400235176086,0.018357999622821808
1750555355710354400,5.1623544921875,-0.1503549963235855,-0.28250399231910706,0.022231999784708023
1750555355719959600,5.17195947265625,-0.010359999723732471,-0.25951001048088074,0.013650000095367432
1750555355729564400,5.181564453125,0.20043900609016418,-0.2679179906845093,0.07248099893331528
1750555355739169500,5.19116943359375,0.35341501235961914,-0.33403998613357544,0.12053100019693375
1750555355748774700,5.200774658203125,0.38617900013923645,-0.29164499044418335,0.054760999977588654
1750555355758379800,5.2103798828125,0.2843939960002899,-0.2780179977416992,0.01295700017362833
1750555355767984600,5.219984619140625,0.13417400419712067,-0.20767000317573547,-0.02907700091600418
1750555355777589800,5.22958984375,0.0993800014257431,-0.13872599601745605,-0.024948999285697937
1750555355787194600,5.239194580078125,0.04857899993658066,-0.14965400099754333,0.04796399921178818
1750555355796800000,5.248800048828125,0.021889999508857727,-0.19899900257587433,0.1013059988617897
1750555355806404900,5.25840478515625,0.04873700067400932,-0.21986599266529083,0.13788199424743652
1750555355816009700,5.268009765625,-0.010878999717533588,-0.26906201243400574,0.14472900331020355
1750555355825614600,5.277614501953125,-0.027848999947309494,-0.2769390046596527,0.125108003616333
1750555355835220000,5.287219970703125,0.013666000217199326,-0.2733309864997864,0.12109799683094025
1750555355844824800,5.296824951171875,0.08353299647569656,-0.22374799847602844,0.07269100099802017
1750555355854430000,5.306429931640625,0.17405900359153748,-0.13324299454689026,0.02184700034558773
1750555355864035000,5.31603515625,0.2227720022201538,-0.09712400287389755,0.07337100058794022
1750555355873640000,5.325639892578125,0.28134098649024963,-0.10205499827861786,0.08649399876594543
1750555355883244800,5.335244873046875,0.30233100056648254,-0.06259799748659134,0.016958000138401985
1750555355892850000,5.344849853515625,0.10929500311613083,-0.06456799805164337,-0.09364199638366699
1750555355902455000,5.354455078125,-0.14599399268627167,-0.022928999736905098,-0.13541600108146667
1750555355912060200,5.36406005859375,-0.23022300004959106,-0.004174999892711639,-0.10285799950361252
1750555355921665000,5.3736650390625,-0.21837100386619568,-0.006132000125944614,0.022918999195098877
1750555355931270100,5.383270263671875,-0.15879400074481964,-0.009126000106334686,0.05774100124835968
1750555355940875300,5.392875244140625,-0.07908900082111359,0.08451800048351288,0.033204998821020126
1750555355950480100,5.402480224609375,0.11040999740362167,0.10175800323486328,-0.03172599896788597
1750555355960085200,5.412085205078125,0.25477299094200134,0.0377499982714653,-0.06655099987983704
1750555355969690400,5.4216904296875,0.1819400042295456,0.0266759991645813,-0.15209999680519104
1750555355979295200,5.431295166015625,0.07887200266122818,0.02065099962055683,-0.10495100170373917
1750555355988900400,5.440900390625,0.06768900156021118,-0.04536399990320206,-0.04575299844145775
1750555355998505500,5.45050537109375,-0.02020600065588951,-0.04398500174283981,0.008445999585092068
1750555356008110300,5.4601103515625,-0.012525999918580055,-0.08657799661159515,0.09132300317287445
1750555356017715500,5.469715576171875,0.04055500030517578,-0.08231499791145325,0.1805810034275055
1750555356027320600,5.479320556640625,-0.038141001015901566,-0.08990299701690674,0.10893499851226807
1750555356036925400,5.488925537109375,-0.11046399921178818,-0.01714400015771389,0.020989999175071716
1750555356046530300,5.4985302734375,-0.1775899976491928,0.005927999969571829,-0.019305000081658363
1750555356056135700,5.5081357421875,-0.3905180096626282,0.016989000141620636,-0.03145499899983406
1750555356065740500,5.517740478515625,-0.4934859871864319,0.1316159963607788,-0.06776399910449982
1750555356075345700,5.527345703125,-0.3098219931125641,0.15703000128269196,-0.17177599668502808
1750555356084950500,5.536950439453125,-0.008425000123679638,0.06821499764919281,-0.2582570016384125
1750555356094555600,5.5465556640625,0.17721499502658844,-0.04510900005698204,-0.18582600355148315
1750555356104160800,5.556160888671875,0.28702300786972046,-0.06637900322675705,-0.09240200370550156
1750555356113765600,5.565765625,0.2913689911365509,-0.06569699943065643,-0.044130999594926834
1750555356123370800,5.575370849609375,0.27753400802612305,-0.09490899741649628,0.03466099873185158
1750555356132975900,5.584975830078125,0.24814799427986145,-0.09208899736404419,0.12402299791574478
1750555356142580700,5.594580810546875,0.1009880006313324,-0.16371500492095947,0.1560789942741394
1750555356152185900,5.604185791015625,-0.035454001277685165,-0.11830700188875198,0.10726600140333176
1750555356161791000,5.613791015625,-0.07795199751853943,-0.0342399999499321,0.018017999827861786
1750555356171395800,5.623395751953125,-0.10927899926900864,0.001908999984152615,-0.06410600244998932
1750555356181001200,5.633001220703125,-0.04963500052690506,0.059546999633312225,-0.06470800191164017
1750555356190606000,5.642606201171875,-0.0030410001054406166,0.09130100160837173,-0.039232999086380005
1750555356200211000,5.6522109375,0.02192699909210205,0.05612900108098984,0.015158000402152538
1750555356209816000,5.661816162109375,0.010762999765574932,-0.0073990002274513245,0.08439099788665771
1750555356219421200,5.671421142578125,0.07034999877214432,-0.08028099685907364,0.09177199751138687
1750555356229026300,5.6810263671875,-0.017727000638842583,-0.10526599735021591,0.08131399750709534
1750555356238631400,5.69063134765625,-0.12883800268173218,-0.0811770036816597,0.05327799916267395
1750555356248236000,5.700236083984375,-0.08061899989843369,-0.02918899990618229,-0.0056130001321434975
1750555356257841400,5.70984130859375,0.07480599731206894,0.0006339999963529408,-0.062445998191833496
1750555356267446300,5.7194462890625,0.2347559928894043,-0.00395999988541007,-0.04098699986934662
1750555356277051100,5.729051025390625,0.14581599831581116,0.007052999921143055,-0.013581999577581882
1750555356286656500,5.738656494140625,0.010238000191748142,-0.04229399934411049,0.036577001214027405
1750555356296261400,5.748261474609375,-0.010786999948322773,-0.06110500171780586,0.0550369992852211
1750555356305866500,5.757866455078125,-0.00010399999882793054,-0.04975400120019913,0.017613999545574188
1750555356315471600,5.7674716796875,-0.010377000086009502,-0.032124001532793045,-0.0015650000423192978
1750555356325076500,5.777076416015625,-0.04308899864554405,0.03118699975311756,-0.046268999576568604
1750555356334681600,5.786681640625,-0.08001500368118286,0.03381900116801262,-0.06740999966859818
1750555356344286700,5.79628662109375,-0.20344999432563782,0.050207000225782394,-0.0839340016245842
1750555356353891600,5.8058916015625,-0.26252201199531555,0.08268799632787704,-0.09253700077533722
1750555356363496400,5.815496337890625,-0.21444499492645264,0.0681530013680458,-0.05054999887943268
1750555356373101600,5.8251015625,-0.06715299934148788,0.02073800005018711,0.012484000064432621
1750555356382706700,5.834706787109375,-0.00940600037574768,-0.07445599883794785,0.06613100320100784
1750555356392311600,5.8443115234375,0.0634320005774498,-0.0834140032529831,0.08535700291395187
1750555356401916700,5.853916748046875,0.004209000151604414,-0.02589699998497963,0.027710000053048134
1750555356411521800,5.863521728515625,-0.07381200045347214,0.025165999308228493,-0.05477700009942055
1750555356421127000,5.873126953125,-0.14033299684524536,0.061466000974178314,-0.08065800368785858
1750555356430731800,5.882731689453125,-0.19003400206565857,0.04743200168013573,-0.09041400253772736
1750555356440337000,5.8923369140625,-0.0495229996740818,-0.01145000010728836,-0.03555599972605705
1750555356449942000,5.90194189453125,0.1439339965581894,-0.08417700231075287,0.027418000623583794
1750555356459547100,5.911547119140625,0.24543200433254242,-0.1279439926147461,0.09209000319242477
1750555356469152000,5.921152099609375,0.26002100110054016,-0.137022003531456,0.10819700360298157
1750555356478756900,5.9307568359375,0.147939994931221,-0.08044499903917313,0.05603799968957901
1750555356488362000,5.940362060546875,-0.007240999955683947,-0.04287999868392944,0.011881000362336636
1750555356497967000,5.949967041015625,-0.17419099807739258,0.00876499991863966,-0.06330200284719467
1750555356507572200,5.959572265625,-0.2327899932861328,0.07267799973487854,-0.08304499834775925
1750555356517177000,5.969177001953125,-0.1041179969906807,0.0675090029835701,-0.08174899965524673
1750555356526782000,5.978781982421875,0.044119998812675476,0.054471999406814575,-0.01559900026768446
1750555356536387000,5.988386962890625,0.14011800289154053,0.07551900297403336,0.00011600000289035961
1750555356545992200,5.9979921875,0.3036249876022339,0.07068199664354324,-0.037018001079559326
1750555356555597000,6.00759716796875,0.37981700897216797,0.024442000314593315,-0.015305000357329845
1750555356565202000,6.017201904296875,0.14359299838542938,-0.012702000327408314,0.06364999711513519
1750555356574807300,6.026807373046875,-0.15991400182247162,0.004650000017136335,0.17860999703407288
1750555356584412200,6.036412109375,-0.2963530123233795,-0.028533000499010086,0.22049300372600555
1750555356594017300,6.046017333984375,-0.3388940095901489,0.004554999992251396,0.19552800059318542
1750555356603622400,6.055622314453125,-0.3509039878845215,0.02407900057733059,0.12304999679327011
1750555356613227300,6.065227294921875,-0.25724300742149353,0.06318400055170059,-0.034890998154878616
1750555356622832400,6.074832275390625,-0.20240500569343567,0.10285499691963196,-0.11888600140810013
1750555356632437500,6.0844375,-0.11378800123929977,0.0881659984588623,-0.16405700147151947
1750555356642042400,6.09404248046875,0.04938000068068504,0.056168001145124435,-0.10913699865341187
1750555356651647500,6.1036474609375,0.19384199380874634,-0.012354999780654907,0.02917799912393093
1750555356661252600,6.113252685546875,0.3433789908885956,-0.07405199855566025,0.10529100149869919
1750555356670857700,6.122857666015625,0.4078499972820282,-0.0881510004401207,0.17271900177001953
1750555356680462600,6.132462646484375,0.2814910113811493,-0.0636420026421547,0.13650299608707428
1750555356690067500,6.1420673828125,0.14595800638198853,0.020098000764846802,0.04281599819660187
1750555356699672600,6.151672607421875,0.0643170028924942,0.06229399889707565,-0.10746700316667557
1750555356709277700,6.161277587890625,0.009548000060021877,0.08554600179195404,-0.19640199840068817
1750555356718882600,6.170882568359375,0.07208900153636932,0.0777129977941513,-0.14170800149440765
1750555356728487700,6.18048779296875,0.09630200266838074,0.01853800006210804,-0.05104399845004082
1750555356738092800,6.1900927734375,0.04745100066065788,-0.03626200184226036,0.015912000089883804
1750555356747697700,6.19969775390625,-0.01749200001358986,-0.008189000189304352,0.03550399839878082
1750555356757302800,6.209302734375,-0.07835900038480759,-0.01970599964261055,0.0030620000325143337
1750555356766908000,6.218907958984375,-0.11021800339221954,0.004280999768525362,-0.036327000707387924
1750555356776512800,6.2285126953125,-0.05222199857234955,0.015644999220967293,-0.028996000066399574
1750555356786118000,6.238117919921875,-0.0422930009663105,0.0009319999953731894,-0.06773900240659714
1750555356795723000,6.247722900390625,-0.01976200006902218,-0.009916000068187714,-0.011537999846041203
1750555356805328000,6.257327880859375,0.043719999492168427,-0.011490000411868095,0.07812199741601944
1750555356814932700,6.2669326171875,0.050315000116825104,-0.028233999386429787,0.20172099769115448
1750555356824537900,6.276537841796875,-0.11225300282239914,-0.03547599911689758,0.22150899469852448
1750555356834143000,6.28614306640625,-0.2454030066728592,-0.025999000295996666,0.13654300570487976
1750555356843748000,6.295748046875,-0.28271999955177307,0.0024770000018179417,0.09955299645662308
1750555356853353000,6.30535302734375,-0.2884320020675659,-0.00445199990645051,0.08454100042581558
1750555356862958000,6.3149580078125,-0.32395899295806885,-0.0047980002127587795,0.14628000557422638
1750555356872563200,6.324563232421875,-0.3402380049228668,0.03547799959778786,0.1490190029144287
1750555356882168300,6.334168212890625,-0.35341399908065796,0.025722000747919083,0.2049960047006607
1750555356891773400,6.3437734375,-0.34367799758911133,0.12647199630737305,0.195701003074646
1750555356901378300,6.35337841796875,-0.20453700423240662,0.12994599342346191,0.15812799334526062
1750555356910983200,6.362983154296875,-0.08609999716281891,0.09853699803352356,0.11827299743890762
1750555356920588300,6.37258837890625,0.2715499997138977,0.20245200395584106,0.02332800067961216
1750555356930193400,6.382193359375,1.2734949588775635,0.2927300035953522,0.045504000037908554
1750555356939798300,6.39179833984375,3.418800115585327,0.40338701009750366,-0.19372500479221344
1750555356949403400,6.4014033203125,6.622978210449219,0.31625398993492126,-0.3412240147590637
1750555356959008500,6.411008544921875,9.445388793945312,-0.13326799869537354,-0.5886179804801941
1750555356968613400,6.42061328125,11.554227828979492,-0.9813550114631653,-0.5453559756278992
1750555356978218200,6.43021826171875,11.806371688842773,-2.040008068084717,-0.25836798548698425
1750555356987823600,6.43982373046875,10.515862464904785,-2.060271978378296,-1.211230993270874
1750555356997428500,6.449428466796875,8.836076736450195,-2.219338893890381,-1.3239760398864746
1750555357007033300,6.459033447265625,6.417342185974121,-1.7969609498977661,-1.9297230243682861
1750555357016638500,6.468638427734375,5.294524192810059,-2.087697982788086,-2.4639060497283936
1750555357026243600,6.47824365234375,3.915555953979492,-2.9253969192504883,-1.5777889490127563
1750555357035848400,6.487848388671875,1.592494010925293,-3.347177028656006,-0.446586012840271
1750555357045453600,6.49745361328125,-0.20865200459957123,-3.7033839225769043,0.09335900098085403
1750555357055058700,6.50705859375,-2.835961103439331,-3.173082113265991,-0.11677700281143188
1750555357064663600,6.51666357421875,-6.3354058265686035,-1.8293739557266235,-0.2237669974565506
1750555357074268700,6.5262685546875,-8.958471298217773,-0.7605540156364441,0.26800599694252014
1750555357083873800,6.535873779296875,-9.26050853729248,-0.3657509982585907,0.5526990294456482
1750555357093478700,6.545478759765625,-8.206903457641602,-0.6465920209884644,0.7505639791488647
1750555357103083800,6.555083740234375,-6.256255149841309,-1.057492971420288,0.9462990164756775
1750555357112689000,6.56468896484375,-4.568210124969482,-1.3098520040512085,0.6690829992294312
1750555357122294000,6.5742939453125,-3.0783441066741943,-1.3462660312652588,0.17527399957180023
1750555357131899000,6.58389892578125,-2.1810901165008545,-1.4757859706878662,-0.20526400208473206
1750555357141503700,6.593503662109375,-1.5360130071640015,-1.7346030473709106,-0.1508059948682785
1750555357151109000,6.603109130859375,-1.5095670223236084,-2.054555892944336,0.28040599822998047
1750555357160714000,6.6127138671875,-2.1611111164093018,-2.157581090927124,0.599045991897583
1750555357170318800,6.62231884765625,-3.5518109798431396,-1.886715054512024,0.7253810167312622
1750555357179924200,6.63192431640625,-5.225430965423584,-1.3046159744262695,0.6303669810295105
1750555357189529000,6.641529052734375,-6.231410026550293,-0.9252169728279114,0.5254290103912354
1750555357199134000,6.651134033203125,-6.32269811630249,-1.1088019609451294,0.5550029873847961
1750555357208739000,6.660739013671875,-5.572975158691406,-1.669985055923462,0.5543259978294373
1750555357218344200,6.67034423828125,-4.653412818908691,-2.2111830711364746,0.7174180150032043
1750555357227949000,6.679948974609375,-4.194188117980957,-2.4207239151000977,0.8246189951896667
1750555357237554200,6.68955419921875,-4.012452125549316,-2.5318429470062256,0.48726001381874084
1750555357247159300,6.6991591796875,-3.2673299312591553,-2.5638248920440674,0.0618709996342659
1750555357256764200,6.70876416015625,-2.997499942779541,-2.4860689640045166,-0.36993101239204407
1750555357266369300,6.718369384765625,-2.931318998336792,-2.399355888366699,-0.7039859890937805
1750555357275974400,6.727974365234375,-2.9382259845733643,-2.683866024017334,-0.5803970098495483
1750555357285579300,6.737579345703125,-1.502506971359253,-3.107530117034912,-0.6609179973602295
1750555357295184100,6.74718408203125,1.232306957244873,-4.05380916595459,-0.534093976020813
1750555357304789500,6.75678955078125,4.782077789306641,-4.159234046936035,-0.9612749814987183
1750555357314394400,6.766394287109375,7.962975025177002,-3.9640800952911377,-1.0817389488220215
1750555357323999500,6.77599951171875,9.706306457519531,-3.2586851119995117,-1.3517049551010132
1750555357333604600,6.7856044921875,10.093147277832031,-2.5967230796813965,-1.1645859479904175
1750555357343209500,6.79520947265625,9.746246337890625,-2.2858479022979736,-0.585669994354248
1750555357352814300,6.804814453125,9.403070449829102,-2.4060370922088623,-0.08726699650287628
1750555357362419500,6.81441943359375,8.399003982543945,-2.6165480613708496,0.24118700623512268
1750555357372024600,6.824024658203125,6.310956001281738,-2.3877129554748535,0.4218690097332001
1750555357381629700,6.833629638671875,4.68084192276001,-2.0027658939361572,0.38126999139785767
1750555357391234600,6.843234619140625,3.8794240951538086,-1.620439052581787,0.17304499447345734
1750555357400839700,6.852839599609375,3.3919200897216797,-1.3026880025863647,-0.08009500056505203
1750555357410444500,6.862444580078125,3.3477981090545654,-1.2750060558319092,-0.12714500725269318
1750555357420049700,6.872049560546875,3.6453518867492676,-1.3114739656448364,-0.1296200007200241
1750555357429654500,6.881654541015625,3.746005058288574,-1.1963579654693604,-0.252824991941452
1750555357439260000,6.891260009765625,3.5758728981018066,-1.0419830083847046,-0.3852100074291229
1750555357448864800,6.90086474609375,3.101538896560669,-1.006018042564392,-0.3566339910030365
1750555357458469600,6.9104697265625,2.462512969970703,-1.0053960084915161,-0.168845996260643
1750555357468074800,6.92007470703125,1.6417289972305298,-1.0264639854431152,0.07503200322389603
1750555357477679900,6.929679931640625,1.1677520275115967,-1.0567129850387573,0.3458409905433655
1750555357487284700,6.93928466796875,1.1600019931793213,-1.0589489936828613,0.350629985332489
1750555357496889900,6.948889892578125,1.525076985359192,-1.0839309692382812,0.10802099853754044
1750555357506494700,6.95849462890625,1.8209960460662842,-0.9500880241394043,-0.24896499514579773
1750555357516099800,6.968099853515625,1.6975510120391846,-0.858260989189148,-0.4822100102901459
1750555357525705000,6.977705078125,1.407433032989502,-0.7727320194244385,-0.5187349915504456
1750555357535310000,6.98731005859375,1.094323992729187,-0.7461400032043457,-0.5144929885864258
1750555357544915000,6.9969150390625,0.9007869958877563,-0.8063660264015198,-0.4253210127353668
1750555357554519800,7.006519775390625,0.6752910017967224,-0.8117079734802246,-0.3632790148258209
1750555357564125200,7.016125244140625,0.39876699447631836,-0.7846390008926392,-0.3539310097694397
1750555357573730000,7.02572998046875,0.38909199833869934,-0.7441700100898743,-0.3439129889011383
1750555357583335000,7.0353349609375,0.41798698902130127,-0.6969370245933533,-0.36203300952911377
1750555357592940000,7.04493994140625,0.573527991771698,-0.7114670276641846,-0.26738300919532776
1750555357602545200,7.054545166015625,0.7369639873504639,-0.7287600040435791,-0.26311200857162476
1750555357612150000,7.06414990234375,0.7113999724388123,-0.717278003692627,-0.28762099146842957
1750555357621755100,7.073755126953125,0.4650619924068451,-0.6862000226974487,-0.3671889901161194
1750555357631360300,7.0833603515625,0.19456300139427185,-0.6285709738731384,-0.3440130054950714
1750555357640965000,7.092965087890625,-0.1028439998626709,-0.6348339915275574,-0.25099998712539673
1750555357650570000,7.102570068359375,-0.1886100023984909,-0.6582840085029602,-0.12154600024223328
1750555357660175400,7.11217529296875,-0.2556169927120209,-0.6544489860534668,-0.009681000374257565
1750555357669780200,7.1217802734375,-0.3175320029258728,-0.564795970916748,0.04650399833917618
1750555357679385000,7.131385009765625,-0.2124910056591034,-0.5510069727897644,0.14899300038814545
1750555357688990200,7.140990234375,-0.08833099901676178,-0.6086440086364746,0.13750700652599335
1750555357698595300,7.15059521484375,0.14537200331687927,-0.6150779724121094,0.04121199995279312
1750555357708200200,7.1602001953125,0.46864598989486694,-0.5836120247840881,-0.10889600217342377
1750555357717805300,7.169805419921875,0.6136720180511475,-0.6197999715805054,-0.10403899848461151
1750555357727410400,7.179410400390625,0.5641000270843506,-0.6023269891738892,-0.06287399679422379
1750555357737015300,7.189015380859375,0.3496139943599701,-0.4899910092353821,-0.04227200150489807
1750555357746620400,7.198620361328125,0.06503800302743912,-0.3708699941635132,0.0016499999910593033
1750555357756225500,7.2082255859375,-0.12936699390411377,-0.2853280007839203,-0.02601199969649315
1750555357765830400,7.217830322265625,-0.14327499270439148,-0.23676900565624237,-0.019385000690817833
1750555357775435500,7.227435546875,0.004474999848753214,-0.1961899995803833,-0.050331000238657
1750555357785040600,7.23704052734375,0.2155890017747879,-0.15145200490951538,-0.1010190024971962
1750555357794645500,7.2466455078125,0.31113100051879883,-0.21084600687026978,-0.09007900208234787
1750555357804250600,7.256250732421875,0.41236698627471924,-0.24384699761867523,0.00547399977222085
1750555357813855500,7.26585546875,0.5066379904747009,-0.24992799758911133,0.11526600271463394
1750555357823460600,7.275460693359375,0.6356539726257324,-0.2777029871940613,0.18016299605369568
1750555357833065700,7.285065673828125,0.6922109723091125,-0.23965400457382202,0.16665500402450562
1750555357842670600,7.294670654296875,0.5580329895019531,-0.10108400136232376,0.04271800071001053
1750555357852275700,7.304275634765625,0.32127898931503296,-0.039388999342918396,-0.036302000284194946
1750555357861880600,7.313880615234375,0.029015999287366867,-0.005758999846875668,-0.07407300174236298
1750555357871485700,7.323485595703125,-0.13059599697589874,0.0302520003169775,-0.11551599949598312
1750555357881090800,7.3330908203125,-0.15102100372314453,0.013190999627113342,-0.052556999027729034
1750555357890695700,7.34269580078125,-0.05588499829173088,-0.02268500067293644,-0.001053999993018806
1750555357900300800,7.35230078125,0.10007300227880478,-0.05806799978017807,0.0009850000496953726
1750555357909905700,7.36190576171875,0.36743301153182983,0.009576999582350254,-0.019169000908732414
1750555357919510800,7.3715107421875,0.5427359938621521,0.00735800014808774,-0.039354998618364334
1750555357929116000,7.381115966796875,0.4797329902648926,-0.008061000145971775,-0.053266000002622604
1750555357938720800,7.390720703125,0.3236680030822754,0.001478999969549477,-0.008391999639570713
1750555357948325600,7.40032568359375,0.06734299659729004,-0.06690999865531921,0.07788500189781189
1750555357957931000,7.409930908203125,-0.10100799798965454,-0.059029001742601395,0.08011399954557419
1750555357967535900,7.419535888671875,-0.21815399825572968,-0.03136200085282326,0.07052099704742432
1750555357977140700,7.429140625,-0.22890600562095642,0.004614000208675861,0.10419400036334991
1750555357986746000,7.43874609375,-0.22832100093364716,-0.008731000125408173,0.22921499609947205
1750555357996351000,7.44835107421875,-0.18412399291992188,-0.04369800165295601,0.24011600017547607
1750555358005955800,7.457955810546875,-0.023315999656915665,-0.11745599657297134,0.22703799605369568
1750555358015561000,7.46756103515625,0.06784000247716904,-0.1947149932384491,0.18085099756717682
1750555358025166000,7.477166015625,0.08671999722719193,-0.215721994638443,0.11469999700784683
1750555358034771000,7.48677099609375,0.05713900178670883,-0.20722100138664246,0.0723389983177185
1750555358044376000,7.4963759765625,-0.04606299847364426,-0.17376099526882172,-0.025171000510454178
1750555358053981200,7.505981201171875,-0.1596439927816391,-0.13102400302886963,-0.03552699834108353
1750555358063586000,7.5155859375,-0.18883900344371796,-0.11348100006580353,0.03642300143837929
1750555358073191000,7.52519091796875,-0.17537499964237213,-0.08879700303077698,0.0821089968085289
1750555358082796300,7.53479638671875,-0.1288059949874878,-0.0613659992814064,0.08835499733686447
1750555358092401200,7.544401123046875,-0.1532759964466095,-0.09718699753284454,0.10463099926710129
1750555358102006000,7.554006103515625,-0.13128900527954102,-0.1097560003399849,0.0698309987783432
1750555358111611100,7.563611083984375,-0.1905059963464737,-0.05324999988079071,-0.015190999954938889
1750555358121216300,7.57321630859375,-0.3240100145339966,-0.06193700060248375,-0.08958499878644943
1750555358130821000,7.582821044921875,-0.2547059953212738,-0.06904499977827072,-0.0684410035610199
1750555358140426200,7.59242626953125,-0.1436000019311905,-0.11394400149583817,-0.0766180008649826
1750555358150031400,7.60203125,0.014411999844014645,-0.16103699803352356,-0.021431999281048775
1750555358159636200,7.61163623046875,0.13418300449848175,-0.1066489964723587,0.06504599750041962
1750555358169241000,7.621240966796875,0.19664399325847626,-0.10013700276613235,0.12809500098228455
1750555358178846500,7.630846435546875,0.202333003282547,-0.09678400307893753,0.16735899448394775
1750555358188451300,7.640451416015625,0.04047200083732605,-0.09732300043106079,0.12962700426578522
1750555358198056200,7.65005615234375,-0.024436000734567642,-0.07388299703598022,0.10349100083112717
1750555358207661300,7.659661376953125,-0.0470380000770092,-0.029039999470114708,-0.04257399961352348
1750555358217266400,7.669266357421875,-0.0024999999441206455,0.0033319999929517508,-0.11899100244045258
1750555358226871600,7.67887158203125,0.06596300005912781,-0.016207000240683556,-0.11491599678993225
1750555358236476400,7.688476318359375,0.15797199308872223,-0.0008319999906234443,-0.1120460033416748
1750555358246081500,7.69808154296875,0.22942200303077698,0.023718999698758125,-0.12897799909114838
1750555358255686400,7.707686279296875,0.27703699469566345,0.060203999280929565,-0.1327040046453476
1750555358265291500,7.71729150390625,0.22876399755477905,0.07715799659490585,-0.07236699759960175
1750555358274896600,7.726896728515625,0.16950300335884094,0.0729139968752861,-0.06296499818563461
1750555358284501500,7.73650146484375,0.06644599884748459,0.07994499802589417,-0.0663909986615181
1750555358294106400,7.7461064453125,0.018882999196648598,0.09025999903678894,-0.07133399695158005
1750555358303711500,7.75571142578125,-0.03131699934601784,0.11197400093078613,-0.16937899589538574
1750555358313316400,7.76531640625,-0.08373100310564041,0.1948779970407486,-0.26946398615837097
1750555358322921500,7.77492138671875,-0.07902300357818604,0.2751010060310364,-0.3819189965724945
1750555358332526600,7.784526611328125,-0.006792999804019928,0.2790440022945404,-0.3405439853668213
1750555358342131700,7.794131591796875,-0.09361600130796432,0.19851499795913696,-0.21712300181388855
1750555358351736800,7.80373681640625,-0.2350189983844757,0.14886200428009033,-0.029864000156521797
1750555358361341700,7.813341796875,-0.32197800278663635,0.035652998834848404,0.10238999873399734
1750555358370946800,7.82294677734375,-0.32569900155067444,-0.07125499844551086,0.16408400237560272
1750555358380551700,7.8325517578125,-0.36467400193214417,-0.123369000852108,0.12657299637794495
1750555358390156800,7.84215673828125,-0.2737790048122406,-0.144663006067276,0.10797599703073502
1750555358399761700,7.85176171875,-0.05370299890637398,-0.15270499885082245,0.09668099880218506
1750555358409366500,7.861366455078125,0.1358869969844818,-0.16760900616645813,0.0386740006506443
1750555358418971600,7.8709716796875,0.27267900109291077,-0.0962890014052391,-0.04980500042438507
1750555358428576800,7.88057666015625,0.250573992729187,-0.06278099864721298,-0.08305700123310089
1750555358438182000,7.890181884765625,0.07574799656867981,-0.06637699902057648,-0.08929900079965591
1750555358447786800,7.899786865234375,-0.10337600111961365,-0.07586699724197388,-0.04999599978327751
1750555358457391900,7.909391845703125,-0.24651899933815002,-0.10919400304555893,-0.00318100000731647
1750555358466996700,7.918996826171875,-0.2671459913253784,-0.051927998661994934,0.07050900161266327
1750555358476601600,7.9286015625,-0.2134079933166504,0.024351000785827637,0.11221899837255478
1750555358486207000,7.93820703125,-0.07016400247812271,0.04496400058269501,0.09327100217342377
1750555358495811800,7.947811767578125,0.07566600292921066,0.06340499967336655,0.031165000051259995
1750555358505417000,7.9574169921875,0.20403499901294708,0.0849900022149086,-0.042458999902009964
1750555358515021800,7.967021728515625,0.35769400000572205,0.05590000003576279,-0.08658699691295624
1750555358524627000,7.976626953125,0.2965970039367676,-0.044992998242378235,-0.024792000651359558
1750555358534231800,7.986231689453125,0.13276399672031403,-0.033955998718738556,0.10658399760723114
1750555358543837000,7.9958369140625,0.10295099765062332,0.0006230000290088356,0.19571399688720703
1750555358553442000,8.005442138671874,0.16247500479221344,-0.01768600009381771,0.1927579939365387
1750555358563047000,8.015046875,0.122189000248909,0.08656000345945358,0.1148580014705658
1750555358572651800,8.02465185546875,0.1548590064048767,0.14746199548244476,-0.0005590000073425472
1750555358582257000,8.0342568359375,0.19867199659347534,0.11829099804162979,-0.04891299828886986
1750555358591862000,8.043862060546875,0.16732899844646454,0.06889600306749344,-0.04928300157189369
1750555358601467100,8.053467041015624,0.23704400658607483,-0.0176829993724823,-0.01768999919295311
1750555358611072300,8.063072265625,0.39590001106262207,-0.0002010000025620684,0.014654000289738178
1750555358620677000,8.072677001953124,0.4488289952278137,0.03019700013101101,0.006122000049799681
1750555358630282000,8.082281982421875,0.41417500376701355,0.07063300162553787,0.06871499866247177
1750555358639887400,8.091887451171875,0.3054620027542114,0.06138300150632858,0.0909309983253479
1750555358649492000,8.101491943359376,0.07238999754190445,0.04706300050020218,0.1172730028629303
1750555358659097000,8.11109716796875,-0.15961599349975586,-0.05571899935603142,0.16665300726890564
1750555358668702200,8.1207021484375,-0.5075880289077759,0.011977000162005424,0.1477240025997162
1750555358678307000,8.13030712890625,-0.679220974445343,-0.011603999882936478,0.20063599944114685
1750555358687912200,8.139912109375,-0.6452699899673462,-0.031585998833179474,0.17500099539756775
1750555358697517000,8.14951708984375,-0.39556801319122314,0.007451000157743692,0.07117299735546112
1750555358707122200,8.1591220703125,-0.24038299918174744,0.02052599936723709,-0.02126999944448471
1750555358716727300,8.168727294921876,-0.20170600712299347,0.0786919966340065,-0.12384799867868423
1750555358726332200,8.178332275390625,-0.07346100360155106,0.0867300033569336,-0.20169000327587128
1750555358735937300,8.187937255859374,-0.06579799950122833,0.01784300059080124,-0.1956389993429184
1750555358745542400,8.19754248046875,-0.10190500319004059,0.005289999768137932,-0.10440400242805481
1750555358755147300,8.207147216796875,-0.08164999634027481,-0.03652400150895119,0.059473998844623566
1750555358764752100,8.216752197265626,-0.0484360009431839,-0.08125600218772888,0.09189900010824203
1750555358774357200,8.226357177734375,0.0401649996638298,-0.038148000836372375,0.05989599972963333
1750555358783962400,8.23596240234375,0.007705000229179859,0.00965499971061945,0.011308000423014164
1750555358793567200,8.245567138671875,-0.017842000350356102,0.06165400147438049,-0.030861999839544296
1750555358803172400,8.25517236328125,-0.046911001205444336,0.09532800316810608,0.006366000045090914
1750555358812777200,8.264777099609375,0.04975700005888939,0.02860799990594387,0.0548119992017746
1750555358822382300,8.27438232421875,0.3356510102748871,0.004850999917834997,0.021243000403046608
1750555358831987200,8.2839873046875,0.4769519865512848,-0.014437999576330185,-0.011795000173151493
1750555358841592300,8.29359228515625,0.3946479856967926,-0.01635199971497059,-0.034501999616622925
1750555358851197400,8.303197509765624,0.26604700088500977,-0.011517000384628773,-0.05108699947595596
1750555358860802300,8.31280224609375,0.14384299516677856,0.04067999869585037,-0.04445299878716469
1750555358870407400,8.322407470703125,0.08592099696397781,0.15640300512313843,-0.04093899950385094
1750555358880012500,8.332012451171876,0.049352001398801804,0.1829179972410202,-0.02190300077199936
1750555358889617400,8.341617431640625,0.019589999690651894,0.2138269990682602,0.005944000091403723
1750555358899222500,8.351222412109376,0.152197003364563,0.20938299596309662,0.06812400370836258
1750555358908827400,8.360827392578125,0.18161199986934662,0.14142900705337524,0.08964599668979645
1750555358918432500,8.3704326171875,0.010110000148415565,0.1491139978170395,0.11852099746465683
1750555358928037400,8.380037353515625,-0.20413699746131897,0.18118900060653687,0.15212799608707428
1750555358937642500,8.389642578125,-0.2707569897174835,0.23791000247001648,0.26719799637794495
1750555358947247400,8.399247314453126,-0.3045729994773865,0.2600579857826233,0.37643399834632874
1750555358956852500,8.4088525390625,-0.1867939978837967,0.2892970144748688,0.4561370015144348
1750555358966457600,8.41845751953125,0.29115599393844604,0.24562999606132507,0.5055009722709656
1750555358976062500,8.4280625,1.427459955215454,0.2713190019130707,0.13411200046539307
1750555358985667300,8.437667236328124,4.073268890380859,0.35259199142456055,-0.4357619881629944
1750555358995272400,8.4472724609375,6.3893232345581055,-0.09094599634408951,-0.5644840002059937
1750555359004877600,8.456877685546875,8.957027435302734,-0.49342501163482666,-0.8245220184326172
1750555359014482400,8.466482421875,12.526544570922852,-1.7678719758987427,-0.7221119999885559
1750555359024087600,8.476087646484375,13.563493728637695,-2.8143179416656494,-0.8365600109100342
1750555359033692700,8.485692626953124,13.241570472717285,-2.702014923095703,-1.9306269884109497
1750555359043297500,8.495297607421875,11.570636749267578,-3.480705976486206,-1.9508570432662964
1750555359052902700,8.504902587890625,7.6762800216674805,-4.218286991119385,-1.8553400039672852
1750555359062507500,8.514507568359376,4.2953901290893555,-4.793125152587891,-1.2925360202789307
1750555359072112600,8.524112548828125,0.5242390036582947,-4.397961139678955,-1.095636010169983
1750555359081717800,8.5337177734375,-2.9742050170898438,-3.0467779636383057,-1.4407559633255005
1750555359091322600,8.543322509765625,-5.546664237976074,-2.1509621143341064,-1.4384959936141968
1750555359100927700,8.552927734375,-8.106225967407227,-1.2091259956359863,-1.2426509857177734
1750555359110532600,8.56253271484375,-8.618429183959961,-0.26645898818969727,-0.6243939995765686
1750555359120137700,8.5721376953125,-7.548542022705078,-0.3633680045604706,0.22867999970912933
1750555359129742600,8.58174267578125,-6.796433925628662,-0.6799269914627075,0.5822659730911255
1750555359139347700,8.59134765625,-5.359311103820801,-0.8450009822845459,0.7049580216407776
1750555359148952800,8.600952880859374,-4.024686813354492,-1.0645300149917603,0.7437800168991089
1750555359158557700,8.6105576171875,-3.1555769443511963,-1.2670049667358398,0.6521599888801575
1750555359168162600,8.62016259765625,-2.5606610774993896,-1.5216779708862305,0.8543630242347717
1750555359177767700,8.629767578125,-2.271449089050293,-1.7510639429092407,1.0125700235366821
1750555359187372800,8.639372802734375,-2.093018054962158,-1.9555699825286865,1.1734479665756226
1750555359196977700,8.648977783203126,-2.0414040088653564,-2.010629892349243,1.3786020278930664
1750555359206582800,8.658582763671875,-2.116715908050537,-1.987874984741211,1.2580569982528687
1750555359216187600,8.668187744140624,-2.52908992767334,-1.6092790365219116,0.8321430087089539
1750555359225792800,8.677792724609375,-3.4084889888763428,-0.9356259703636169,0.43011999130249023
1750555359235397600,8.687397705078125,-3.946074962615967,-0.5891320109367371,0.0901309996843338
1750555359245002800,8.697002685546876,-3.8923730850219727,-0.4183259904384613,-0.24844299256801605
1750555359254608000,8.70660791015625,-3.618622064590454,-0.4230549931526184,-0.47373300790786743
1750555359264212700,8.716212646484376,-3.075982093811035,-0.605588972568512,-0.5158439874649048
1750555359273817900,8.72581787109375,-2.81974196434021,-0.9095810055732727,-0.21477800607681274
1750555359283422700,8.735422607421874,-2.7194530963897705,-1.3358010053634644,0.030408000573515892
1750555359293027800,8.74502783203125,-2.8037800788879395,-1.710415005683899,0.33460599184036255
1750555359302632700,8.7546328125,-3.0520830154418945,-1.9986770153045654,0.40589800477027893
1750555359312238000,8.764238037109376,-2.9256649017333984,-2.2957780361175537,0.37053900957107544
1750555359321843000,8.773843017578125,-2.7185800075531006,-2.642256021499634,0.24647100269794464
1750555359331448000,8.783447998046874,-2.7570340633392334,-3.035504102706909,0.12163300067186356
1750555359341053000,8.793052978515625,-2.499152898788452,-3.8240649700164795,0.403560996055603
1750555359350657800,8.80265771484375,-1.7060619592666626,-4.288681983947754,-0.018296999856829643
1750555359360263000,8.812262939453126,0.7149670124053955,-5.127319812774658,-0.4556570053100586
1750555359369868000,8.821867919921875,4.524648189544678,-5.340700149536133,-0.8538640141487122
1750555359379472600,8.83147265625,8.994352340698242,-4.809321880340576,-1.4205900430679321
1750555359389078000,8.841078125,12.592252731323242,-3.9730520248413086,-1.7079659700393677
1750555359398683000,8.850682861328124,14.278465270996094,-3.641364097595215,-1.2972990274429321
1750555359408287700,8.860287841796875,13.33191967010498,-3.767190933227539,-0.43044400215148926
1750555359417892900,8.869892822265625,10.502099990844727,-3.543302059173584,0.23884700238704681
1750555359427497700,8.879497802734376,7.257999897003174,-3.2645208835601807,0.5811349749565125
1750555359437102800,8.889102783203125,4.537162780761719,-2.837937116622925,0.45489099621772766
1750555359446708000,8.8987080078125,2.8370819091796875,-2.0946359634399414,-0.05398600175976753
1750555359456312800,8.908312744140625,2.2629430294036865,-1.5349769592285156,-0.45283499360084534
1750555359465918000,8.91791796875,2.579741954803467,-1.239954948425293,-0.6956660151481628
1750555359475522800,8.927522705078125,3.6321749687194824,-1.0794240236282349,-1.1724209785461426
1750555359485128000,8.9371279296875,4.8161821365356445,-1.0332679748535156,-1.2119150161743164
1750555359494732800,8.94673291015625,5.009393215179443,-1.2173449993133545,-0.9639710187911987
1750555359504337700,8.956337646484375,4.730995178222656,-1.383152961730957,-0.4842570126056671
1750555359513943000,8.965943115234374,4.163144111633301,-1.5944620370864868,0.08433099836111069
1750555359523548000,8.9755478515625,3.398737907409668,-1.7739989757537842,0.4257330000400543
1750555359533153000,8.985153076171875,2.6643669605255127,-1.785580039024353,0.5693309903144836
1750555359542758100,8.994758056640626,2.1549150943756104,-1.5781160593032837,0.496053010225296
1750555359552363000,9.004363037109375,2.0323450565338135,-1.3649100065231323,0.23384599387645721
1750555359561967900,9.0139677734375,1.9596199989318848,-1.2034250497817993,0.024799000471830368
1750555359571573000,9.023572998046875,1.9112939834594727,-1.028149962425232,-0.12120500206947327
1750555359581178000,9.03317822265625,1.8294179439544678,-0.9613540172576904,-0.18880699574947357
1750555359590783000,9.042782958984375,1.472659945487976,-0.8625239729881287,-0.12505100667476654
1750555359600387800,9.052387939453125,1.1589030027389526,-0.7339630126953125,-0.2340800017118454
1750555359609993000,9.061992919921876,0.9382010102272034,-0.688368022441864,-0.30563101172447205
1750555359619598000,9.07159814453125,0.6636710166931152,-0.7178980112075806,-0.3546929955482483
1750555359629203000,9.081202880859376,0.3498550057411194,-0.5857120156288147,-0.4247390031814575
1750555359638808000,9.09080810546875,0.2207150012254715,-0.604449987411499,-0.40913599729537964
1750555359648413000,9.100412841796874,0.2795639932155609,-0.6480690240859985,-0.37534600496292114
1750555359658018000,9.11001806640625,0.2747969925403595,-0.634958028793335,-0.34405601024627686
1750555359667623000,9.119622802734375,0.4612019956111908,-0.6235299706459045,-0.28916698694229126
1750555359677227800,9.129227783203126,0.672419011592865,-0.6652050018310547,-0.2235420048236847
1750555359686833200,9.138833251953125,0.801023006439209,-0.7435370087623596,-0.16293799877166748
1750555359696438000,9.14843798828125,0.7338269948959351,-0.8197919726371765,-0.06518000364303589
1750555359706043000,9.15804296875,0.5140200257301331,-0.784184992313385,-0.08842100203037262
1750555359715648000,9.16764794921875,0.17327499389648438,-0.7119330167770386,-0.1149040013551712
1750555359725253000,9.177253173828126,-0.14350099861621857,-0.655019998550415,0.019780000671744347
1750555359734858000,9.18685791015625,-0.28271999955177307,-0.6157169938087463,0.06218799948692322
1750555359744462800,9.196462890625,-0.21089600026607513,-0.6027950048446655,0.09177699685096741
1750555359754068200,9.206068115234375,-0.1051739975810051,-0.5776519775390625,0.06000399962067604
1750555359763673000,9.215673095703124,0.19912399351596832,-0.5942649841308594,-0.05015899986028671
1750555359773278000,9.22527783203125,0.44482898712158203,-0.5751929879188538,-0.09510999917984009
1750555359782883000,9.234883056640625,0.46779099106788635,-0.574895977973938,-0.06880500167608261
1750555359792488000,9.244488037109376,0.44300898909568787,-0.5725709795951843,-0.0063149998895823956
1750555359802093000,9.254093017578125,0.29378798604011536,-0.5373139977455139,0.011858999729156494
1750555359811698200,9.2636982421875,0.1243629977107048,-0.4658159911632538,-0.023305000737309456
1750555359821303300,9.27330322265625,-0.021378999575972557,-0.4090760052204132,-0.042041998356580734
1750555359830908200,9.282908203125,-0.09026999771595001,-0.38377198576927185,-0.019833000376820564
1750555359840513000,9.292512939453125,-0.06394699960947037,-0.40764299035072327,-0.03844999894499779
1750555359850118100,9.3021181640625,0.010348999872803688,-0.3735620081424713,-0.08604200184345245
1750555359859723300,9.31172314453125,0.15764600038528442,-0.3278439939022064,-0.12974099814891815
1750555359869328100,9.321328125,0.39643099904060364,-0.25314098596572876,-0.21850800514221191
1750555359878933200,9.330933349609374,0.5254729986190796,-0.2812820076942444,-0.15878599882125854
1750555359888538000,9.3405380859375,0.48106399178504944,-0.30893900990486145,0.042527999728918076
1750555359898143000,9.35014306640625,0.37734800577163696,-0.35001400113105774,0.21912799775600433
1750555359907748000,9.359748046875,0.2304610013961792,-0.3559980094432831,0.25882598757743835
1750555359917353200,9.369353271484375,0.04690700024366379,-0.26697999238967896,0.17205899953842163
1750555359926958000,9.3789580078125,-0.15738999843597412,-0.20167000591754913,0.044158998876810074
1750555359936563200,9.388563232421875,-0.2909800112247467,-0.1549150049686432,-0.03101000003516674
1750555359946168000,9.39816796875,-0.32708099484443665,-0.11216100305318832,-0.028968000784516335
1750555359955773200,9.407773193359375,-0.18028800189495087,-0.06193000078201294,-0.04101800173521042
1750555359965378000,9.4173779296875,0.24209800362586975,-0.0812240019440651,-0.05831599980592728
1750555359974983200,9.426983154296876,0.4505699872970581,-0.08127400279045105,-0.03456699848175049
1750555359984588300,9.43658837890625,0.3715530037879944,-0.08184699714183807,0.02733599953353405
1750555359994193200,9.446193115234376,0.3113560080528259,-0.07350300252437592,0.08139699697494507
1750555360003798000,9.455798095703125,0.18981699645519257,-0.06957200169563293,0.029016999527812004
1750555360013403100,9.465403076171874,0.002208000048995018,-0.00368899991735816,-0.02466999925673008
1750555360023008300,9.47500830078125,-0.048277001827955246,-0.022890999913215637,0.01348899956792593
1750555360032613000,9.484613037109375,-0.03988699987530708,-0.040824998170137405,0.028296999633312225
1750555360042218200,9.49421826171875,0.0253090001642704,0.054680000990629196,-0.06310299783945084
1750555360051823400,9.5038232421875,0.09693499654531479,0.07276599854230881,-0.11817900091409683
1750555360061428200,9.51342822265625,0.08453399688005447,0.06260599941015244,-0.060029998421669006
1750555360071033000,9.523033203125,0.171765998005867,0.0017010000301524997,0.009031999856233597
1750555360080638200,9.53263818359375,0.29045501351356506,-0.09156599640846252,0.11649300158023834
1750555360090243300,9.542243408203126,0.3919749855995178,-0.08543100208044052,0.1437460035085678
1750555360099848200,9.55184814453125,0.3813270032405853,-0.08980999886989594,0.248758003115654
1750555360109453000,9.561453125,0.35002899169921875,-0.11495199799537659,0.3332200050354004
1750555360119058200,9.57105810546875,0.21865199506282806,-0.061103999614715576,0.3302139937877655
1750555360128663000,9.5806630859375,0.14541800320148468,-0.061817001551389694,0.21285900473594666
1750555360138268200,9.59026806640625,0.13021400570869446,-0.02300100028514862,0.1047929972410202
1750555360147873000,9.599873046875,-0.000547999981790781,-0.000754999986384064,0.037356000393629074
1750555360157478100,9.60947802734375,-0.09381300210952759,0.05309399962425232,-0.10774499922990799
1750555360167083000,9.6190830078125,-0.10442899912595749,0.07475099712610245,-0.10749299824237823
1750555360176688000,9.628688232421876,-0.020295999944210052,0.024584000930190086,-0.04274599999189377
1750555360186293200,9.638293212890625,0.10394500195980072,-0.011586000211536884,0.0024870000779628754
1750555360195898400,9.6478984375,0.11019100248813629,0.0200399998575449,0.05674999952316284
1750555360205503200,9.657503173828125,0.1550299972295761,-0.06767500191926956,0.1041560024023056
1750555360215108000,9.667108154296875,0.1547279953956604,-0.10062400251626968,0.118367999792099
1750555360224713200,9.676713134765626,0.0679830014705658,-0.053192999213933945,0.14262700080871582
1750555360234318000,9.686318115234375,0.018984999507665634,-0.018334999680519104,0.12502799928188324
1750555360243923200,9.695923095703124,0.0394119992852211,0.018378999084234238,0.01841600053012371
1750555360253528300,9.7055283203125,0.07526600360870361,0.07067699730396271,-0.10522499680519104
1750555360263133200,9.71513330078125,-0.0020000000949949026,0.09430799633264542,-0.12116999924182892
1750555360272738000,9.724738037109375,-0.054965000599622726,0.10314200073480606,-0.1632850021123886
1750555360282343200,9.73434326171875,-0.020488999783992767,0.1014920026063919,-0.2117130011320114
1750555360291948300,9.7439482421875,0.05246800184249878,0.04823699966073036,-0.17040100693702698
1750555360301553200,9.75355322265625,0.07451000064611435,0.03464300185441971,-0.10502099990844727
1750555360311158300,9.763158203125,0.10242299735546112,-0.006095999851822853,-0.04191200062632561
1750555360320763100,9.77276318359375,0.05670500174164772,-0.023705000057816505,0.0024049999192357063
1750555360330368000,9.782367919921874,-0.03890899941325188,0.019019000232219696,0.008294000290334225
1750555360339973000,9.79197314453125,-0.05680299922823906,0.011872000060975552,-0.01423799991607666
1750555360349578200,9.801578125,-0.06796000152826309,0.007135000079870224,-0.03328099846839905
1750555360359183400,9.811183349609376,-0.14609399437904358,-0.0031049998942762613,-0.040334999561309814
1750555360368788200,9.820788330078125,-0.2137639969587326,-0.00013899999612476677,-0.015394000336527824
1750555360378393000,9.83039306640625,-0.2830429971218109,0.0208979994058609,0.0037010000087320805
1750555360387998200,9.839998291015625,-0.2716130018234253,0.0027149999514222145,0.022491000592708588
1750555360397603000,9.84960302734375,-0.14462700486183167,-0.043074000626802444,0.04538699984550476
1750555360407208200,9.859208251953126,-0.11926300078630447,-0.012617000378668308,0.008910000324249268
1750555360416813300,9.868813232421875,-0.11065699905157089,0.005934000015258789,-0.030527999624609947
1750555360426418400,9.87841845703125,-0.04695099964737892,0.0389459989964962,-0.091839998960495
1750555360436023000,9.88802294921875,0.04535900056362152,0.05311499908566475,-0.14816899597644806
1750555360445628200,9.897628173828124,0.12825000286102295,0.05994600057601929,-0.1025879979133606
1750555360455233300,9.9072333984375,0.18042400479316711,-0.009758999571204185,0.010858999565243721
1750555360464838100,9.916838134765625,0.0881510004401207,-0.05051000043749809,0.07830499857664108
1750555360474443000,9.926443115234376,0.07327000051736832,-0.09231500327587128,0.12486100196838379
1750555360484048100,9.936048095703125,0.11964300274848938,-0.10876300185918808,0.07924500107765198
1750555360493653000,9.945653076171874,0.10530500113964081,-0.04321900010108948,-0.053025998175144196
1750555360503258000,9.955258056640625,0.013291999697685242,0.04139599949121475,-0.08460599929094315
1750555360512863000,9.964863037109374,-0.09298799932003021,0.0892219990491867,-0.15288099646568298
1750555360522467800,9.9744677734375,-0.1392270028591156,0.09355500340461731,-0.09682200103998184
1750555360532073200,9.9840732421875,-0.13849499821662903,0.04446199908852577,0.017309999093413353
1750555360541678000,9.993677978515626,-0.014530000276863575,0.004672999959439039,0.1723320037126541
1750555360551283000,10.003282958984375,0.1422239989042282,-0.10446800291538239,0.2026350051164627
1750555360560888000,10.01288818359375,0.18224500119686127,-0.07766500115394592,0.13438500463962555
1750555360570493200,10.0224931640625,0.04948300123214722,-0.028421999886631966,0.045850999653339386
1750555360580098000,10.03209814453125,-0.1310420036315918,0.04496600106358528,-0.06507600098848343
1750555360589703000,10.041702880859376,-0.3144960105419159,0.0530100017786026,-0.07368200272321701
1750555360599308000,10.05130810546875,-0.3627670109272003,0.08589400351047516,-0.019867999479174614
1750555360608913200,10.0609130859375,-0.24477800726890564,0.02128699980676174,0.033027999103069305
1750555360618518000,10.07051806640625,-0.1073089987039566,-0.03453100100159645,0.0812859982252121
1750555360628123000,10.080122802734374,-0.041735000908374786,-0.020166000351309776,0.107634998857975
1750555360637728000,10.08972802734375,0.04240500181913376,-0.07134599983692169,0.12603600323200226
1750555360647333000,10.0993330078125,0.0811920017004013,-0.04840800166130066,0.1249300017952919
1750555360656938000,10.10893798828125,0.09209900349378586,-0.06241200119256973,0.10033199936151505
1750555360666542800,10.11854296875,0.09038399904966354,-0.09467100352048874,0.08183100074529648
1750555360676148000,10.12814794921875,0.02041199989616871,-0.0021909999195486307,-0.061781998723745346
1750555360685752800,10.1377529296875,0.004879999905824661,0.01860100030899048,-0.09214700013399124
1750555360695358000,10.14735791015625,-0.04152600094676018,0.01750900037586689,-0.0848269984126091
1750555360704962800,10.156962890625,-0.09590300172567368,0.011877000331878662,-0.055413998663425446
1750555360714568000,10.16656787109375,-0.08090600371360779,0.02542399987578392,0.00022400000307243317
1750555360724172800,10.1761728515625,-0.087957002222538,0.015637999400496483,0.07033900171518326
1750555360733777700,10.185777587890625,-0.09617500007152557,0.037744998931884766,0.08221399784088135
1750555360743382800,10.1953828125,-0.00875299982726574,-0.008621999993920326,0.05041699856519699
1750555360752988000,10.20498779296875,0.1271670013666153,-0.04231199994683266,0.0140990000218153
1750555360762592800,10.2145927734375,0.21449999511241913,-0.06956200301647186,0.039854999631643295
1750555360772198000,10.224197998046876,0.1494860053062439,-0.06922399997711182,0.019996000453829765
1750555360781803000,10.233802978515625,0.014317999593913555,-0.03592899814248085,0.029596999287605286
1750555360791407900,10.243407958984376,-0.08784300088882446,0.010924000293016434,-0.010203000158071518
1750555360801013000,10.253012939453125,-0.12076199799776077,0.062112998217344284,-0.0489719994366169
1750555360810618000,10.2626181640625,-0.1976509988307953,0.09210199862718582,-0.01805499941110611
1750555360820223000,10.272222900390625,-0.15500399470329285,0.06074700132012367,0.03181400150060654
1750555360829827800,10.281827880859375,-0.18452900648117065,0.05205100029706955,0.07809600234031677
1750555360839433000,10.291432861328126,-0.22282500565052032,0.06862399727106094,0.08042799681425095
1750555360849037800,10.301037841796875,-0.08681199699640274,0.014829999767243862,0.08356200158596039
1750555360858643000,10.310642822265624,0.022275999188423157,-0.03257700055837631,0.11308500170707703
1750555360868248000,10.320248046875,-0.019311999902129173,-0.016277000308036804,0.10959900170564651
1750555360877853000,10.32985302734375,-0.12201499938964844,-0.023754000663757324,0.10740199685096741
1750555360887457800,10.339457763671875,-0.24315600097179413,0.000674000009894371,0.028310000896453857
1750555360897063000,10.34906298828125,-0.28804001212120056,0.12713900208473206,-0.05859899893403053
1750555360906668000,10.35866796875,-0.2189749926328659,0.1568879932165146,-0.1294189989566803
1750555360916273000,10.36827294921875,-0.06929700076580048,0.11498100310564041,-0.12650899589061737
1750555360925877800,10.377877685546874,-0.11160799860954285,0.13646200299263,-0.02520900033414364
1750555360935483000,10.38748291015625,-0.10862299799919128,0.23628400266170502,0.06247200071811676
1750555360945088000,10.397087890625,0.03692600131034851,0.3015719950199127,0.07849200069904327
1750555360954692900,10.40669287109375,0.6445310115814209,0.47415199875831604,-0.08903799951076508
1750555360964298000,10.416298095703125,1.9851540327072144,0.4828430116176605,-0.05337600037455559
1750555360973902800,10.42590283203125,3.369227886199951,0.233815997838974,0.03685799986124039
1750555360983508000,10.435508056640625,4.143551826477051,0.040692999958992004,0.24563699960708618
1750555360993112800,10.44511279296875,4.57846212387085,-0.21609100699424744,0.49656298756599426
1750555361002718000,10.454718017578125,5.045071125030518,-0.21406200528144836,0.5626739859580994
1750555361012322800,10.46432275390625,6.719038009643555,-0.19947899878025055,-0.039774999022483826
1750555361021927700,10.473927734375,9.219184875488281,-0.5524960160255432,-0.8224850296974182
1750555361031533000,10.483532958984375,11.191088676452637,-1.0691440105438232,-2.039958953857422
1750555361041138000,10.493137939453124,12.230612754821777,-2.187436103820801,-2.6644179821014404
1750555361050742800,10.50274267578125,9.905384063720703,-3.2408111095428467,-2.2205629348754883
1750555361060347600,10.51234765625,5.7663469314575195,-4.084714889526367,-0.9692310094833374
1750555361069952800,10.521952880859375,2.4609439373016357,-4.522113800048828,0.3017910122871399
1750555361079558000,10.531557861328125,0.24548999965190887,-4.532015800476074,0.46059298515319824
1750555361089162800,10.541162841796876,-2.6623458862304688,-3.582498073577881,-0.3213289976119995
1750555361098767600,10.550767578125,-5.25756311416626,-2.0097219944000244,-1.0368449687957764
1750555361108372500,10.56037255859375,-7.141569137573242,-0.46779200434684753,-1.1975059509277344
1750555361117977900,10.569977783203125,-8.054015159606934,0.11062599718570709,-0.7066860198974609
1750555361127582700,10.579582763671874,-7.669287204742432,0.046744998544454575,-0.027527999132871628
1750555361137187600,10.5891875,-6.020674228668213,-0.48214399814605713,0.4415990114212036
1750555361146792400,10.59879248046875,-3.8495070934295654,-1.123993992805481,0.5726789832115173
1750555361156397600,10.6083974609375,-2.835300922393799,-1.415539026260376,0.7125099897384644
1750555361166002700,10.618002685546875,-2.2952818870544434,-1.4876430034637451,0.523921012878418
1750555361175607600,10.627607666015624,-1.8216140270233154,-1.4955110549926758,0.47592398524284363
1750555361185212700,10.637212646484375,-1.960433006286621,-1.5148320198059082,0.3571709990501404
1750555361194817800,10.64681787109375,-1.9640820026397705,-1.380763053894043,0.36139199137687683
1750555361204422700,10.656422607421876,-1.8075239658355713,-1.4193300008773804,0.5324689745903015
1750555361214027500,10.666027587890625,-2.019382953643799,-1.2045550346374512,0.41050800681114197
1750555361223632600,10.675632568359376,-2.5917649269104004,-0.8822540044784546,0.34372401237487793
1750555361233237500,10.685237548828125,-3.2515571117401123,-0.6823300123214722,0.35006800293922424
1750555361242842400,10.69484228515625,-3.794724941253662,-0.5046539902687073,0.3503290116786957
1750555361252447500,10.704447509765625,-3.8831698894500732,-0.5569720268249512,0.3079659938812256
1750555361262052600,10.714052490234375,-3.6988298892974854,-0.7051460146903992,0.28727298974990845
1750555361271657500,10.723657470703126,-3.0276520252227783,-0.8375319838523865,0.1750580072402954
1750555361281262300,10.733262451171875,-2.2648301124572754,-0.8890209794044495,-0.02081800065934658
1750555361290867700,10.74286767578125,-1.930569052696228,-0.7074790000915527,-0.39630699157714844
1750555361300472600,10.75247265625,-1.872275948524475,-0.5417289733886719,-0.7449970245361328
1750555361310077400,10.762077392578124,-2.0409579277038574,-0.4748019874095917,-0.6951389908790588
1750555361319682300,10.771682373046875,-2.660862922668457,-0.6106150150299072,-0.38280200958251953
1750555361329287400,10.781287353515625,-3.4524660110473633,-0.8958320021629333,0.0699860006570816
1750555361338892500,10.790892578125,-3.793428897857666,-1.3247150182724,0.03037399984896183
1750555361348497400,10.800497314453125,-2.377908945083618,-1.7600940465927124,-0.4663900136947632
1750555361358102300,10.810102294921874,-0.0193060003221035,-2.797175884246826,-0.6007469892501831
1750555361367707400,10.819707275390625,2.0555529594421387,-2.820348024368286,-1.8063640594482422
1750555361377312300,10.829312255859374,3.5564939975738525,-2.857028007507324,-2.027669906616211
1750555361386917400,10.83891748046875,3.141179084777832,-3.1569480895996094,-1.3222789764404297
1750555361396522500,10.8485224609375,2.2462549209594727,-3.4304869174957275,-0.06855099648237228
1750555361406127400,10.85812744140625,1.7227710485458374,-3.7857420444488525,1.1128770112991333
1750555361415732200,10.867732177734375,1.869143009185791,-3.8778789043426514,1.2448489665985107
1750555361425337300,10.87733740234375,4.020435810089111,-3.776034116744995,0.5332000255584717
1750555361434942500,10.8869423828125,7.8780717849731445,-3.7436490058898926,0.06258899718523026
1750555361444547300,10.89654736328125,11.184617042541504,-3.9308969974517822,-0.030307000502943993
1750555361454152200,10.906152099609375,12.056812286376953,-4.119442939758301,0.637669026851654
1750555361463757300,10.91575732421875,10.734082221984863,-3.945230007171631,1.783532977104187
1750555361473362400,10.925362548828126,8.320784568786621,-3.6776130199432373,2.4336469173431396
1750555361482967300,10.93496728515625,6.355733871459961,-3.399914026260376,2.141324996948242
1750555361492572200,10.944572265625,5.030350208282471,-2.9569170475006104,1.4155429601669312
1750555361502177300,10.95417724609375,3.5009350776672363,-2.4721250534057617,0.6625850200653076
1750555361511782400,10.963782470703125,2.0735819339752197,-1.786600947380066,0.06038999930024147
1750555361521387300,10.97338720703125,1.4175560474395752,-1.3214019536972046,-0.2109770029783249
1750555361530992000,10.9829921875,1.3099069595336914,-1.062675952911377,-0.11835499852895737
1750555361540597200,10.99259716796875,1.623613953590393,-1.101027011871338,0.13932999968528748
1750555361550202000,11.0022021484375,1.8901809453964233,-1.16845703125,0.36976200342178345
1750555361559807200,11.01180712890625,2.239804983139038,-1.1778550148010254,0.427172988653183
1750555361569412000,11.021412109375,2.5987329483032227,-1.3018829822540283,0.4748159945011139
1750555361579017200,11.031017333984375,2.434307098388672,-1.3529249429702759,0.5249390006065369
1750555361588622000,11.0406220703125,1.9241420030593872,-1.294929027557373,0.5457850098609924
1750555361598227000,11.05022705078125,1.2901970148086548,-1.1847230195999146,0.47986099123954773
1750555361607832300,11.059832275390624,0.7547469735145569,-1.0214999914169312,0.4067089855670929
1750555361617437200,11.069437255859375,0.47981199622154236,-0.8646339774131775,0.27032598853111267
1750555361627042000,11.0790419921875,0.4395590126514435,-0.7258139848709106,0.08854500204324722
1750555361636647200,11.088647216796875,0.4761640131473541,-0.6139050126075745,-0.0063749998807907104
1750555361646252000,11.098251953125,0.5322290062904358,-0.5783249735832214,-0.033309001475572586
1750555361655857200,11.107857177734376,0.5624949932098389,-0.5352020263671875,-0.058880001306533813
1750555361665462000,11.1174619140625,0.5942249894142151,-0.5000399947166443,-0.12808600068092346
1750555361675067000,11.12706689453125,0.43545299768447876,-0.49424201250076294,-0.19833600521087646
1750555361684672000,11.136672119140625,0.2635760009288788,-0.4968549907207489,-0.07937899976968765
1750555361694276900,11.14627685546875,0.133542999625206,-0.5365210175514221,0.0029100000392645597
1750555361703881700,11.1558818359375,-0.12140800058841705,-0.5025089979171753,0.028731999918818474
1750555361713487000,11.165487060546875,-0.26075300574302673,-0.4345319867134094,0.027932999655604362
1750555361723092000,11.175092041015626,-0.33971598744392395,-0.4083169996738434,0.0194729994982481
1750555361732696800,11.18469677734375,-0.26641300320625305,-0.37623700499534607,-0.10432499647140503
1750555361742302000,11.194302001953124,0.0067369998432695866,-0.40611299872398376,-0.12490099668502808
1750555361751907000,11.203906982421875,0.3574030101299286,-0.5039629936218262,-0.05230399966239929
1750555361761512000,11.213511962890625,0.628017008304596,-0.5699189901351929,0.021967999637126923
1750555361771116800,11.22311669921875,0.7251380085945129,-0.6691160202026367,0.05652099847793579
1750555361780722000,11.232721923828125,0.654541015625,-0.6694089770317078,0.0893390029668808
1750555361790327000,11.2423271484375,0.45350199937820435,-0.6405519843101501,0.14508099853992462
1750555361799932000,11.251931884765625,0.27361398935317993,-0.569333016872406,0.153220996260643
1750555361809536800,11.261536865234374,0.12711800634860992,-0.5090029835700989,0.17953099310398102
1750555361819141600,11.2711416015625,0.1086060032248497,-0.4696879982948303,0.09777899831533432
1750555361828746800,11.280746826171875,0.17677000164985657,-0.41897499561309814,0.005408000200986862
1750555361838352000,11.290351806640626,0.21525099873542786,-0.3532409965991974,-0.10119599848985672
1750555361847956700,11.299956787109375,0.26573100686073303,-0.32572799921035767,-0.15855899453163147
1750555361857561600,11.3095615234375,0.2863819897174835,-0.29666998982429504,-0.18921799957752228
1750555361867166700,11.319166748046875,0.36754900217056274,-0.27005499601364136,-0.12414699792861938
1750555361876771600,11.328771484375,0.3310759961605072,-0.2525080144405365,-0.04250900074839592
1750555361886376400,11.33837646484375,0.3496280014514923,-0.24675999581813812,-0.00145800004247576
1750555361895981600,11.347981689453125,0.36714598536491394,-0.35372400283813477,0.12369199842214584
1750555361905586700,11.357586669921876,0.3284670114517212,-0.3823370039463043,0.21196900308132172
1750555361915191600,11.367191650390625,0.28669899702072144,-0.3602289855480194,0.21827000379562378
1750555361924796400,11.37679638671875,0.14910399913787842,-0.3226729929447174,0.17174600064754486
1750555361934401500,11.386401611328125,0.08019000291824341,-0.19073200225830078,0.09045299887657166
1750555361944006400,11.39600634765625,0.13765299320220947,-0.08619099855422974,-0.100552998483181
1750555361953611500,11.405611572265625,0.3100219964981079,-0.06788299977779388,-0.1428299993276596
1750555361963216400,11.41521630859375,0.27013400197029114,-0.10571599751710892,-0.0994499996304512
1750555361972821500,11.424821533203126,0.1810240000486374,-0.17363899946212769,0.010343000292778015
1750555361982426400,11.43442626953125,0.11215300112962723,-0.2349659949541092,0.10661599785089493
1750555361992031500,11.444031494140624,0.010344999842345715,-0.18450400233268738,0.15518899261951447
1750555362001636400,11.45363623046875,-0.07785200327634811,-0.14099200069904327,0.1458439975976944
1750555362011241500,11.463241455078125,-0.08553600311279297,-0.053989000618457794,0.14134100079536438
1750555362020846300,11.472846435546876,-0.12357400357723236,-0.07333999872207642,0.16275200247764587
1750555362030451200,11.482451171875,-0.10830099880695343,-0.0839809998869896,0.18920700252056122
1750555362040056300,11.492056396484376,-0.019443999975919724,-0.09862399846315384,0.1739400029182434
1750555362049661400,11.501661376953125,-0.031156999990344048,-0.16365599632263184,0.09726300090551376
1750555362059266300,11.511266357421874,-0.14388400316238403,-0.1356009989976883,0.07003600150346756
1750555362068871200,11.52087109375,-0.2282329946756363,-0.10311900079250336,0.0027360001113265753
1750555362078476300,11.530476318359375,-0.18432700634002686,-0.011792000383138657,-0.10970400273799896
1750555362088081400,11.540081298828126,-0.10255400091409683,0.03309699892997742,-0.17165200412273407
1750555362097686300,11.549686279296875,0.005125999916344881,0.06747300177812576,-0.1934179961681366
1750555362107291100,11.559291015625,0.09929300099611282,0.006690000183880329,-0.07450799643993378
1750555362116896000,11.56889599609375,0.09581399708986282,-0.0634550005197525,0.022445999085903168
1750555362126501000,11.578501220703124,0.14386799931526184,-0.06584999710321426,0.028138000518083572
1750555362136106000,11.58810595703125,0.18107900023460388,-0.06505700200796127,-0.03961300104856491
1750555362145711000,11.597711181640625,0.033668000251054764,-0.05608699843287468,-0.05628800019621849
1750555362155316200,11.607316162109376,-0.03965400159358978,-0.0645499974489212,-0.02841000072658062
1750555362164921000,11.616921142578125,-0.15704399347305298,-0.015946999192237854,-0.0017610000213608146
1750555362174526000,11.62652587890625,-0.24496400356292725,0.00686000008136034,0.011157000437378883
1750555362184131000,11.636131103515625,-0.27986499667167664,-0.030639000236988068,-0.05461899936199188
1750555362193736000,11.64573583984375,-0.18437500298023224,-0.013674999587237835,-0.16646799445152283
1750555362203341000,11.655341064453125,-0.21464399993419647,-0.09944300353527069,-0.1466040015220642
1750555362212946000,11.66494580078125,-0.19682300090789795,-0.20535199344158173,-0.02950100041925907
1750555362222551000,11.674551025390626,-0.2054090052843094,-0.23052799701690674,0.10190500319004059
1750555362232156000,11.684156005859375,-0.1250319927930832,-0.14521299302577972,0.11451900005340576
1750555362241760800,11.6937607421875,-0.03260599821805954,-0.05037299916148186,0.048583000898361206
1750555362251366000,11.703365966796875,0.05610499903559685,0.007127000018954277,0.042962998151779175
1750555362260971000,11.712970947265624,0.10726100206375122,0.01095299981534481,0.06634499877691269
1750555362270575900,11.722575927734376,0.0825589969754219,-0.04370599985122681,0.08574000000953674
1750555362280180700,11.7321806640625,0.11073300242424011,-0.0435589998960495,0.06847599893808365
1750555362289786000,11.7417861328125,0.13897299766540527,-0.02912200056016445,0.07015900313854218
1750555362299390700,11.751390625,0.16138599812984467,-0.04436499997973442,0.10861200094223022
1750555362308995800,11.760995849609374,0.14701099693775177,-0.058375999331474304,0.165024995803833
1750555362318600700,11.7706005859375,0.0897350013256073,-0.08218500018119812,0.1932619959115982
1750555362328205600,11.78020556640625,0.06445100158452988,-0.052076999098062515,0.166935995221138
1750555362337810700,11.789810791015626,0.040814999490976334,-0.009909999556839466,0.040973000228405
1750555362347415600,11.79941552734375,0.0021699999924749136,0.02738099917769432,-0.08407200127840042
1750555362357021000,11.80902099609375,0.03957299888134003,0.11718200147151947,-0.15740500390529633
1750555362366625800,11.818625732421875,0.04579799994826317,0.11369500309228897,-0.13961899280548096
1750555362376230700,11.828230712890624,-0.007075999863445759,0.0948140025138855,-0.022359000518918037
1750555362385835500,11.83783544921875,0.05550000071525574,0.059390000998973846,0.07053700089454651
1750555362395440600,11.847440673828125,0.16425900161266327,0.07183899730443954,0.09288600087165833
1750555362405045800,11.857045654296876,0.2768769860267639,0.07840800285339355,0.03696199879050255
