time,seconds_elapsed,z,y,x
1750555350648501000,0.1005009765625,0.08249999582767487,0.4221250116825104,0.2694999873638153
1750555350658106400,0.1101064453125,0.09350000321865082,0.34031251072883606,0.23154999315738678
1750555350667711200,0.119711181640625,0.08868750184774399,0.2755500078201294,0.16321249306201935
1750555350677316000,0.129316162109375,0.0752125009894371,0.2303124964237213,0.11921250075101852
1750555350686921200,0.138921142578125,0.06063750013709068,0.1742125004529953,0.11550000309944153
1750555350696526300,0.1485263671875,0.043449997901916504,0.13144999742507935,0.1350249946117401
1750555350706131500,0.15813134765625,0.017875000834465027,0.09844999760389328,0.1326874941587448
1750555350715736000,0.167736083984375,-0.010312499478459358,0.07150000333786011,0.10449999570846558
1750555350725341200,0.177341064453125,0.043449997901916504,0.06544999778270721,0.10326249897480011
1750555350734946300,0.1869462890625,0.12773749232292175,0.13144999742507935,0.12526249885559082
1750555350744551400,0.196551513671875,0.19373749196529388,0.22550000250339508,0.15578749775886536
1750555350754156300,0.20615625,0.2096875011920929,0.24873749911785126,0.18150000274181366
1750555350763761200,0.21576123046875,0.19126249849796295,0.1985500007867813,0.1985500007867813
1750555350773366500,0.225366455078125,0.16073749959468842,0.13626250624656677,0.19744999706745148
1750555350782971400,0.234971435546875,0.1387374997138977,0.10092499852180481,0.19744999706745148
1750555350792576300,0.244576171875,0.1326874941587448,0.07768750190734863,0.19978749752044678
1750555350802181000,0.25418115234375,0.13626250624656677,0.03616249933838844,0.19497500360012054
1750555350811786500,0.263786376953125,0.14973749220371246,-0.03355000168085098,0.16568750143051147
1750555350821391400,0.273391357421875,0.1704999953508377,-0.07878749817609787,0.12044999748468399
1750555350830996500,0.28299658203125,0.18645000457763672,-0.10683749616146088,0.055687498301267624
1750555350840601300,0.292601318359375,0.15468749403953552,-0.1434125006198883,-0.022549999877810478
1750555350850206200,0.302206298828125,0.1424500048160553,-0.16788749396800995,-0.0775500014424324
1750555350859811600,0.3118115234375,0.1461624950170517,-0.16307500004768372,-0.09212499856948853
1750555350869416400,0.32141650390625,0.13997499644756317,-0.14588749408721924,-0.08112499862909317
1750555350879021300,0.331021240234375,0.08868750184774399,-0.17641249299049377,-0.05431250110268593
1750555350888626400,0.34062646484375,0.008112499490380287,-0.2424124926328659,-0.021312499418854713
1750555350898231600,0.3502314453125,-0.07383749634027481,-0.2937000095844269,-0.006599999964237213
1750555350907836400,0.35983642578125,-0.13488750159740448,-0.3133625090122223,-0.007837500423192978
1750555350917441300,0.369441162109375,-0.1751749962568283,-0.38046249747276306,-0.040837500244379044
1750555350927046400,0.37904638671875,-0.21188749372959137,-0.4404124915599823,-0.07631249725818634
1750555350936651500,0.388651611328125,-0.23993749916553497,-0.4427500069141388,-0.08236250281333923
1750555350946256400,0.39825634765625,-0.24488750100135803,-0.4647499918937683,-0.0835999995470047
1750555350955861500,0.407861572265625,-0.2069374918937683,-0.454987496137619,-0.07631249725818634
1750555350965466400,0.41746630859375,-0.1434125006198883,-0.3951750099658966,-0.05555000156164169
1750555350975071500,0.427071533203125,-0.07631249725818634,-0.3096500039100647,-0.03355000168085098
1750555350984676400,0.43667626953125,-0.03959999978542328,-0.22288750112056732,-0.022549999877810478
1750555350994281500,0.446281494140625,-0.045649997889995575,-0.1373624950647354,-0.026124998927116394
1750555351003886600,0.455886474609375,-0.05912499874830246,-0.053075000643730164,-0.02502499893307686
1750555351013491500,0.465491455078125,-0.04331250116229057,0.010449999943375587,-0.020075000822544098
1750555351023096600,0.4750966796875,-0.02488750033080578,0.03368749842047691,-0.018837500363588333
1750555351032701700,0.48470166015625,-0.03355000168085098,0.03492499887943268,-0.022549999877810478
1750555351042306600,0.494306640625,-0.06159999966621399,0.0471624992787838,-0.02983750030398369
1750555351051911700,0.50391162109375,-0.08112499862909317,0.06297499686479568,-0.03712499886751175
1750555351061516500,0.5135166015625,-0.07741250097751617,0.07768750190734863,-0.04455000162124634
1750555351071121700,0.52312158203125,-0.05664999783039093,0.10092499852180481,-0.0518375001847744
1750555351080726800,0.532726806640625,-0.02983750030398369,0.11426249891519547,-0.060362499207258224
1750555351090331600,0.54233154296875,0.0056374999694526196,0.1069749966263771,-0.06778749823570251
1750555351099936800,0.551936767578125,0.04592499881982803,0.06173750013113022,-0.07259999960660934
1750555351109542000,0.5615419921875,0.06544999778270721,-0.011549999937415123,-0.08855000138282776
1750555351119146800,0.571146728515625,0.06668750196695328,-0.08607500046491623,-0.10683749616146088
1750555351128751900,0.580751953125,0.06544999778270721,-0.141075000166893,-0.1153625026345253
1750555351138357000,0.59035693359375,0.06792499870061874,-0.16431249678134918,-0.10559999942779541
1750555351147961900,0.5999619140625,0.06421250104904175,-0.15441249310970306,-0.07507500052452087
1750555351157567000,0.60956689453125,0.05692499876022339,-0.1190750002861023,-0.03355000168085098
1750555351167171800,0.619171875,0.05197500064969063,-0.0835999995470047,0.0031624999828636646
1750555351176777000,0.62877685546875,0.04963750019669533,-0.058024998754262924,0.017737500369548798
1750555351186381800,0.6383818359375,0.05073750019073486,-0.03959999978542328,0.011687500402331352
1750555351195987000,0.647987060546875,0.05939999967813492,-0.02983750030398369,-0.010312499478459358
1750555351205592000,0.657592041015625,0.06668750196695328,-0.009074999950826168,-0.038362499326467514
1750555351215197000,0.667197021484375,0.06297499686479568,0.023924998939037323,-0.04936249926686287
1750555351224801800,0.6768017578125,0.055687498301267624,0.055687498301267624,-0.028599999845027924
1750555351234407000,0.686406982421875,0.04592499881982803,0.0752125009894371,0.011687500402331352
1750555351244012000,0.696011962890625,0.03739999979734421,0.06544999778270721,0.0471624992787838
1750555351253617200,0.7056171875,0.022687500342726707,0.03616249933838844,0.060499999672174454
1750555351263222000,0.715221923828125,0.010449999943375587,0.0031624999828636646,0.05321250110864639
1750555351272827100,0.7248271484375,0.004399999976158142,-0.012787500396370888,0.03616249933838844
1750555351282432300,0.734432373046875,0.0031624999828636646,-0.015262499451637268,0.027499999850988388
1750555351292037000,0.744037109375,0.004399999976158142,-0.009074999950826168,0.03739999979734421
1750555351301642500,0.753642578125,0.0031624999828636646,0.0031624999828636646,0.055687498301267624
1750555351311247400,0.763247314453125,-0.006599999964237213,0.010449999943375587,0.07397499680519104
1750555351320852500,0.7728525390625,-0.016362499445676804,-0.0005499999970197678,0.08249999582767487
1750555351330457300,0.782457275390625,-0.020075000822544098,-0.007837500423192978,0.0812624990940094
1750555351340062500,0.7920625,-0.018837500363588333,-0.010312499478459358,0.0752125009894371
1750555351349667600,0.80166748046875,-0.016362499445676804,0.0006874999962747097,0.07026249915361404
1750555351359272400,0.8112724609375,-0.012787500396370888,0.015399999916553497,0.07397499680519104
1750555351368877600,0.820877685546875,-0.009074999950826168,0.027499999850988388,0.0812624990940094
1750555351378482400,0.830482421875,-0.005362499970942736,0.03973750025033951,0.08621250092983246
1750555351388087600,0.840087646484375,0.0031624999828636646,0.03726249933242798,0.08621250092983246
1750555351397692700,0.849692626953125,0.016637500375509262,0.031212499365210533,0.0752125009894371
1750555351407297500,0.859297607421875,0.020212499424815178,0.028737500309944153,0.055687498301267624
1750555351416902700,0.868902587890625,0.018975000828504562,0.03244999796152115,0.028737500309944153
1750555351426507800,0.8785078125,0.010449999943375587,0.048262499272823334,-0.006599999964237213
1750555351436112600,0.888112548828125,-0.0028874999843537807,0.05321250110864639,-0.048124998807907104
1750555351445717500,0.897717529296875,-0.01759999990463257,0.0494999997317791,-0.08607500046491623
1750555351455322600,0.907322509765625,-0.03355000168085098,0.03973750025033951,-0.11412499845027924
1750555351464927700,0.916927734375,-0.05555000156164169,0.007974999956786633,-0.12759999930858612
1750555351474532600,0.92653271484375,-0.07741250097751617,-0.031075000762939453,-0.13007499277591705
1750555351484137700,0.9361376953125,-0.09707500040531158,-0.04702499881386757,-0.12264999747276306
1750555351493742800,0.945742919921875,-0.11041250079870224,-0.04331250116229057,-0.10559999942779541
1750555351503347700,0.95534765625,-0.12388750165700912,-0.04207500070333481,-0.07631249725818634
1750555351512952800,0.964952880859375,-0.1373624950647354,-0.03712499886751175,-0.036024998873472214
1750555351522558000,0.974557861328125,-0.133650004863739,-0.02736249938607216,0.011687500402331352
1750555351532162800,0.984162841796875,-0.12388750165700912,-0.015262499451637268,0.05692499876022339
1750555351541768000,0.993767822265625,-0.10683749616146088,0.025162499397993088,0.08744999766349792
1750555351551372800,1.003372802734375,-0.08236250281333923,0.06916250288486481,0.09721250087022781
1750555351560978200,1.012978271484375,-0.05664999783039093,0.08744999766349792,0.09844999760389328
1750555351570583000,1.0225830078125,-0.040837500244379044,0.0789249986410141,0.09968750178813934
1750555351580188200,1.032188232421875,-0.031075000762939453,0.03849999979138374,0.09968750178813934
1750555351589793300,1.041793212890625,-0.031075000762939453,-0.012787500396370888,0.08621250092983246
1750555351599398100,1.051398193359375,-0.03959999978542328,-0.06159999966621399,0.05692499876022339
1750555351609003000,1.0610029296875,-0.03712499886751175,-0.08607500046491623,0.023924998939037323
1750555351618608000,1.070608154296875,-0.020075000822544098,-0.08978749811649323,0.009212499484419823
1750555351628213200,1.080213134765625,0.006874999962747097,-0.07012499868869781,0.014162499457597733
1750555351637818000,1.089818115234375,0.020212499424815178,-0.026262499392032623,0.028737500309944153
1750555351647423000,1.099423095703125,0.006874999962747097,0.012924999929964542,0.04592499881982803
1750555351657028400,1.1090283203125,-0.016362499445676804,0.03616249933838844,0.05321250110864639
1750555351666633200,1.11863330078125,-0.03231250122189522,0.03616249933838844,0.04592499881982803
1750555351676238300,1.12823828125,-0.035887498408555984,0.031212499365210533,0.023924998939037323
1750555351685843500,1.137843505859375,-0.02736249938607216,0.029975000768899918,0.0031624999828636646
1750555351695448300,1.1474482421875,-0.01759999990463257,0.026399999856948853,-0.0030249999836087227
1750555351705053400,1.157053466796875,-0.013887500390410423,0.028737500309944153,0.004399999976158142
1750555351714658300,1.166658203125,-0.022549999877810478,0.04221250116825104,0.021449999883770943
1750555351724263700,1.176263671875,-0.03231250122189522,0.048262499272823334,0.03739999979734421
1750555351733868500,1.18586865234375,-0.031075000762939453,0.04592499881982803,0.0494999997317791
1750555351743473400,1.195473388671875,-0.006599999964237213,0.028737500309944153,0.055687498301267624
1750555351753078500,1.20507861328125,0.027637500315904617,0.0006874999962747097,0.03849999979138374
1750555351762683600,1.21468359375,0.04839999973773956,-0.015262499451637268,0.0019249999895691872
1750555351772288500,1.22428857421875,0.05444999784231186,-0.028599999845027924,-0.03355000168085098
1750555351781894000,1.233893798828125,0.043449997901916504,-0.03231250122189522,-0.04331250116229057
1750555351791498800,1.243498779296875,0.020212499424815178,-0.03231250122189522,-0.023787500336766243
1750555351801103600,1.253103515625,-0.0028874999843537807,-0.018837500363588333,0.016637500375509262
1750555351810708700,1.262708740234375,-0.015124999918043613,0.011687500402331352,0.06297499686479568
1750555351820313900,1.27231396484375,-0.012787500396370888,0.031212499365210533,0.09844999760389328
1750555351829919000,1.2819189453125,-0.0017874999903142452,0.04468749836087227,0.11550000309944153
1750555351839523800,1.29152392578125,0.006874999962747097,0.05444999784231186,0.11426249891519547
1750555351849128700,1.301128662109375,0.009212499484419823,0.05073750019073486,0.09597499668598175
1750555351858733800,1.31073388671875,0.0056374999694526196,0.04221250116825104,0.07026249915361404
1750555351868339000,1.3203388671875,-0.004124999977648258,0.03726249933242798,0.04468749836087227
1750555351877943800,1.32994384765625,-0.0017874999903142452,0.021449999883770943,0.015399999916553497
1750555351887549000,1.339548828125,0.014162499457597733,-0.02983750030398369,-0.015124999918043613
1750555351897154000,1.349154052734375,0.03739999979734421,-0.09583749622106552,-0.0518375001847744
1750555351906759200,1.35875927734375,0.055687498301267624,-0.14231249690055847,-0.08855000138282776
1750555351916364000,1.368364013671875,0.06297499686479568,-0.16183750331401825,-0.1093124970793724
1750555351925969200,1.37796923828125,0.05444999784231186,-0.1434125006198883,-0.11288750171661377
1750555351935574000,1.387573974609375,0.03492499887943268,-0.07878749817609787,-0.09583749622106552
1750555351945179400,1.397179443359375,0.010449999943375587,0.016499999910593033,-0.0518375001847744
1750555351954784300,1.4067841796875,-0.009074999950826168,0.09968750178813934,0.010449999943375587
1750555351964389000,1.41638916015625,-0.016362499445676804,0.16073749959468842,0.060499999672174454
1750555351973994200,1.425994140625,-0.011549999937415123,0.1839749962091446,0.0789249986410141
1750555351983599400,1.435599365234375,0.008112499490380287,0.17297500371932983,0.05926249921321869
1750555351993204200,1.445204345703125,0.031212499365210533,0.13378749787807465,0.020212499424815178
1750555352002809300,1.454809326171875,0.043449997901916504,0.06792499870061874,-0.018837500363588333
1750555352012414500,1.46441455078125,0.03739999979734421,-0.012787500396370888,-0.048124998807907104
1750555352022019600,1.47401953125,0.012924999929964542,-0.07878749817609787,-0.057887498289346695
1750555352031624700,1.483624755859375,-0.007837500423192978,-0.10683749616146088,-0.04702499881386757
1750555352041229600,1.4932294921875,-0.020075000822544098,-0.08483749628067017,-0.022549999877810478
1750555352050834700,1.502834716796875,-0.015124999918043613,-0.02983750030398369,0.009212499484419823
1750555352060439600,1.512439453125,-0.0005499999970197678,0.020212499424815178,0.03244999796152115
1750555352070044700,1.522044677734375,0.012924999929964542,0.0471624992787838,0.03849999979138374
1750555352079649500,1.5316494140625,0.015399999916553497,0.04221250116825104,0.025162499397993088
1750555352089254700,1.541254638671875,0.012924999929964542,0.026399999856948853,0.004399999976158142
1750555352098859500,1.550859619140625,0.015399999916553497,0.007974999956786633,-0.0042624999769032
1750555352108465000,1.56046484375,0.020212499424815178,-0.009074999950826168,0.007974999956786633
1750555352118069800,1.57006982421875,0.021449999883770943,-0.010312499478459358,0.021449999883770943
1750555352127674600,1.579674560546875,0.017875000834465027,0.0006874999962747097,0.023924998939037323
1750555352137279700,1.58927978515625,0.009212499484419823,0.0006874999962747097,0.014162499457597733
1750555352146884900,1.598884765625,-0.0017874999903142452,-0.011549999937415123,-0.006599999964237213
1750555352156489700,1.60848974609375,-0.011549999937415123,-0.02736249938607216,-0.026124998927116394
1750555352166094800,1.6180947265625,-0.023787500336766243,-0.031075000762939453,-0.03478749841451645
1750555352175700000,1.627699951171875,-0.02488750033080578,-0.015262499451637268,-0.02736249938607216
1750555352185304800,1.637304931640625,-0.023787500336766243,0.009212499484419823,-0.005362499970942736
1750555352194910000,1.646909912109375,-0.022549999877810478,0.023924998939037323,0.018975000828504562
1750555352204515000,1.65651513671875,-0.026124998927116394,0.03726249933242798,0.018975000828504562
1750555352214120200,1.6661201171875,-0.028599999845027924,0.03492499887943268,-0.005362499970942736
1750555352223725000,1.67572509765625,-0.02983750030398369,0.023924998939037323,-0.036024998873472214
1750555352233330200,1.685330078125,-0.026124998927116394,0.0006874999962747097,-0.0518375001847744
1750555352242935300,1.694935302734375,-0.028599999845027924,-0.014024999924004078,-0.053075000643730164
1750555352252540200,1.7045400390625,-0.03231250122189522,0.0031624999828636646,-0.038362499326467514
1750555352262145000,1.71414501953125,-0.02983750030398369,0.029975000768899918,-0.007837500423192978
1750555352271750400,1.72375048828125,-0.028599999845027924,0.04468749836087227,0.021449999883770943
1750555352281355500,1.73335546875,-0.02488750033080578,0.04221250116825104,0.029975000768899918
1750555352290960400,1.74296044921875,-0.022549999877810478,0.022687500342726707,0.011687500402331352
1750555352300565500,1.7525654296875,-0.018837500363588333,0.005499999970197678,-0.015124999918043613
1750555352310170600,1.762170654296875,-0.012787500396370888,-0.015262499451637268,-0.02983750030398369
1750555352319775500,1.771775390625,-0.005362499970942736,-0.020075000822544098,-0.038362499326467514
1750555352329380600,1.781380615234375,0.0006874999962747097,-0.006599999964237213,-0.04331250116229057
1750555352338985700,1.79098583984375,0.009212499484419823,0.0006874999962747097,-0.04331250116229057
1750555352348590600,1.800590576171875,0.021449999883770943,0.0006874999962747097,-0.04207500070333481
1750555352358196000,1.810196044921875,0.026399999856948853,-0.009074999950826168,-0.04207500070333481
1750555352367800800,1.81980078125,0.028875000774860382,-0.021312499418854713,-0.04207500070333481
1750555352377405700,1.82940576171875,0.023924998939037323,-0.021312499418854713,-0.03959999978542328
1750555352387011000,1.839010986328125,0.018975000828504562,-0.012787500396370888,-0.03712499886751175
1750555352396616000,1.848615966796875,0.020212499424815178,0.009212499484419823,-0.028599999845027924
1750555352406220800,1.858220703125,0.022687500342726707,0.022687500342726707,-0.009074999950826168
1750555352415826000,1.867825927734375,0.025162499397993088,0.027499999850988388,0.0031624999828636646
1750555352425431000,1.87743115234375,0.026399999856948853,0.025162499397993088,-0.0017874999903142452
1750555352435036000,1.887035888671875,0.023924998939037323,0.006737499963492155,-0.020075000822544098
1750555352444641000,1.89664111328125,0.023924998939037323,-0.011549999937415123,-0.03712499886751175
1750555352454246100,1.90624609375,0.027637500315904617,-0.026262499392032623,-0.04455000162124634
1750555352463851300,1.915851318359375,0.03616249933838844,-0.038362499326467514,-0.04331250116229057
1750555352473456000,1.9254560546875,0.03739999979734421,-0.04702499881386757,-0.03959999978542328
1750555352483061200,1.935061279296875,0.03244999796152115,-0.04936249926686287,-0.03478749841451645
1750555352492666000,1.944666015625,0.026399999856948853,-0.038362499326467514,-0.036024998873472214
1750555352502271200,1.954271240234375,0.021449999883770943,-0.01759999990463257,-0.036024998873472214
1750555352511876400,1.96387646484375,0.011687500402331352,0.011687500402331352,-0.028599999845027924
1750555352521481500,1.9734814453125,0.0056374999694526196,0.03368749842047691,-0.023787500336766243
1750555352531086300,1.98308642578125,0.0056374999694526196,0.05197500064969063,-0.031075000762939453
1750555352540691500,1.99269140625,0.010449999943375587,0.05926249921321869,-0.045787498354911804
1750555352550296600,2.002296630859375,0.020212499424815178,0.04468749836087227,-0.06159999966621399
1750555352559901400,2.0119013671875,0.026399999856948853,0.012924999929964542,-0.07507500052452087
1750555352569506600,2.021506591796875,0.018975000828504562,-0.02983750030398369,-0.08607500046491623
1750555352579111700,2.031111572265625,0.010449999943375587,-0.06159999966621399,-0.09088750183582306
1750555352588716500,2.040716552734375,0.006874999962747097,-0.07878749817609787,-0.09212499856948853
1750555352598321400,2.0503212890625,0.0031624999828636646,-0.0775500014424324,-0.08607500046491623
1750555352607926800,2.0599267578125,0.0006874999962747097,-0.06159999966621399,-0.07631249725818634
1750555352617531600,2.06953173828125,-0.0017874999903142452,-0.020075000822544098,-0.05912499874830246
1750555352627136800,2.07913671875,-0.005362499970942736,0.023924998939037323,-0.036024998873472214
1750555352636741600,2.08874169921875,0.0019249999895691872,0.06173750013113022,-0.014024999924004078
1750555352646346800,2.0983466796875,0.020212499424815178,0.06792499870061874,0.0019249999895691872
1750555352655952000,2.107951904296875,0.03987500071525574,0.05444999784231186,-0.0042624999769032
1750555352665557000,2.117556884765625,0.05321250110864639,0.05444999784231186,-0.028599999845027924
1750555352675162000,2.127162109375,0.06544999778270721,0.05444999784231186,-0.05678749829530716
1750555352684767000,2.13676708984375,0.06916250288486481,0.05926249921321869,-0.06159999966621399
1750555352694372000,2.1463720703125,0.04839999973773956,0.0752125009894371,-0.04936249926686287
1750555352703977000,2.15597705078125,0.017875000834465027,0.10573749989271164,-0.03712499886751175
1750555352713582000,2.16558203125,0.0019249999895691872,0.11797499656677246,-0.028599999845027924
1750555352723187000,2.17518701171875,-0.0005499999970197678,0.06792499870061874,-0.03478749841451645
1750555352732792000,2.1847919921875,-0.0017874999903142452,0.0031624999828636646,-0.05678749829530716
1750555352742397200,2.194397216796875,-0.0017874999903142452,-0.048124998807907104,-0.09212499856948853
1750555352752002000,2.204001953125,-0.0028874999843537807,-0.09583749622106552,-0.1288374960422516
1750555352761607200,2.213607177734375,-0.005362499970942736,-0.13983750343322754,-0.12759999930858612
1750555352771212500,2.223212646484375,-0.004124999977648258,-0.1825999915599823,-0.09831249713897705
1750555352780817400,2.2328173828125,-0.0005499999970197678,-0.20583750307559967,-0.06159999966621399
1750555352790422500,2.242422607421875,0.017875000834465027,-0.20583750307559967,-0.040837500244379044
1750555352800027600,2.252027587890625,0.03492499887943268,-0.19359999895095825,-0.03959999978542328
1750555352809632500,2.261632568359375,0.03987500071525574,-0.1508374959230423,-0.03959999978542328
1750555352819237400,2.2712373046875,0.03368749842047691,-0.07878749817609787,-0.03712499886751175
1750555352828842500,2.280842529296875,0.025162499397993088,-0.009074999950826168,-0.011549999937415123
1750555352838447600,2.290447509765625,0.009212499484419823,0.048262499272823334,0.04592499881982803
1750555352848052500,2.300052490234375,-0.0005499999970197678,0.08744999766349792,0.10821250081062317
1750555352857657600,2.30965771484375,-0.0028874999843537807,0.11178749799728394,0.1447875052690506
1750555352867262700,2.3192626953125,0.006874999962747097,0.12278749793767929,0.1289750039577484
1750555352876867600,2.32886767578125,0.028875000774860382,0.11797499656677246,0.05321250110864639
1750555352886472700,2.33847265625,0.043449997901916504,0.05816249921917915,-0.05555000156164169
1750555352896077600,2.34807763671875,0.04097500070929527,-0.009074999950826168,-0.16788749396800995
1750555352905683000,2.357682861328125,0.028875000774860382,-0.06902500241994858,-0.22893749177455902
1750555352915287800,2.367287841796875,0.018975000828504562,-0.13255000114440918,-0.23017500340938568
1750555352924893000,2.376892822265625,0.023924998939037323,-0.141075000166893,-0.20583750307559967
1750555352934498000,2.386498046875,0.04468749836087227,-0.10436250269412994,-0.19236250221729279
1750555352944103000,2.39610302734375,0.06421250104904175,-0.06655000150203705,-0.1825999915599823
1750555352953708000,2.4057080078125,0.07768750190734863,-0.05678749829530716,-0.16060000658035278
1750555352963313200,2.415313232421875,0.07163749635219574,-0.036024998873472214,-0.1288374960422516
1750555352972918000,2.42491796875,0.04468749836087227,-0.007837500423192978,-0.0835999995470047
1750555352982523100,2.434523193359375,0.015399999916553497,0.005499999970197678,-0.02983750030398369
1750555352992128300,2.444128173828125,-0.006599999964237213,0.011687500402331352,0.006737499963492155
1750555353001733000,2.453733154296875,-0.009074999950826168,0.015399999916553497,0.020212499424815178
1750555353011338200,2.463338134765625,0.0006874999962747097,0.010449999943375587,0.018975000828504562
1750555353020943400,2.472943359375,0.011687500402331352,-0.015262499451637268,0.017737500369548798
1750555353030548200,2.48254833984375,0.009212499484419823,-0.04702499881386757,0.023924998939037323
1750555353040153300,2.4921533203125,-0.010312499478459358,-0.060362499207258224,0.03849999979138374
1750555353049758500,2.501758544921875,-0.02983750030398369,-0.05431250110268593,0.04839999973773956
1750555353059363600,2.511363525390625,-0.038362499326467514,-0.031075000762939453,0.04468749836087227
1750555353068968400,2.520968505859375,-0.03231250122189522,0.0031624999828636646,0.027499999850988388
1750555353078573600,2.530573486328125,-0.013887500390410423,0.03726249933242798,0.006737499963492155
1750555353088178700,2.5401787109375,0.006874999962747097,0.0494999997317791,-0.016362499445676804
1750555353097783600,2.549783447265625,0.023924998939037323,0.05321250110864639,-0.038362499326467514
1750555353107388700,2.559388671875,0.017875000834465027,0.04097500070929527,-0.050599999725818634
1750555353116993800,2.568993896484375,0.0031624999828636646,0.0031624999828636646,-0.048124998807907104
1750555353126598700,2.5785986328125,-0.007837500423192978,-0.03959999978542328,-0.03712499886751175
1750555353136203800,2.588203857421875,-0.0005499999970197678,-0.06778749823570251,-0.02502499893307686
1750555353145809000,2.597808837890625,0.021449999883770943,-0.06655000150203705,-0.0017874999903142452
1750555353155413800,2.607413818359375,0.04468749836087227,-0.040837500244379044,0.014162499457597733
1750555353165019000,2.617018798828125,0.04097500070929527,-0.006599999964237213,0.018975000828504562
1750555353174624000,2.6266240234375,0.020212499424815178,0.026399999856948853,0.021449999883770943
1750555353184228900,2.636228759765625,-0.0028874999843537807,0.06297499686479568,0.020212499424815178
1750555353193834200,2.645834228515625,-0.021312499418854713,0.08868750184774399,0.022687500342726707
1750555353203439000,2.655439208984375,-0.026124998927116394,0.10092499852180481,0.03616249933838844
1750555353213044200,2.665044189453125,-0.021312499418854713,0.09350000321865082,0.05926249921321869
1750555353222649000,2.674649169921875,-0.010312499478459358,0.08002500236034393,0.0752125009894371
1750555353232254200,2.684254150390625,0.0019249999895691872,0.0812624990940094,0.07273750007152557
1750555353241859300,2.693859375,0.011687500402331352,0.08373750001192093,0.060499999672174454
1750555353251464400,2.70346435546875,0.014162499457597733,0.07273750007152557,0.05444999784231186
1750555353261069600,2.713069580078125,0.012924999929964542,0.03492499887943268,0.05321250110864639
1750555353270674400,2.72267431640625,0.0056374999694526196,-0.0030249999836087227,0.05197500064969063
1750555353280279300,2.732279296875,-0.006599999964237213,-0.016362499445676804,0.0494999997317791
1750555353289884400,2.741884521484375,-0.01759999990463257,-0.0030249999836087227,0.05321250110864639
1750555353299489500,2.751489501953125,-0.015124999918043613,0.007974999956786633,0.05816249921917915
1750555353309094400,2.761094482421875,-0.005362499970942736,0.028737500309944153,0.05926249921321869
1750555353318699500,2.770699462890625,0.006874999962747097,0.04592499881982803,0.05321250110864639
1750555353328304600,2.7803046875,0.011687500402331352,0.05073750019073486,0.03492499887943268
1750555353337909800,2.78990966796875,0.006874999962747097,0.05197500064969063,0.016637500375509262
1750555353347514600,2.7995146484375,-0.006599999964237213,0.0471624992787838,0.022687500342726707
1750555353357120000,2.8091201171875,-0.018837500363588333,0.04221250116825104,0.0471624992787838
1750555353366724900,2.818724853515625,-0.01759999990463257,0.03368749842047691,0.07026249915361404
1750555353376329700,2.828329833984375,-0.016362499445676804,0.016499999910593033,0.08016250282526016
1750555353385934800,2.837934814453125,-0.015124999918043613,0.0019249999895691872,0.07026249915361404
1750555353395540000,2.8475400390625,-0.011549999937415123,-0.0042624999769032,0.04468749836087227
1750555353405144800,2.857144775390625,-0.007837500423192978,-0.006599999964237213,0.017737500369548798
1750555353414750000,2.86675,-0.010312499478459358,0.007974999956786633,-0.0030249999836087227
1750555353424355000,2.87635498046875,-0.020075000822544098,0.05197500064969063,0.0056374999694526196
1750555353433960000,2.8859599609375,-0.02983750030398369,0.11178749799728394,0.04468749836087227
1750555353443565000,2.89556494140625,-0.040837500244379044,0.1802625060081482,0.08992499858140945
1750555353453170000,2.905169921875,-0.048124998807907104,0.227974995970726,0.11426249891519547
1750555353462775300,2.914775390625,-0.035887498408555984,0.22907499969005585,0.10092499852180481
1750555353472380200,2.924380126953125,-0.011549999937415123,0.18754999339580536,0.05444999784231186
1750555353481985300,2.9339853515625,0.004399999976158142,0.11426249891519547,-0.0017874999903142452
1750555353491590400,2.94359033203125,0.010449999943375587,0.031212499365210533,-0.05555000156164169
1750555353501195300,2.9531953125,0.008112499490380287,-0.036024998873472214,-0.09459999948740005
1750555353510800100,2.962800048828125,0.0019249999895691872,-0.04936249926686287,-0.10188750177621841
1750555353520405500,2.972405517578125,-0.0028874999843537807,-0.03478749841451645,-0.08236250281333923
1750555353530010600,2.9820107421875,-0.010312499478459358,-0.0005499999970197678,-0.0518375001847744
1750555353539615500,2.991615478515625,-0.013887500390410423,0.03616249933838844,-0.018837500363588333
1750555353549220600,3.001220703125,-0.0017874999903142452,0.03368749842047691,-0.0005499999970197678
1750555353558825700,3.01082568359375,0.015399999916553497,0.022687500342726707,-0.006599999964237213
1750555353568430600,3.0204306640625,0.029975000768899918,0.025162499397993088,-0.02502499893307686
1750555353578035700,3.03003564453125,0.03616249933838844,0.04097500070929527,-0.02983750030398369
1750555353587640800,3.039640869140625,0.022687500342726707,0.07397499680519104,-0.010312499478459358
1750555353597245700,3.04924560546875,0.004399999976158142,0.09226249903440475,0.023924998939037323
1750555353606850600,3.0588505859375,-0.007837500423192978,0.09350000321865082,0.05692499876022339
1750555353616456000,3.0684560546875,-0.009074999950826168,0.055687498301267624,0.07273750007152557
1750555353626060800,3.078060791015625,-0.0005499999970197678,0.021449999883770943,0.05692499876022339
1750555353635666000,3.087666015625,0.0019249999895691872,0.017737500369548798,0.018975000828504562
1750555353645270800,3.097270751953125,0.0006874999962747097,0.028737500309944153,-0.009074999950826168
1750555353654876000,3.1068759765625,-0.0028874999843537807,0.026399999856948853,-0.020075000822544098
1750555353664481000,3.11648095703125,-0.006599999964237213,0.011687500402331352,-0.012787500396370888
1750555353674086000,3.1260859375,-0.03464999794960022,-0.08112499862909317,-0.026124998927116394
1750555353683691300,3.135691162109375,-0.031075000762939453,-0.14231249690055847,-0.02736249938607216
1750555353693296000,3.145296142578125,-0.0017874999903142452,-0.12264999747276306,-0.023787500336766243
1750555353702901000,3.15490087890625,0.021449999883770943,-0.0835999995470047,-0.04207500070333481
1750555353712506400,3.16450634765625,0.031212499365210533,-0.06778749823570251,-0.07878749817609787
1750555353722111200,3.174111328125,0.03492499887943268,-0.06407500058412552,-0.10559999942779541
1750555353731716400,3.18371630859375,0.031212499365210533,-0.0518375001847744,-0.10312499850988388
1750555353741321200,3.1933212890625,0.014162499457597733,-0.03712499886751175,-0.07878749817609787
1750555353750926300,3.20292626953125,-0.0005499999970197678,-0.007837500423192978,-0.048124998807907104
1750555353760531500,3.212531494140625,-0.0005499999970197678,0.043449997901916504,-0.023787500336766243
1750555353770136600,3.222136474609375,0.009212499484419823,0.07768750190734863,-0.022549999877810478
1750555353779741700,3.23174169921875,0.016637500375509262,0.07644999772310257,-0.0518375001847744
1750555353789346600,3.2413466796875,0.0056374999694526196,0.06421250104904175,-0.0835999995470047
1750555353798951400,3.250951416015625,-0.007837500423192978,0.03849999979138374,-0.10188750177621841
1750555353808556500,3.260556640625,-0.020075000822544098,-0.021312499418854713,-0.1190750002861023
1750555353818161700,3.27016162109375,-0.02488750033080578,-0.08855000138282776,-0.13241249322891235
1750555353827766800,3.279766845703125,-0.018837500363588333,-0.1288374960422516,-0.13488750159740448
1750555353837372000,3.289371826171875,-0.004124999977648258,-0.1288374960422516,-0.13007499277591705
1750555353846976800,3.298976806640625,0.004399999976158142,-0.10807500034570694,-0.12759999930858612
1750555353856582000,3.308581787109375,0.012924999929964542,-0.08855000138282776,-0.12759999930858612
1750555353866187000,3.31818701171875,0.028875000774860382,-0.07136250287294388,-0.12388750165700912
1750555353875792000,3.3277919921875,0.04097500070929527,-0.058024998754262924,-0.10807500034570694
1750555353885397200,3.337397216796875,0.03739999979734421,-0.03478749841451645,-0.0775500014424324
1750555353895002000,3.347002197265625,0.026399999856948853,-0.0042624999769032,-0.036024998873472214
1750555353904607000,3.35660693359375,0.017875000834465027,0.020212499424815178,0.0031624999828636646
1750555353914212000,3.366212158203125,0.018975000828504562,0.05444999784231186,0.026399999856948853
1750555353923817200,3.375817138671875,0.03368749842047691,0.09102500230073929,0.03849999979138374
1750555353933422000,3.385422119140625,0.05321250110864639,0.1106875017285347,0.043449997901916504
1750555353943027200,3.395027099609375,0.05939999967813492,0.116737499833107,0.043449997901916504
1750555353952632300,3.40463232421875,0.05321250110864639,0.10202500224113464,0.03849999979138374
1750555353962237400,3.414237548828125,0.03616249933838844,0.05444999784231186,0.028737500309944153
1750555353971842300,3.42384228515625,0.027637500315904617,-0.005362499970942736,0.012924999929964542
1750555353981447700,3.43344775390625,0.021449999883770943,-0.06159999966621399,-0.0042624999769032
1750555353991052500,3.443052490234375,0.016637500375509262,-0.1093124970793724,-0.01759999990463257
1750555354000657400,3.452657470703125,0.006874999962747097,-0.12264999747276306,-0.023787500336766243
1750555354010262800,3.4622626953125,0.0006874999962747097,-0.1093124970793724,-0.020075000822544098
1750555354019867600,3.47186767578125,-0.0005499999970197678,-0.08112499862909317,-0.0017874999903142452
1750555354029472500,3.481472412109375,-0.0028874999843537807,-0.038362499326467514,0.027499999850988388
1750555354039078000,3.491077880859375,-0.011549999937415123,0.005499999970197678,0.0494999997317791
1750555354048682800,3.500682861328125,-0.021312499418854713,0.0471624992787838,0.060499999672174454
1750555354058287600,3.51028759765625,-0.02736249938607216,0.07768750190734863,0.06173750013113022
1750555354067892700,3.519892822265625,-0.02488750033080578,0.08373750001192093,0.06297499686479568
1750555354077497900,3.529497802734375,-0.015124999918043613,0.06792499870061874,0.05816249921917915
1750555354087102700,3.539102783203125,-0.0028874999843537807,0.0471624992787838,0.04468749836087227
1750555354096708000,3.5487080078125,-0.0017874999903142452,0.018975000828504562,0.028737500309944153
1750555354106313000,3.55831298828125,-0.006599999964237213,-0.015262499451637268,0.011687500402331352
1750555354115918000,3.56791796875,-0.009074999950826168,-0.050599999725818634,-0.006599999964237213
1750555354125523200,3.577523193359375,-0.015124999918043613,-0.07631249725818634,-0.028599999845027924
1750555354135128000,3.587128173828125,-0.015124999918043613,-0.0775500014424324,-0.0518375001847744
1750555354144733200,3.596733154296875,-0.012787500396370888,-0.06407500058412552,-0.07012499868869781
1750555354154338300,3.60633837890625,-0.010312499478459358,-0.048124998807907104,-0.07383749634027481
1750555354163943400,3.615943359375,-0.005362499970942736,-0.03231250122189522,-0.06778749823570251
1750555354173548300,3.62554833984375,-0.0005499999970197678,-0.018837500363588333,-0.05678749829530716
1750555354183153200,3.635153076171875,0.0006874999962747097,-0.015262499451637268,-0.04207500070333481
1750555354192758500,3.644758544921875,-0.0005499999970197678,-0.01759999990463257,-0.02502499893307686
1750555354202363400,3.65436328125,0.0031624999828636646,-0.03478749841451645,-0.006599999964237213
1750555354211968300,3.66396826171875,0.0031624999828636646,-0.050599999725818634,0.0006874999962747097
1750555354221573600,3.67357373046875,-0.0005499999970197678,-0.048124998807907104,-0.0030249999836087227
1750555354231178800,3.6831787109375,-0.004124999977648258,-0.02983750030398369,-0.012787500396370888
1750555354240783600,3.69278369140625,-0.011549999937415123,-0.01759999990463257,-0.021312499418854713
1750555354250388500,3.702388427734375,-0.013887500390410423,-0.005362499970942736,-0.023787500336766243
1750555354259993900,3.711993896484375,-0.018837500363588333,0.004399999976158142,-0.021312499418854713
1750555354269598700,3.7215986328125,-0.02488750033080578,-0.0005499999970197678,-0.014024999924004078
1750555354279203800,3.731203857421875,-0.022549999877810478,-0.009074999950826168,-0.009074999950826168
1750555354288809000,3.74080908203125,-0.016362499445676804,-0.02736249938607216,-0.005362499970942736
1750555354298413800,3.750413818359375,-0.010312499478459358,-0.040837500244379044,-0.009074999950826168
1750555354308019000,3.76001904296875,-0.005362499970942736,-0.045787498354911804,-0.022549999877810478
1750555354317624000,3.7696240234375,-0.0005499999970197678,-0.04207500070333481,-0.03712499886751175
1750555354327229000,3.77922900390625,0.0019249999895691872,-0.03478749841451645,-0.038362499326467514
1750555354336833800,3.788833740234375,0.0006874999962747097,-0.036024998873472214,-0.026124998927116394
1750555354346439000,3.79843896484375,-0.0005499999970197678,-0.03355000168085098,-0.010312499478459358
1750555354356044000,3.8080439453125,-0.004124999977648258,-0.012787500396370888,0.0056374999694526196
1750555354365649200,3.817649169921875,-0.0028874999843537807,0.006737499963492155,0.012924999929964542
1750555354375254000,3.82725390625,0.0056374999694526196,0.016499999910593033,0.007974999956786633
1750555354384859400,3.836859375,0.009212499484419823,0.009212499484419823,-0.0042624999769032
1750555354394464300,3.84646435546875,0.011687500402331352,0.0006874999962747097,-0.015124999918043613
1750555354404069000,3.856069091796875,0.009212499484419823,-0.005362499970942736,-0.020075000822544098
1750555354413674200,3.86567431640625,0.0056374999694526196,-0.015262499451637268,-0.020075000822544098
1750555354423279400,3.875279296875,0.0031624999828636646,-0.020075000822544098,-0.021312499418854713
1750555354432884200,3.88488427734375,0.008112499490380287,-0.016362499445676804,-0.022549999877810478
1750555354442489000,3.894489013671875,0.015399999916553497,-0.0030249999836087227,-0.023787500336766243
1750555354452094500,3.904094482421875,0.014162499457597733,0.006737499963492155,-0.01759999990463257
1750555354461699600,3.913699462890625,0.014162499457597733,0.017737500369548798,-0.011549999937415123
1750555354471304400,3.923304443359375,0.018975000828504562,0.027499999850988388,-0.0017874999903142452
1750555354480909600,3.93290966796875,0.026399999856948853,0.031212499365210533,0.0031624999828636646
1750555354490514700,3.9425146484375,0.029975000768899918,0.03368749842047691,-0.0005499999970197678
1750555354500119600,3.95211962890625,0.026399999856948853,0.031212499365210533,-0.005362499970942736
1750555354509724700,3.961724609375,0.016637500375509262,0.025162499397993088,-0.015124999918043613
1750555354519329800,3.971329833984375,0.0031624999828636646,0.021449999883770943,-0.022549999877810478
1750555354528934700,3.9809345703125,-0.0005499999970197678,0.010449999943375587,-0.031075000762939453
1750555354538539800,3.990539794921875,0.008112499490380287,-0.009074999950826168,-0.040837500244379044
1750555354548144600,4.00014453125,0.016637500375509262,-0.026262499392032623,-0.04455000162124634
1750555354557750000,4.00975,0.017875000834465027,-0.040837500244379044,-0.03959999978542328
1750555354567354600,4.019354736328125,0.008112499490380287,-0.038362499326467514,-0.03712499886751175
1750555354576959700,4.028959716796875,-0.004124999977648258,-0.014024999924004078,-0.03959999978542328
1750555354586564900,4.03856494140625,-0.009074999950826168,0.017737500369548798,-0.04207500070333481
1750555354596170000,4.048169921875,0.0006874999962747097,0.03244999796152115,-0.04207500070333481
1750555354605775000,4.057775146484375,0.011687500402331352,0.025162499397993088,-0.036024998873472214
1750555354615380000,4.0673798828125,0.017875000834465027,-0.0017874999903142452,-0.028599999845027924
1750555354624985000,4.076985107421875,0.015399999916553497,-0.021312499418854713,-0.028599999845027924
1750555354634590000,4.08658984375,0.009212499484419823,-0.02983750030398369,-0.026124998927116394
1750555354644195000,4.096195068359375,0.0019249999895691872,-0.031075000762939453,-0.01759999990463257
1750555354653800200,4.10580029296875,-0.005362499970942736,-0.011549999937415123,-0.009074999950826168
1750555354663405000,4.115405029296875,-0.012787500396370888,0.023924998939037323,-0.009074999950826168
1750555354673010400,4.125010498046875,-0.020075000822544098,0.05197500064969063,-0.016362499445676804
1750555354682615300,4.134615234375,-0.02488750033080578,0.05816249921917915,-0.040837500244379044
1750555354692220400,4.144220458984375,-0.022549999877810478,0.04592499881982803,-0.089649997651577
1750555354701825500,4.153825439453125,-0.016362499445676804,0.005499999970197678,-0.15441249310970306
1750555354711430700,4.1634306640625,-0.009074999950826168,-0.05678749829530716,-0.22165000438690186
1750555354721035500,4.173035400390625,-0.0005499999970197678,-0.1116499975323677,-0.2741749882698059
1750555354730640400,4.182640380859375,0.006874999962747097,-0.14959999918937683,-0.3096500039100647
1750555354740245800,4.192245849609375,0.004399999976158142,-0.172837495803833,-0.3231250047683716
1750555354749850600,4.2018505859375,-0.010312499478459358,-0.17641249299049377,-0.3291749954223633
1750555354759455700,4.211455810546875,-0.03464999794960022,-0.14588749408721924,-0.3328875005245209
1750555354769060600,4.221060546875,-0.04455000162124634,-0.10188750177621841,-0.33412501215934753
1750555354778665700,4.230665771484375,-0.04331250116229057,-0.053075000643730164,-0.31817498803138733
1750555354788270800,4.240270751953125,-0.038362499326467514,0.0031624999828636646,-0.27293750643730164
1750555354797876000,4.2498759765625,-0.03959999978542328,0.05197500064969063,-0.21683749556541443
1750555354807480800,4.259480712890625,-0.03959999978542328,0.08002500236034393,-0.172837495803833
1750555354817085700,4.269085693359375,-0.04455000162124634,0.06544999778270721,-0.14588749408721924
1750555354826691000,4.278691162109375,-0.05431250110268593,0.03726249933242798,-0.15207499265670776
1750555354836296000,4.2882958984375,-0.06641250103712082,0.03616249933838844,-0.1751749962568283
1750555354845901000,4.297901123046875,-0.07864999771118164,0.0494999997317791,-0.16541250050067902
1750555354855506000,4.307505859375,-0.09459999948740005,0.06792499870061874,-0.07507500052452087
1750555354865111000,4.317111083984375,-0.13612499833106995,0.06544999778270721,0.11797499656677246
1750555354874716200,4.326716064453125,-0.1788875013589859,0.08992499858140945,0.3903625011444092
1750555354884321300,4.3363212890625,-0.20569999516010284,0.11921250075101852,0.7129374742507935
1750555354893926100,4.345926025390625,-0.2008875012397766,0.08373750001192093,1.0733250379562378
1750555354903531300,4.35553125,-0.1471250057220459,-0.0798875018954277,1.5925250053405762
1750555354913136400,4.365136474609375,-0.13241249322891235,-0.41222500801086426,2.446537494659424
1750555354922741500,4.374741455078125,-0.09459999948740005,-0.6028000116348267,3.537600040435791
1750555354932346400,4.384346435546875,-0.060362499207258224,-0.522225022315979,4.799574851989746
1750555354941951200,4.393951171875,-0.031075000762939453,-0.4879874885082245,6.032262325286865
1750555354951556600,4.403556640625,0.09597499668598175,-0.21917499601840973,6.8667497634887695
1750555354961161500,4.413161376953125,0.24873749911785126,0.10326249897480011,7.17942476272583
1750555354970766300,4.422766357421875,0.36602500081062317,0.24255000054836273,6.999849796295166
1750555354980371500,4.432371337890625,0.29878750443458557,0.2437874972820282,6.5294623374938965
1750555354989976800,4.441976806640625,-0.0017874999903142452,-0.10312499850988388,5.965024948120117
1750555354999581400,4.45158154296875,-0.2937000095844269,-0.566224992275238,5.211249828338623
1750555355009186800,4.461186767578125,-0.40727499127388,-0.8765624761581421,4.211899757385254
1750555355018791700,4.470791748046875,-0.3854124844074249,-0.9754250049591064,3.1747374534606934
1750555355028396800,4.480396728515625,-0.27665001153945923,-1.0487124919891357,2.285249948501587
1750555355038001700,4.490001708984375,-0.1691250056028366,-1.0524250268936157,1.570525050163269
1750555355047606800,4.499606689453125,-0.12264999747276306,-0.9534249901771545,1.0390875339508057
1750555355057212000,4.5092119140625,-0.1373624950647354,-0.7567999958992004,0.6786999702453613
1750555355066816800,4.518816650390625,-0.1849374920129776,-0.44769999384880066,0.4735499918460846
1750555355076422000,4.528421875,-0.260699987411499,-0.12759999930858612,0.3965499997138977
1750555355086027000,4.538027099609375,-0.32298749685287476,0.1424500048160553,0.36602500081062317
1750555355095632000,4.5476318359375,-0.37441250681877136,0.3232625126838684,0.3232625126838684
1750555355105237000,4.557237060546875,-0.4232249855995178,0.33783748745918274,0.21821250021457672
1750555355114842000,4.566842041015625,-0.45003750920295715,0.24626250565052032,0.028737500309944153
1750555355124447200,4.576447265625,-0.43793749809265137,0.1985500007867813,-0.2204124927520752
1750555355134052000,4.586052001953125,-0.40246251225471497,0.23897500336170197,-0.4916999936103821
1750555355143657200,4.5956572265625,-0.33646249771118164,0.334262490272522,-0.7921375036239624
1750555355153262000,4.605261962890625,-0.25946250557899475,0.406312495470047,-1.1477124691009521
1750555355162867200,4.6148671875,-0.19841249287128448,0.3255999982357025,-1.5888124704360962
1750555355172472300,4.624472412109375,-0.16183750331401825,0.16321249306201935,-2.104300022125244
1750555355182077400,4.634077392578125,-0.15936249494552612,0.004399999976158142,-2.6039750576019287
1750555355191682300,4.643682373046875,-0.1886499971151352,-0.0835999995470047,-3.057312488555908
1750555355201287400,4.653287353515625,-0.2363625019788742,-0.02502499893307686,-3.533750057220459
1750555355210892500,4.662892578125,-0.2998875081539154,0.164450004696846,-4.040712356567383
1750555355220497400,4.672497314453125,-0.3975124955177307,0.2523125112056732,-4.563624858856201
1750555355230102500,4.6821025390625,-0.3889875113964081,0.22550000250339508,-5.053537368774414
1750555355239707600,4.691707763671875,-0.2778874933719635,0.028737500309944153,-5.334449768066406
1750555355249312500,4.7013125,-0.18136249482631683,-0.30346250534057617,-5.376112461090088
1750555355258917400,4.71091748046875,0.029975000768899918,-0.454987496137619,-5.350399971008301
1750555355268522800,4.720522705078125,0.36602500081062317,-0.3964124917984009,-5.2111124992370605
1750555355278127600,4.730127685546875,0.5773624777793884,-0.31088748574256897,-4.722437381744385
1750555355287732700,4.739732666015625,0.6140750050544739,-0.260699987411499,-3.9246625900268555
1750555355297337900,4.749337890625,0.5235999822616577,-0.2046000063419342,-2.9937875270843506
1750555355306942700,4.758942626953125,0.3562625050544739,-0.08855000138282776,-2.1605374813079834
1750555355316547800,4.7685478515625,0.20473749935626984,0.17297500371932983,-1.6216750144958496
1750555355326152700,4.778152587890625,0.13516250252723694,0.44907498359680176,-1.3602875471115112
1750555355335758000,4.787758056640625,0.15097500383853912,0.6689375042915344,-1.195425033569336
1750555355345363000,4.797363037109375,0.148499995470047,0.7777000069618225,-0.9009000062942505
1750555355354968000,4.806968017578125,0.1461624950170517,0.7556999921798706,-0.43546250462532043
1750555355364573200,4.8165732421875,0.15826250612735748,0.7006999850273132,0.022687500342726707
1750555355374178000,4.826177978515625,0.15702499449253082,0.5846499800682068,0.31226250529289246
1750555355383783000,4.835782958984375,0.15468749403953552,0.414837509393692,0.3708375096321106
1750555355393388000,4.845387939453125,0.1387374997138977,0.20954999327659607,0.2670249938964844
1750555355402993200,4.8549931640625,0.10821250081062317,0.022687500342726707,0.10821250081062317
1750555355412598000,4.864597900390625,0.07644999772310257,-0.08855000138282776,-0.007837500423192978
1750555355422203100,4.874203125,0.04592499881982803,-0.12636250257492065,-0.03355000168085098
1750555355431808500,4.88380859375,0.016637500375509262,-0.10078749805688858,-0.010312499478459358
1750555355441413400,4.893413330078125,0.0006874999962747097,-0.06655000150203705,0.018975000828504562
1750555355451018500,4.9030185546875,0.008112499490380287,-0.04455000162124634,0.05073750019073486
1750555355460623400,4.912623291015625,0.017875000834465027,-0.01759999990463257,0.09968750178813934
1750555355470228500,4.922228515625,0.03739999979734421,-0.03478749841451645,0.1765500009059906
1750555355479833600,4.93183349609375,0.05073750019073486,-0.09707500040531158,0.27431249618530273
1750555355489438700,4.941438720703125,0.06063750013709068,-0.12636250257492065,0.3293125033378601
1750555355499043600,4.951043701171875,0.07039999961853027,-0.07878749817609787,0.3170749843120575
1750555355508648400,4.9606484375,0.06792499870061874,0.007974999956786633,0.25107499957084656
1750555355518253800,4.97025390625,0.05939999967813492,0.10326249897480011,0.16321249306201935
1750555355527858700,4.979858642578125,0.043449997901916504,0.14726249873638153,0.09597499668598175
1750555355537463600,4.989463623046875,0.018975000828504562,0.148499995470047,0.07026249915361404
1750555355547068700,4.999068603515625,-0.010312499478459358,0.11302500218153,0.08621250092983246
1750555355556673800,5.008673828125,-0.03464999794960022,0.04468749836087227,0.12168750166893005
1750555355566279000,5.01827880859375,-0.05664999783039093,-0.016362499445676804,0.13997499644756317
1750555355575884000,5.027884033203125,-0.06641250103712082,-0.050599999725818634,0.13021250069141388
1750555355585489000,5.037489013671875,-0.060362499207258224,-0.09088750183582306,0.10573749989271164
1750555355595094000,5.047093994140625,-0.045649997889995575,-0.13007499277591705,0.06173750013113022
1750555355604699000,5.056698974609375,-0.026124998927116394,-0.13488750159740448,0.014162499457597733
1750555355614304000,5.066303955078125,-0.0028874999843537807,-0.10078749805688858,-0.022549999877810478
1750555355623909000,5.0759091796875,0.011687500402331352,-0.04207500070333481,-0.040837500244379044
1750555355633514000,5.085513916015625,0.023924998939037323,0.012924999929964542,-0.03478749841451645
1750555355643119000,5.095119140625,0.03616249933838844,0.025162499397993088,0.004399999976158142
1750555355652724200,5.10472412109375,0.04839999973773956,0.005499999970197678,0.055687498301267624
1750555355662329000,5.1143291015625,0.05939999967813492,-0.020075000822544098,0.09473749995231628
1750555355671934200,5.123934326171875,0.06421250104904175,-0.04455000162124634,0.11192499846220016
1750555355681539300,5.133539306640625,0.05939999967813492,-0.06902500241994858,0.09844999760389328
1750555355691144200,5.143144287109375,0.043449997901916504,-0.07383749634027481,0.05926249921321869
1750555355700749300,5.152749267578125,0.029975000768899918,-0.038362499326467514,0.017737500369548798
1750555355710354400,5.1623544921875,0.029975000768899918,0.011687500402331352,-0.007837500423192978
1750555355719959600,5.17195947265625,0.029975000768899918,0.05926249921321869,-0.015124999918043613
1750555355729564400,5.181564453125,0.031212499365210533,0.08868750184774399,-0.014024999924004078
1750555355739169500,5.19116943359375,0.022687500342726707,0.07644999772310257,-0.009074999950826168
1750555355748774700,5.200774658203125,0.011687500402331352,0.04097500070929527,-0.0030249999836087227
1750555355758379800,5.2103798828125,0.009212499484419823,-0.012787500396370888,-0.0030249999836087227
1750555355767984600,5.219984619140625,0.016637500375509262,-0.06159999966621399,-0.015124999918043613
1750555355777589800,5.22958984375,0.029975000768899918,-0.08112499862909317,-0.026124998927116394
1750555355787194600,5.239194580078125,0.03987500071525574,-0.08607500046491623,-0.031075000762939453
1750555355796800000,5.248800048828125,0.043449997901916504,-0.06283749639987946,-0.028599999845027924
1750555355806404900,5.25840478515625,0.03492499887943268,-0.036024998873472214,-0.023787500336766243
1750555355816009700,5.268009765625,0.022687500342726707,-0.022549999877810478,-0.02736249938607216
1750555355825614600,5.277614501953125,0.008112499490380287,-0.015262499451637268,-0.03712499886751175
1750555355835220000,5.287219970703125,-0.005362499970942736,-0.009074999950826168,-0.048124998807907104
1750555355844824800,5.296824951171875,-0.016362499445676804,-0.0017874999903142452,-0.04936249926686287
1750555355854430000,5.306429931640625,-0.015124999918043613,0.007974999956786633,-0.038362499326467514
1750555355864035000,5.31603515625,-0.013887500390410423,0.022687500342726707,-0.016362499445676804
1750555355873640000,5.325639892578125,-0.015124999918043613,0.03726249933242798,0.004399999976158142
1750555355883244800,5.335244873046875,-0.018837500363588333,0.04097500070929527,0.023924998939037323
1750555355892850000,5.344849853515625,-0.018837500363588333,0.007974999956786633,0.031212499365210533
1750555355902455000,5.354455078125,-0.012787500396370888,-0.03478749841451645,0.004399999976158142
1750555355912060200,5.36406005859375,-0.0017874999903142452,-0.0798875018954277,-0.040837500244379044
1750555355921665000,5.3736650390625,0.0006874999962747097,-0.1116499975323677,-0.08236250281333923
1750555355931270100,5.383270263671875,-0.009074999950826168,-0.1116499975323677,-0.09831249713897705
1750555355940875300,5.392875244140625,-0.018837500363588333,-0.07012499868869781,-0.08483749628067017
1750555355950480100,5.402480224609375,-0.020075000822544098,-0.0042624999769032,-0.045787498354911804
1750555355960085200,5.412085205078125,-0.020075000822544098,0.05816249921917915,0.010449999943375587
1750555355969690400,5.4216904296875,-0.010312499478459358,0.08621250092983246,0.055687498301267624
1750555355979295200,5.431295166015625,0.006874999962747097,0.09350000321865082,0.07150000333786011
1750555355988900400,5.440900390625,0.014162499457597733,0.0752125009894371,0.06544999778270721
1750555355998505500,5.45050537109375,0.017875000834465027,0.011687500402331352,0.03492499887943268
1750555356008110300,5.4601103515625,0.012924999929964542,-0.048124998807907104,-0.0042624999769032
1750555356017715500,5.469715576171875,-0.0028874999843537807,-0.08855000138282776,-0.028599999845027924
1750555356027320600,5.479320556640625,-0.023787500336766243,-0.09212499856948853,-0.028599999845027924
1750555356036925400,5.488925537109375,-0.031075000762939453,-0.05431250110268593,-0.012787500396370888
1750555356046530300,5.4985302734375,-0.03355000168085098,-0.0030249999836087227,0.006737499963492155
1750555356056135700,5.5081357421875,-0.03231250122189522,0.031212499365210533,0.009212499484419823
1750555356065740500,5.517740478515625,-0.02488750033080578,0.06544999778270721,-0.012787500396370888
1750555356075345700,5.527345703125,-0.010312499478459358,0.09102500230073929,-0.045787498354911804
1750555356084950500,5.536950439453125,0.014162499457597733,0.08249999582767487,-0.07136250287294388
1750555356094555600,5.5465556640625,0.03492499887943268,0.05692499876022339,-0.0775500014424324
1750555356104160800,5.556160888671875,0.04221250116825104,0.023924998939037323,-0.07383749634027481
1750555356113765600,5.565765625,0.04221250116825104,-0.009074999950826168,-0.06407500058412552
1750555356123370800,5.575370849609375,0.03863750025629997,-0.031075000762939453,-0.0518375001847744
1750555356132975900,5.584975830078125,0.028875000774860382,-0.040837500244379044,-0.03231250122189522
1750555356142580700,5.594580810546875,0.012924999929964542,-0.04331250116229057,-0.015124999918043613
1750555356152185900,5.604185791015625,-0.005362499970942736,-0.02983750030398369,-0.011549999937415123
1750555356161791000,5.613791015625,-0.010312499478459358,-0.020075000822544098,-0.020075000822544098
1750555356171395800,5.623395751953125,-0.006599999964237213,-0.012787500396370888,-0.03355000168085098
1750555356181001200,5.633001220703125,0.0019249999895691872,0.011687500402331352,-0.036024998873472214
1750555356190606000,5.642606201171875,0.015399999916553497,0.05816249921917915,-0.015124999918043613
1750555356200211000,5.6522109375,0.023924998939037323,0.1106875017285347,0.010449999943375587
1750555356209816000,5.661816162109375,0.026399999856948853,0.13378749787807465,0.022687500342726707
1750555356219421200,5.671421142578125,0.018975000828504562,0.11302500218153,0.012924999929964542
1750555356229026300,5.6810263671875,0.0056374999694526196,0.0494999997317791,-0.014024999924004078
1750555356238631400,5.69063134765625,-0.004124999977648258,-0.015262499451637268,-0.05431250110268593
1750555356248236000,5.700236083984375,-0.007837500423192978,-0.053075000643730164,-0.09459999948740005
1750555356257841400,5.70984130859375,-0.0028874999843537807,-0.06902500241994858,-0.1093124970793724
1750555356267446300,5.7194462890625,0.0031624999828636646,-0.06531249731779099,-0.09336250275373459
1750555356277051100,5.729051025390625,0.009212499484419823,-0.04207500070333481,-0.05555000156164169
1750555356286656500,5.738656494140625,0.012924999929964542,0.007974999956786633,-0.020075000822544098
1750555356296261400,5.748261474609375,0.008112499490380287,0.05197500064969063,0.0031624999828636646
1750555356305866500,5.757866455078125,0.0006874999962747097,0.06668750196695328,0.014162499457597733
1750555356315471600,5.7674716796875,-0.006599999964237213,0.05444999784231186,0.012924999929964542
1750555356325076500,5.777076416015625,-0.006599999964237213,0.03492499887943268,0.004399999976158142
1750555356334681600,5.786681640625,-0.005362499970942736,0.012924999929964542,-0.0017874999903142452
1750555356344286700,5.79628662109375,0.0006874999962747097,-0.0005499999970197678,-0.010312499478459358
1750555356353891600,5.8058916015625,0.009212499484419823,0.017737500369548798,-0.01759999990463257
1750555356363496400,5.815496337890625,0.018975000828504562,0.05321250110864639,-0.020075000822544098
1750555356373101600,5.8251015625,0.022687500342726707,0.09102500230073929,-0.014024999924004078
1750555356382706700,5.834706787109375,0.020212499424815178,0.10449999570846558,-0.0017874999903142452
1750555356392311600,5.8443115234375,0.008112499490380287,0.10202500224113464,0.0031624999828636646
1750555356401916700,5.853916748046875,-0.0028874999843537807,0.09102500230073929,0.009212499484419823
1750555356411521800,5.863521728515625,-0.0017874999903142452,0.0789249986410141,0.0031624999828636646
1750555356421127000,5.873126953125,0.006874999962747097,0.06916250288486481,-0.010312499478459358
1750555356430731800,5.882731689453125,0.018975000828504562,0.05816249921917915,-0.031075000762939453
1750555356440337000,5.8923369140625,0.03244999796152115,0.05816249921917915,-0.0518375001847744
1750555356449942000,5.90194189453125,0.03492499887943268,0.04097500070929527,-0.060362499207258224
1750555356459547100,5.911547119140625,0.026399999856948853,0.007974999956786633,-0.060362499207258224
1750555356469152000,5.921152099609375,0.014162499457597733,-0.021312499418854713,-0.05555000156164169
1750555356478756900,5.9307568359375,0.0006874999962747097,-0.031075000762939453,-0.04455000162124634
1750555356488362000,5.940362060546875,-0.005362499970942736,-0.011549999937415123,-0.031075000762939453
1750555356497967000,5.949967041015625,-0.0017874999903142452,0.025162499397993088,-0.02502499893307686
1750555356507572200,5.959572265625,0.009212499484419823,0.06421250104904175,-0.03231250122189522
1750555356517177000,5.969177001953125,0.022687500342726707,0.08621250092983246,-0.04936249926686287
1750555356526782000,5.978781982421875,0.029975000768899918,0.06544999778270721,-0.060362499207258224
1750555356536387000,5.988386962890625,0.031212499365210533,0.03492499887943268,-0.06655000150203705
1750555356545992200,5.9979921875,0.03739999979734421,0.022687500342726707,-0.05555000156164169
1750555356555597000,6.00759716796875,0.04221250116825104,0.010449999943375587,-0.01759999990463257
1750555356565202000,6.017201904296875,0.04468749836087227,-0.007837500423192978,0.018975000828504562
1750555356574807300,6.026807373046875,0.04097500070929527,-0.009074999950826168,0.025162499397993088
1750555356584412200,6.036412109375,0.023924998939037323,-0.0017874999903142452,0.006737499963492155
1750555356594017300,6.046017333984375,0.006874999962747097,0.004399999976158142,-0.020075000822544098
1750555356603622400,6.055622314453125,-0.004124999977648258,0.017737500369548798,-0.04702499881386757
1750555356613227300,6.065227294921875,-0.009074999950826168,0.04221250116825104,-0.06655000150203705
1750555356622832400,6.074832275390625,-0.0028874999843537807,0.06173750013113022,-0.07631249725818634
1750555356632437500,6.0844375,0.010449999943375587,0.07644999772310257,-0.08483749628067017
1750555356642042400,6.09404248046875,0.022687500342726707,0.06792499870061874,-0.09583749622106552
1750555356651647500,6.1036474609375,0.029975000768899918,0.03849999979138374,-0.10312499850988388
1750555356661252600,6.113252685546875,0.022687500342726707,0.005499999970197678,-0.09707500040531158
1750555356670857700,6.122857666015625,0.004399999976158142,-0.031075000762939453,-0.08112499862909317
1750555356680462600,6.132462646484375,-0.012787500396370888,-0.05678749829530716,-0.06159999966621399
1750555356690067500,6.1420673828125,-0.02736249938607216,-0.04936249926686287,-0.045787498354911804
1750555356699672600,6.151672607421875,-0.028599999845027924,-0.02502499893307686,-0.031075000762939453
1750555356709277700,6.161277587890625,-0.013887500390410423,0.004399999976158142,-0.021312499418854713
1750555356718882600,6.170882568359375,0.0031624999828636646,0.03244999796152115,-0.012787500396370888
1750555356728487700,6.18048779296875,0.010449999943375587,0.031212499365210533,-0.010312499478459358
1750555356738092800,6.1900927734375,0.006874999962747097,0.0031624999828636646,-0.020075000822544098
1750555356747697700,6.19969775390625,-0.0005499999970197678,-0.036024998873472214,-0.04207500070333481
1750555356757302800,6.209302734375,-0.004124999977648258,-0.07259999960660934,-0.06888750195503235
1750555356766908000,6.218907958984375,-0.0017874999903142452,-0.09831249713897705,-0.08855000138282776
1750555356776512800,6.2285126953125,0.004399999976158142,-0.10312499850988388,-0.09707500040531158
1750555356786118000,6.238117919921875,0.011687500402331352,-0.09336250275373459,-0.0873124971985817
1750555356795723000,6.247722900390625,0.022687500342726707,-0.07136250287294388,-0.06778749823570251
1750555356805328000,6.257327880859375,0.026399999856948853,-0.028599999845027924,-0.040837500244379044
1750555356814932700,6.2669326171875,0.021449999883770943,0.012924999929964542,-0.006599999964237213
1750555356824537900,6.276537841796875,0.008112499490380287,0.03492499887943268,0.014162499457597733
1750555356834143000,6.28614306640625,-0.0017874999903142452,0.04468749836087227,0.004399999976158142
1750555356843748000,6.295748046875,-0.009074999950826168,0.03368749842047691,-0.02736249938607216
1750555356853353000,6.30535302734375,-0.012787500396370888,0.011687500402331352,-0.06531249731779099
1750555356862958000,6.3149580078125,-0.020075000822544098,-0.009074999950826168,-0.09955000132322311
1750555356872563200,6.324563232421875,-0.035887498408555984,-0.016362499445676804,-0.12636250257492065
1750555356882168300,6.334168212890625,-0.05431250110268593,-0.021312499418854713,-0.15331250429153442
1750555356891773400,6.3437734375,-0.07507500052452087,-0.023787500336766243,-0.17765000462532043
1750555356901378300,6.35337841796875,-0.09212499856948853,-0.0042624999769032,-0.19593749940395355
1750555356910983200,6.362983154296875,-0.11041250079870224,0.021449999883770943,-0.19593749940395355
1750555356920588300,6.37258837890625,-0.1190750002861023,0.06792499870061874,-0.18617500364780426
1750555356930193400,6.382193359375,-0.1190750002861023,0.13997499644756317,-0.133650004863739
1750555356939798300,6.39179833984375,-0.11041250079870224,0.2303124964237213,0.014162499457597733
1750555356949403400,6.4014033203125,-0.09088750183582306,0.295074999332428,0.3573625087738037
1750555356959008500,6.411008544921875,-0.06888750195503235,0.2718375027179718,0.9425625205039978
1750555356968613400,6.42061328125,-0.04688749834895134,0.3293125033378601,1.7562874555587769
1750555356978218200,6.43021826171875,-0.0835999995470047,0.3965499997138977,2.7409250736236572
1750555356987823600,6.43982373046875,-0.10064999759197235,0.49912500381469727,3.6596999168395996
1750555356997428500,6.449428466796875,-0.03712499886751175,0.5394124984741211,4.400000095367432
1750555357007033300,6.459033447265625,0.009212499484419823,0.40878748893737793,4.9021501541137695
1750555357016638500,6.468638427734375,0.14973749220371246,0.38183748722076416,5.168487548828125
1750555357026243600,6.47824365234375,0.2952125072479248,0.19497500360012054,5.366487503051758
1750555357035848400,6.487848388671875,0.3195500075817108,0.10326249897480011,5.492300033569336
1750555357045453600,6.49745361328125,0.23649999499320984,0.16554999351501465,5.52887487411499
1750555357055058700,6.50705859375,0.12526249885559082,0.05926249921321869,5.384775161743164
1750555357064663600,6.51666357421875,0.10449999570846558,-0.09336250275373459,4.935150146484375
1750555357074268700,6.5262685546875,0.14973749220371246,-0.20707499980926514,4.147137641906738
1750555357083873800,6.535873779296875,0.18645000457763672,-0.335224986076355,3.142975091934204
1750555357093478700,6.545478759765625,0.2120250016450882,-0.5467000007629395,2.134962558746338
1750555357103083800,6.555083740234375,0.19744999706745148,-0.7726125121116638,1.287137508392334
1750555357112689000,6.56468896484375,0.16073749959468842,-0.9193249940872192,0.6934124827384949
1750555357122294000,6.5742939453125,0.148499995470047,-0.9400874972343445,0.35983750224113464
1750555357131899000,6.58389892578125,0.18645000457763672,-0.9094250202178955,0.19497500360012054
1750555357141503700,6.593503662109375,0.24021250009536743,-0.84232497215271,0.1264999955892563
1750555357151109000,6.603109130859375,0.25244998931884766,-0.8325625061988831,0.09116250276565552
1750555357160714000,6.6127138671875,0.2120250016450882,-0.8410875201225281,0.016637500375509262
1750555357170318800,6.62231884765625,0.14973749220371246,-0.7726125121116638,-0.12759999930858612
1750555357179924200,6.63192431640625,0.10573749989271164,-0.5698000192642212,-0.35846251249313354
1750555357189529000,6.641529052734375,0.10944999754428864,-0.2644124925136566,-0.6908000111579895
1750555357199134000,6.651134033203125,0.12526249885559082,0.016499999910593033,-1.1537624597549438
1750555357208739000,6.660739013671875,0.13516250252723694,0.15097500383853912,-1.6876749992370605
1750555357218344200,6.67034423828125,0.12168750166893005,0.13750000298023224,-2.1923000812530518
1750555357227949000,6.679948974609375,0.05692499876022339,0.06421250104904175,-2.611262559890747
1750555357237554200,6.68955419921875,-0.011549999937415123,0.04221250116825104,-2.988837480545044
1750555357247159300,6.6991591796875,-0.057887498289346695,0.05692499876022339,-3.3406999111175537
1750555357256764200,6.70876416015625,-0.07136250287294388,-0.005362499970942736,-3.648562431335449
1750555357266369300,6.718369384765625,-0.05555000156164169,-0.06655000150203705,-3.9417123794555664
1750555357275974400,6.727974365234375,-0.0017874999903142452,-0.04331250116229057,-4.236237525939941
1750555357285579300,6.737579345703125,0.06792499870061874,0.11921250075101852,-4.49762487411499
1750555357295184100,6.74718408203125,0.10944999754428864,0.21697500348091125,-4.6076250076293945
1750555357304789500,6.75678955078125,0.13997499644756317,0.1765500009059906,-4.487862586975098
1750555357314394400,6.766394287109375,0.16568750143051147,-0.0017874999903142452,-4.088425159454346
1750555357323999500,6.77599951171875,0.19373749196529388,-0.21312500536441803,-3.4604625701904297
1750555357333604600,6.7856044921875,0.26221248507499695,-0.319412499666214,-2.7249748706817627
1750555357343209500,6.79520947265625,0.31349998712539673,-0.3059374988079071,-1.9943000078201294
1750555357352814300,6.804814453125,0.30607500672340393,-0.11288750171661377,-1.3114750385284424
1750555357362419500,6.81441943359375,0.23045000433921814,0.1350249946117401,-0.6382749676704407
1750555357372024600,6.824024658203125,0.13626250624656677,0.45512500405311584,-0.07012499868869781
1750555357381629700,6.833629638671875,0.05073750019073486,0.8607500195503235,0.2890250086784363
1750555357391234600,6.843234619140625,-0.015124999918043613,1.1160874366760254,0.4283125102519989
1750555357400839700,6.852839599609375,-0.04688749834895134,1.0905125141143799,0.3793624937534332
1750555357410444500,6.862444580078125,-0.0518375001847744,0.8339374661445618,0.20102499425411224
1750555357420049700,6.872049560546875,-0.06283749639987946,0.414837509393692,-0.006599999964237213
1750555357429654500,6.881654541015625,-0.06888750195503235,-0.04936249926686287,-0.16183750331401825
1750555357439260000,6.891260009765625,-0.050599999725818634,-0.3889875113964081,-0.23512500524520874
1750555357448864800,6.90086474609375,-0.011549999937415123,-0.5735124945640564,-0.23759999871253967
1750555357458469600,6.9104697265625,0.022687500342726707,-0.5869874954223633,-0.19483749568462372
1750555357468074800,6.92007470703125,0.028875000774860382,-0.4721750020980835,-0.14231249690055847
1750555357477679900,6.929679931640625,0.006874999962747097,-0.25712499022483826,-0.09707500040531158
1750555357487284700,6.93928466796875,-0.04331250116229057,-0.009074999950826168,-0.048124998807907104
1750555357496889900,6.948889892578125,-0.09336250275373459,0.20350000262260437,0.025162499397993088
1750555357506494700,6.95849462890625,-0.12388750165700912,0.3097875118255615,0.11302500218153
1750555357516099800,6.968099853515625,-0.13007499277591705,0.29260000586509705,0.18150000274181366
1750555357525705000,6.977705078125,-0.11783749610185623,0.21078750491142273,0.19978749752044678
1750555357535310000,6.98731005859375,-0.10188750177621841,0.0812624990940094,0.1704999953508377
1750555357544915000,6.9969150390625,-0.08841250091791153,-0.050599999725818634,0.11192499846220016
1750555357554519800,7.006519775390625,-0.08841250091791153,-0.14959999918937683,0.06297499686479568
1750555357564125200,7.016125244140625,-0.089649997651577,-0.15441249310970306,0.04097500070929527
1750555357573730000,7.02572998046875,-0.0873124971985817,-0.07012499868869781,0.05197500064969063
1750555357583335000,7.0353349609375,-0.07864999771118164,0.03849999979138374,0.08868750184774399
1750555357592940000,7.04493994140625,-0.06641250103712082,0.1387374997138977,0.13626250624656677
1750555357602545200,7.054545166015625,-0.060362499207258224,0.2083124965429306,0.19126249849796295
1750555357612150000,7.06414990234375,-0.05664999783039093,0.2059749960899353,0.23154999315738678
1750555357621755100,7.073755126953125,-0.045649997889995575,0.14121249318122864,0.23154999315738678
1750555357631360300,7.0833603515625,-0.021312499418854713,0.043449997901916504,0.19002500176429749
1750555357640965000,7.092965087890625,0.004399999976158142,-0.06283749639987946,0.11797499656677246
1750555357650570000,7.102570068359375,0.018975000828504562,-0.13255000114440918,0.03973750025033951
1750555357660175400,7.11217529296875,0.020212499424815178,-0.15565000474452972,-0.009074999950826168
1750555357669780200,7.1217802734375,0.017875000834465027,-0.11659999936819077,-0.031075000762939453
1750555357679385000,7.131385009765625,0.014162499457597733,-0.022549999877810478,-0.03355000168085098
1750555357688990200,7.140990234375,0.0019249999895691872,0.06421250104904175,-0.018837500363588333
1750555357698595300,7.15059521484375,-0.009074999950826168,0.1289750039577484,-0.006599999964237213
1750555357708200200,7.1602001953125,-0.010312499478459358,0.148499995470047,0.011687500402331352
1750555357717805300,7.169805419921875,-0.004124999977648258,0.11921250075101852,0.03849999979138374
1750555357727410400,7.179410400390625,-0.007837500423192978,0.06297499686479568,0.05444999784231186
1750555357737015300,7.189015380859375,-0.016362499445676804,-0.0042624999769032,0.05197500064969063
1750555357746620400,7.198620361328125,-0.013887500390410423,-0.05555000156164169,0.026399999856948853
1750555357756225500,7.2082255859375,-0.010312499478459358,-0.07507500052452087,-0.015124999918043613
1750555357765830400,7.217830322265625,-0.0028874999843537807,-0.040837500244379044,-0.053075000643730164
1750555357775435500,7.227435546875,0.006874999962747097,0.022687500342726707,-0.06888750195503235
1750555357785040600,7.23704052734375,0.023924998939037323,0.0812624990940094,-0.06407500058412552
1750555357794645500,7.2466455078125,0.03863750025629997,0.09844999760389328,-0.05431250110268593
1750555357804250600,7.256250732421875,0.04592499881982803,0.07397499680519104,-0.057887498289346695
1750555357813855500,7.26585546875,0.03739999979734421,0.021449999883770943,-0.06283749639987946
1750555357823460600,7.275460693359375,0.021449999883770943,-0.03478749841451645,-0.06531249731779099
1750555357833065700,7.285065673828125,-0.0017874999903142452,-0.08112499862909317,-0.04455000162124634
1750555357842670600,7.294670654296875,-0.015124999918043613,-0.08236250281333923,-0.0030249999836087227
1750555357852275700,7.304275634765625,-0.011549999937415123,-0.053075000643730164,0.03739999979734421
1750555357861880600,7.313880615234375,-0.0017874999903142452,0.0006874999962747097,0.05692499876022339
1750555357871485700,7.323485595703125,0.008112499490380287,0.06297499686479568,0.05444999784231186
1750555357881090800,7.3330908203125,0.018975000828504562,0.1069749966263771,0.03492499887943268
1750555357890695700,7.34269580078125,0.023924998939037323,0.1069749966263771,0.0056374999694526196
1750555357900300800,7.35230078125,0.021449999883770943,0.0812624990940094,-0.02502499893307686
1750555357909905700,7.36190576171875,0.017875000834465027,0.043449997901916504,-0.036024998873472214
1750555357919510800,7.3715107421875,0.025162499397993088,-0.007837500423192978,-0.02502499893307686
1750555357929116000,7.381115966796875,0.03368749842047691,-0.0518375001847744,0.0019249999895691872
1750555357938720800,7.390720703125,0.043449997901916504,-0.07136250287294388,0.029975000768899918
1750555357948325600,7.40032568359375,0.04963750019669533,-0.07012499868869781,0.043449997901916504
1750555357957931000,7.409930908203125,0.04468749836087227,-0.05555000156164169,0.03973750025033951
1750555357967535900,7.419535888671875,0.04221250116825104,-0.036024998873472214,0.026399999856948853
1750555357977140700,7.429140625,0.04097500070929527,-0.007837500423192978,0.014162499457597733
1750555357986746000,7.43874609375,0.04097500070929527,0.023924998939037323,0.009212499484419823
1750555357996351000,7.44835107421875,0.03368749842047691,0.05926249921321869,0.0056374999694526196
1750555358005955800,7.457955810546875,0.026399999856948853,0.0752125009894371,0.0031624999828636646
1750555358015561000,7.46756103515625,0.018975000828504562,0.04592499881982803,-0.005362499970942736
1750555358025166000,7.477166015625,0.006874999962747097,-0.014024999924004078,-0.021312499418854713
1750555358034771000,7.48677099609375,-0.0005499999970197678,-0.07136250287294388,-0.03231250122189522
1750555358044376000,7.4963759765625,-0.006599999964237213,-0.09212499856948853,-0.03355000168085098
1750555358053981200,7.505981201171875,-0.006599999964237213,-0.07507500052452087,-0.022549999877810478
1750555358063586000,7.5155859375,-0.006599999964237213,-0.036024998873472214,-0.007837500423192978
1750555358073191000,7.52519091796875,-0.006599999964237213,0.014162499457597733,0.0056374999694526196
1750555358082796300,7.53479638671875,-0.010312499478459358,0.060499999672174454,0.021449999883770943
1750555358092401200,7.544401123046875,-0.009074999950826168,0.0789249986410141,0.025162499397993088
1750555358102006000,7.554006103515625,-0.010312499478459358,0.07644999772310257,0.015399999916553497
1750555358111611100,7.563611083984375,-0.007837500423192978,0.043449997901916504,-0.0017874999903142452
1750555358121216300,7.57321630859375,0.0031624999828636646,0.0031624999828636646,-0.036024998873472214
1750555358130821000,7.582821044921875,0.011687500402331352,-0.023787500336766243,-0.0798875018954277
1750555358140426200,7.59242626953125,0.017875000834465027,-0.05678749829530716,-0.1116499975323677
1750555358150031400,7.60203125,0.025162499397993088,-0.08112499862909317,-0.1313125044107437
1750555358159636200,7.61163623046875,0.026399999856948853,-0.09583749622106552,-0.1313125044107437
1750555358169241000,7.621240966796875,0.023924998939037323,-0.07136250287294388,-0.1116499975323677
1750555358178846500,7.630846435546875,0.015399999916553497,-0.038362499326467514,-0.0775500014424324
1750555358188451300,7.640451416015625,0.004399999976158142,-0.0042624999769032,-0.0518375001847744
1750555358198056200,7.65005615234375,-0.005362499970942736,0.03973750025033951,-0.03712499886751175
1750555358207661300,7.659661376953125,-0.015124999918043613,0.06668750196695328,-0.03355000168085098
1750555358217266400,7.669266357421875,-0.011549999937415123,0.06544999778270721,-0.040837500244379044
1750555358226871600,7.67887158203125,-0.010312499478459358,0.03244999796152115,-0.057887498289346695
1750555358236476400,7.688476318359375,-0.011549999937415123,-0.015262499451637268,-0.07631249725818634
1750555358246081500,7.69808154296875,-0.013887500390410423,-0.0518375001847744,-0.0835999995470047
1750555358255686400,7.707686279296875,-0.015124999918043613,-0.0775500014424324,-0.07631249725818634
1750555358265291500,7.71729150390625,-0.01759999990463257,-0.07012499868869781,-0.0518375001847744
1750555358274896600,7.726896728515625,-0.023787500336766243,-0.023787500336766243,-0.015124999918043613
1750555358284501500,7.73650146484375,-0.031075000762939453,0.028737500309944153,0.018975000828504562
1750555358294106400,7.7461064453125,-0.035887498408555984,0.07150000333786011,0.03973750025033951
1750555358303711500,7.75571142578125,-0.038362499326467514,0.0812624990940094,0.04221250116825104
1750555358313316400,7.76531640625,-0.03231250122189522,0.07026249915361404,0.03368749842047691
1750555358322921500,7.77492138671875,-0.007837500423192978,0.0471624992787838,0.014162499457597733
1750555358332526600,7.784526611328125,0.022687500342726707,0.015399999916553497,0.0006874999962747097
1750555358342131700,7.794131591796875,0.05197500064969063,-0.02502499893307686,-0.007837500423192978
1750555358351736800,7.80373681640625,0.06544999778270721,-0.04455000162124634,-0.01759999990463257
1750555358361341700,7.813341796875,0.06668750196695328,-0.040837500244379044,-0.031075000762939453
1750555358370946800,7.82294677734375,0.05816249921917915,-0.016362499445676804,-0.04207500070333481
1750555358380551700,7.8325517578125,0.04468749836087227,0.022687500342726707,-0.04331250116229057
1750555358390156800,7.84215673828125,0.03492499887943268,0.07768750190734863,-0.040837500244379044
1750555358399761700,7.85176171875,0.029975000768899918,0.12526249885559082,-0.031075000762939453
1750555358409366500,7.861366455078125,0.021449999883770943,0.148499995470047,-0.010312499478459358
1750555358418971600,7.8709716796875,0.017875000834465027,0.148499995470047,0.012924999929964542
1750555358428576800,7.88057666015625,0.020212499424815178,0.10326249897480011,0.021449999883770943
1750555358438182000,7.890181884765625,0.025162499397993088,0.03492499887943268,0.010449999943375587
1750555358447786800,7.899786865234375,0.028875000774860382,-0.026262499392032623,-0.022549999877810478
1750555358457391900,7.909391845703125,0.026399999856948853,-0.06407500058412552,-0.06159999966621399
1750555358466996700,7.918996826171875,0.023924998939037323,-0.06531249731779099,-0.09336250275373459
1750555358476601600,7.9286015625,0.018975000828504562,-0.03355000168085098,-0.10559999942779541
1750555358486207000,7.93820703125,0.014162499457597733,0.015399999916553497,-0.09459999948740005
1750555358495811800,7.947811767578125,0.012924999929964542,0.05816249921917915,-0.07383749634027481
1750555358505417000,7.9574169921875,0.016637500375509262,0.06916250288486481,-0.05678749829530716
1750555358515021800,7.967021728515625,0.025162499397993088,0.0471624992787838,-0.045787498354911804
1750555358524627000,7.976626953125,0.03616249933838844,-0.007837500423192978,-0.04207500070333481
1750555358534231800,7.986231689453125,0.03739999979734421,-0.045787498354911804,-0.04936249926686287
1750555358543837000,7.9958369140625,0.025162499397993088,-0.05431250110268593,-0.060362499207258224
1750555358553442000,8.005442138671874,0.014162499457597733,-0.03478749841451645,-0.05678749829530716
1750555358563047000,8.015046875,0.0056374999694526196,0.0031624999828636646,-0.03478749841451645
1750555358572651800,8.02465185546875,0.004399999976158142,0.0494999997317791,-0.011549999937415123
1750555358582257000,8.0342568359375,0.011687500402331352,0.05692499876022339,-0.0030249999836087227
1750555358591862000,8.043862060546875,0.017875000834465027,0.012924999929964542,-0.01759999990463257
1750555358601467100,8.053467041015624,0.018975000828504562,-0.04936249926686287,-0.045787498354911804
1750555358611072300,8.063072265625,0.016637500375509262,-0.10312499850988388,-0.05678749829530716
1750555358620677000,8.072677001953124,0.010449999943375587,-0.13859999179840088,-0.03712499886751175
1750555358630282000,8.082281982421875,0.009212499484419823,-0.13859999179840088,0.0019249999895691872
1750555358639887400,8.091887451171875,0.009212499484419823,-0.10078749805688858,0.05321250110864639
1750555358649492000,8.101491943359376,0.009212499484419823,-0.04331250116229057,0.09968750178813934
1750555358659097000,8.11109716796875,0.0031624999828636646,0.005499999970197678,0.12402500212192535
1750555358668702200,8.1207021484375,-0.0017874999903142452,0.0471624992787838,0.12402500212192535
1750555358678307000,8.13030712890625,-0.006599999964237213,0.09102500230073929,0.09597499668598175
1750555358687912200,8.139912109375,-0.01759999990463257,0.11426249891519547,0.04839999973773956
1750555358697517000,8.14951708984375,-0.028599999845027924,0.116737499833107,0.004399999976158142
1750555358707122200,8.1591220703125,-0.028599999845027924,0.07644999772310257,-0.026124998927116394
1750555358716727300,8.168727294921876,-0.022549999877810478,0.023924998939037323,-0.05678749829530716
1750555358726332200,8.178332275390625,-0.009074999950826168,-0.026262499392032623,-0.0835999995470047
1750555358735937300,8.187937255859374,0.009212499484419823,-0.0873124971985817,-0.10064999759197235
1750555358745542400,8.19754248046875,0.023924998939037323,-0.12155000120401382,-0.1190750002861023
1750555358755147300,8.207147216796875,0.027637500315904617,-0.10078749805688858,-0.1214125007390976
1750555358764752100,8.216752197265626,0.017875000834465027,-0.03959999978542328,-0.10188750177621841
1750555358774357200,8.226357177734375,0.006874999962747097,0.03616249933838844,-0.06778749823570251
1750555358783962400,8.23596240234375,-0.0028874999843537807,0.08373750001192093,-0.03959999978542328
1750555358793567200,8.245567138671875,-0.006599999964237213,0.09226249903440475,-0.036024998873472214
1750555358803172400,8.25517236328125,-0.005362499970942736,0.06173750013113022,-0.0518375001847744
1750555358812777200,8.264777099609375,-0.0028874999843537807,0.027499999850988388,-0.07631249725818634
1750555358822382300,8.27438232421875,-0.009074999950826168,0.007974999956786633,-0.0835999995470047
1750555358831987200,8.2839873046875,-0.007837500423192978,-0.02502499893307686,-0.06531249731779099
1750555358841592300,8.29359228515625,-0.009074999950826168,-0.06283749639987946,-0.04331250116229057
1750555358851197400,8.303197509765624,-0.015124999918043613,-0.08236250281333923,-0.031075000762939453
1750555358860802300,8.31280224609375,-0.020075000822544098,-0.09831249713897705,-0.028599999845027924
1750555358870407400,8.322407470703125,-0.021312499418854713,-0.09583749622106552,-0.02983750030398369
1750555358880012500,8.332012451171876,-0.023787500336766243,-0.06778749823570251,-0.021312499418854713
1750555358889617400,8.341617431640625,-0.023787500336766243,-0.02502499893307686,-0.007837500423192978
1750555358899222500,8.351222412109376,-0.021312499418854713,0.023924998939037323,0.0056374999694526196
1750555358908827400,8.360827392578125,-0.02983750030398369,0.03849999979138374,0.020212499424815178
1750555358918432500,8.3704326171875,-0.04207500070333481,0.025162499397993088,0.023924998939037323
1750555358928037400,8.380037353515625,-0.05555000156164169,0.0019249999895691872,-0.0030249999836087227
1750555358937642500,8.389642578125,-0.06764999777078629,-0.020075000822544098,-0.050599999725818634
1750555358947247400,8.399247314453126,-0.09459999948740005,-0.021312499418854713,-0.0835999995470047
1750555358956852500,8.4088525390625,-0.12017499655485153,0.029975000768899918,-0.09707500040531158
1750555358966457600,8.41845751953125,-0.14959999918937683,0.1522125005722046,-0.07383749634027481
1750555358976062500,8.4280625,-0.17765000462532043,0.31831249594688416,0.010449999943375587
1750555358985667300,8.437667236328124,-0.14217500388622284,0.5491750240325928,0.21931250393390656
1750555358995272400,8.4472724609375,-0.08112499862909317,0.7031750082969666,0.675125002861023
1750555359004877600,8.456877685546875,0.004399999976158142,0.8974624872207642,1.2883750200271606
1750555359014482400,8.466482421875,0.07273750007152557,1.1356124877929688,2.125200033187866
1750555359024087600,8.476087646484375,0.04097500070929527,1.1820875406265259,3.2345499992370605
1750555359033692700,8.485692626953124,0.07397499680519104,1.2321374416351318,4.324375152587891
1750555359043297500,8.495297607421875,0.164450004696846,0.990274965763092,5.219775199890137
1750555359052902700,8.504902587890625,0.19497500360012054,0.43683749437332153,5.758637428283691
1750555359062507500,8.514507568359376,0.1742125004529953,-0.11412499845027924,5.924737453460693
1750555359072112600,8.524112548828125,0.06792499870061874,-0.7518500089645386,5.812399864196777
1750555359081717800,8.5337177734375,-0.015124999918043613,-1.1807124614715576,5.465350151062012
1750555359091322600,8.543322509765625,0.008112499490380287,-1.3688124418258667,4.973100185394287
1750555359100927700,8.552927734375,0.06916250288486481,-1.3993375301361084,4.337712287902832
1750555359110532600,8.56253271484375,0.19868749380111694,-1.2247124910354614,3.566887378692627
1750555359120137700,8.5721376953125,0.279262512922287,-1.108662486076355,2.7923500537872314
1750555359129742600,8.58174267578125,0.28421249985694885,-1.1672375202178955,2.0604374408721924
1750555359139347700,8.59134765625,0.26826250553131104,-1.1844249963760376,1.4203749895095825
1750555359148952800,8.600952880859374,0.227974995970726,-1.1624250411987305,0.9622250199317932
1750555359158557700,8.6105576171875,0.20102499425411224,-1.0451375246047974,0.6921749711036682
1750555359168162600,8.62016259765625,0.164450004696846,-0.8373749852180481,0.5590749979019165
1750555359177767700,8.629767578125,0.10339999943971634,-0.632224977016449,0.48083749413490295
1750555359187372800,8.639372802734375,0.022687500342726707,-0.4721750020980835,0.40136250853538513
1750555359196977700,8.648977783203126,-0.08112499862909317,-0.37798750400543213,0.29878750443458557
1750555359206582800,8.658582763671875,-0.20212499797344208,-0.3279374837875366,0.1667875051498413
1750555359216187600,8.668187744140624,-0.29864999651908875,-0.2595999836921692,0.016637500375509262
1750555359225792800,8.677792724609375,-0.3279374837875366,-0.141075000166893,-0.172837495803833
1750555359235397600,8.687397705078125,-0.2924624979496002,0.04592499881982803,-0.4512749910354614
1750555359245002800,8.697002685546876,-0.2264624983072281,0.21326249837875366,-0.7958499789237976
1750555359254608000,8.70660791015625,-0.13241249322891235,0.29631251096725464,-1.1844249963760376
1750555359264212700,8.716212646484376,-0.022549999877810478,0.3097875118255615,-1.5911500453948975
1750555359273817900,8.72581787109375,0.06544999778270721,0.24997499585151672,-1.9845374822616577
1750555359283422700,8.735422607421874,0.09721250087022781,0.16197499632835388,-2.3803999423980713
1750555359293027800,8.74502783203125,0.07163749635219574,0.029975000768899918,-2.7945499420166016
1750555359302632700,8.7546328125,0.03987500071525574,-0.06407500058412552,-3.2026500701904297
1750555359312238000,8.764238037109376,-0.0028874999843537807,-0.03478749841451645,-3.5825624465942383
1750555359321843000,8.773843017578125,-0.03231250122189522,0.05926249921321869,-3.9088499546051025
1750555359331448000,8.783447998046874,-0.04207500070333481,0.1802625060081482,-4.2129998207092285
1750555359341053000,8.793052978515625,-0.028599999845027924,0.3880249857902527,-4.5245747566223145
1750555359350657800,8.80265771484375,-0.04936249926686287,0.5248374938964844,-4.831200122833252
1750555359360263000,8.812262939453126,-0.038362499326467514,0.6421250104904175,-5.046249866485596
1750555359369868000,8.821867919921875,-0.004124999977648258,0.6213625073432922,-5.040062427520752
1750555359379472600,8.83147265625,0.06421250104904175,0.5088874697685242,-4.693150043487549
1750555359389078000,8.841078125,0.164450004696846,0.4185499846935272,-3.951474905014038
1750555359398683000,8.850682861328124,0.2560249865055084,0.3940750062465668,-2.905787467956543
1750555359408287700,8.860287841796875,0.2657875120639801,0.41731250286102295,-1.7756749391555786
1750555359417892900,8.869892822265625,0.17544999718666077,0.5284125208854675,-0.8166124820709229
1750555359427497700,8.879497802734376,0.04963750019669533,0.6897000074386597,-0.19112500548362732
1750555359437102800,8.889102783203125,-0.09088750183582306,0.8595125079154968,0.08016250282526016
1750555359446708000,8.8987080078125,-0.19965000450611115,0.9780374765396118,0.05692499876022339
1750555359456312800,8.908312744140625,-0.2241249978542328,0.946274995803833,-0.14464999735355377
1750555359465918000,8.91791796875,-0.19470000267028809,0.7519875168800354,-0.40246251225471497
1750555359475522800,8.927522705078125,-0.12388750165700912,0.4246000051498413,-0.6235625147819519
1750555359485128000,8.9371279296875,-0.01759999990463257,0.029975000768899918,-0.7165125012397766
1750555359494732800,8.94673291015625,0.08373750001192093,-0.35241249203681946,-0.6773250102996826
1750555359504337700,8.956337646484375,0.15950000286102295,-0.5698000192642212,-0.5612750053405762
1750555359513943000,8.965943115234374,0.17902499437332153,-0.593037486076355,-0.382937490940094
1750555359523548000,8.9755478515625,0.14121249318122864,-0.4624125063419342,-0.19359999895095825
1750555359533153000,8.985153076171875,0.07273750007152557,-0.2424124926328659,-0.03231250122189522
1750555359542758100,8.994758056640626,-0.0028874999843537807,-0.0005499999970197678,0.09116250276565552
1750555359552363000,9.004363037109375,-0.06407500058412552,0.20102499425411224,0.17902499437332153
1750555359561967900,9.0139677734375,-0.09583749622106552,0.31831249594688416,0.2535499930381775
1750555359571573000,9.023572998046875,-0.11041250079870224,0.36602500081062317,0.30855000019073486
1750555359581178000,9.03317822265625,-0.1116499975323677,0.3110249936580658,0.3293125033378601
1750555359590783000,9.042782958984375,-0.1116499975323677,0.1863124966621399,0.31459999084472656
1750555359600387800,9.052387939453125,-0.11659999936819077,0.05444999784231186,0.2657875120639801
1750555359609993000,9.061992919921876,-0.11288750171661377,-0.06778749823570251,0.19978749752044678
1750555359619598000,9.07159814453125,-0.10559999942779541,-0.15441249310970306,0.1387374997138977
1750555359629203000,9.081202880859376,-0.09583749622106552,-0.18507499992847443,0.08621250092983246
1750555359638808000,9.09080810546875,-0.07741250097751617,-0.14588749408721924,0.0494999997317791
1750555359648413000,9.100412841796874,-0.057887498289346695,-0.06531249731779099,0.04468749836087227
1750555359658018000,9.11001806640625,-0.038362499326467514,0.017737500369548798,0.05197500064969063
1750555359667623000,9.119622802734375,-0.01759999990463257,0.07150000333786011,0.05321250110864639
1750555359677227800,9.129227783203126,-0.004124999977648258,0.06792499870061874,0.05692499876022339
1750555359686833200,9.138833251953125,0.0056374999694526196,0.016499999910593033,0.05816249921917915
1750555359696438000,9.14843798828125,0.0031624999828636646,-0.04331250116229057,0.06792499870061874
1750555359706043000,9.15804296875,-0.005362499970942736,-0.09088750183582306,0.07768750190734863
1750555359715648000,9.16764794921875,-0.0005499999970197678,-0.11659999936819077,0.0789249986410141
1750555359725253000,9.177253173828126,0.010449999943375587,-0.10559999942779541,0.06668750196695328
1750555359734858000,9.18685791015625,0.008112499490380287,-0.05555000156164169,0.03739999979734421
1750555359744462800,9.196462890625,0.0031624999828636646,-0.009074999950826168,0.006737499963492155
1750555359754068200,9.206068115234375,-0.004124999977648258,0.017737500369548798,-0.022549999877810478
1750555359763673000,9.215673095703124,-0.005362499970942736,0.03849999979138374,-0.03712499886751175
1750555359773278000,9.22527783203125,0.004399999976158142,0.04097500070929527,-0.022549999877810478
1750555359782883000,9.234883056640625,0.015399999916553497,0.03849999979138374,0.0056374999694526196
1750555359792488000,9.244488037109376,0.020212499424815178,0.03973750025033951,0.03492499887943268
1750555359802093000,9.254093017578125,0.016637500375509262,0.03973750025033951,0.05197500064969063
1750555359811698200,9.2636982421875,0.015399999916553497,0.029975000768899918,0.0471624992787838
1750555359821303300,9.27330322265625,0.016637500375509262,0.007974999956786633,0.016637500375509262
1750555359830908200,9.282908203125,0.018975000828504562,-0.006599999964237213,-0.026124998927116394
1750555359840513000,9.292512939453125,0.018975000828504562,-0.011549999937415123,-0.06531249731779099
1750555359850118100,9.3021181640625,0.025162499397993088,-0.011549999937415123,-0.09088750183582306
1750555359859723300,9.31172314453125,0.03616249933838844,-0.0017874999903142452,-0.10188750177621841
1750555359869328100,9.321328125,0.05073750019073486,0.011687500402331352,-0.0873124971985817
1750555359878933200,9.330933349609374,0.07644999772310257,0.007974999956786633,-0.057887498289346695
1750555359888538000,9.3405380859375,0.08992499858140945,0.0031624999828636646,-0.023787500336766243
1750555359898143000,9.35014306640625,0.08139999955892563,0.018975000828504562,0.014162499457597733
1750555359907748000,9.359748046875,0.055687498301267624,0.06544999778270721,0.05816249921917915
1750555359917353200,9.369353271484375,0.031212499365210533,0.1326874941587448,0.09116250276565552
1750555359926958000,9.3789580078125,0.017875000834465027,0.16802500188350677,0.09473749995231628
1750555359936563200,9.388563232421875,0.014162499457597733,0.164450004696846,0.05816249921917915
1750555359946168000,9.39816796875,0.015399999916553497,0.12168750166893005,-0.007837500423192978
1750555359955773200,9.407773193359375,0.012924999929964542,0.06668750196695328,-0.08112499862909317
1750555359965378000,9.4173779296875,0.016637500375509262,0.0031624999828636646,-0.1288374960422516
1750555359974983200,9.426983154296876,0.020212499424815178,-0.07136250287294388,-0.1313125044107437
1750555359984588300,9.43658837890625,0.020212499424815178,-0.09459999948740005,-0.10064999759197235
1750555359994193200,9.446193115234376,0.015399999916553497,-0.058024998754262924,-0.05431250110268593
1750555360003798000,9.455798095703125,0.011687500402331352,0.0031624999828636646,-0.005362499970942736
1750555360013403100,9.465403076171874,0.016637500375509262,0.07273750007152557,0.029975000768899918
1750555360023008300,9.47500830078125,0.021449999883770943,0.12278749793767929,0.04097500070929527
1750555360032613000,9.484613037109375,0.020212499424815178,0.1326874941587448,0.026399999856948853
1750555360042218200,9.49421826171875,0.020212499424815178,0.11178749799728394,-0.0042624999769032
1750555360051823400,9.5038232421875,0.03368749842047691,0.048262499272823334,-0.04331250116229057
1750555360061428200,9.51342822265625,0.05321250110864639,-0.031075000762939453,-0.089649997651577
1750555360071033000,9.523033203125,0.06297499686479568,-0.09955000132322311,-0.1313125044107437
1750555360080638200,9.53263818359375,0.06916250288486481,-0.14464999735355377,-0.14836250245571136
1750555360090243300,9.542243408203126,0.06421250104904175,-0.14231249690055847,-0.13241249322891235
1750555360099848200,9.55184814453125,0.05321250110864639,-0.09212499856948853,-0.08236250281333923
1750555360109453000,9.561453125,0.03616249933838844,-0.014024999924004078,-0.01759999990463257
1750555360119058200,9.57105810546875,0.011687500402331352,0.06916250288486481,0.04468749836087227
1750555360128663000,9.5806630859375,-0.006599999964237213,0.1350249946117401,0.0849749967455864
1750555360138268200,9.59026806640625,-0.015124999918043613,0.14973749220371246,0.09844999760389328
1750555360147873000,9.599873046875,-0.016362499445676804,0.10944999754428864,0.08249999582767487
1750555360157478100,9.60947802734375,-0.010312499478459358,0.043449997901916504,0.03849999979138374
1750555360167083000,9.6190830078125,0.008112499490380287,-0.036024998873472214,-0.014024999924004078
1750555360176688000,9.628688232421876,0.016637500375509262,-0.09831249713897705,-0.060362499207258224
1750555360186293200,9.638293212890625,0.017875000834465027,-0.133650004863739,-0.0835999995470047
1750555360195898400,9.6478984375,0.017875000834465027,-0.14836250245571136,-0.0835999995470047
1750555360205503200,9.657503173828125,0.011687500402331352,-0.133650004863739,-0.07259999960660934
1750555360215108000,9.667108154296875,0.0006874999962747097,-0.08978749811649323,-0.040837500244379044
1750555360224713200,9.676713134765626,-0.013887500390410423,-0.036024998873472214,-0.0017874999903142452
1750555360234318000,9.686318115234375,-0.02736249938607216,0.025162499397993088,0.026399999856948853
1750555360243923200,9.695923095703124,-0.035887498408555984,0.06792499870061874,0.04468749836087227
1750555360253528300,9.7055283203125,-0.035887498408555984,0.0752125009894371,0.05197500064969063
1750555360263133200,9.71513330078125,-0.02736249938607216,0.05321250110864639,0.04592499881982803
1750555360272738000,9.724738037109375,-0.016362499445676804,0.020212499424815178,0.025162499397993088
1750555360282343200,9.73434326171875,0.0006874999962747097,-0.026262499392032623,-0.005362499970942736
1750555360291948300,9.7439482421875,0.012924999929964542,-0.06531249731779099,-0.03231250122189522
1750555360301553200,9.75355322265625,0.017875000834465027,-0.10436250269412994,-0.045787498354911804
1750555360311158300,9.763158203125,0.020212499424815178,-0.11288750171661377,-0.04207500070333481
1750555360320763100,9.77276318359375,0.017875000834465027,-0.09336250275373459,-0.018837500363588333
1750555360330368000,9.782367919921874,0.011687500402331352,-0.038362499326467514,0.018975000828504562
1750555360339973000,9.79197314453125,0.011687500402331352,0.03616249933838844,0.05692499876022339
1750555360349578200,9.801578125,0.011687500402331352,0.08868750184774399,0.08621250092983246
1750555360359183400,9.811183349609376,0.010449999943375587,0.10326249897480011,0.09721250087022781
1750555360368788200,9.820788330078125,0.011687500402331352,0.08868750184774399,0.08249999582767487
1750555360378393000,9.83039306640625,0.012924999929964542,0.055687498301267624,0.0471624992787838
1750555360387998200,9.839998291015625,0.012924999929964542,0.006737499963492155,-0.0005499999970197678
1750555360397603000,9.84960302734375,0.008112499490380287,-0.045787498354911804,-0.045787498354911804
1750555360407208200,9.859208251953126,0.0006874999962747097,-0.0873124971985817,-0.07136250287294388
1750555360416813300,9.868813232421875,-0.0005499999970197678,-0.09459999948740005,-0.0835999995470047
1750555360426418400,9.87841845703125,0.0019249999895691872,-0.07136250287294388,-0.0798875018954277
1750555360436023000,9.88802294921875,0.010449999943375587,-0.03959999978542328,-0.05912499874830246
1750555360445628200,9.897628173828124,0.026399999856948853,0.0031624999828636646,-0.03478749841451645
1750555360455233300,9.9072333984375,0.031212499365210533,0.031212499365210533,-0.0042624999769032
1750555360464838100,9.916838134765625,0.026399999856948853,0.04468749836087227,0.020212499424815178
1750555360474443000,9.926443115234376,0.012924999929964542,0.06173750013113022,0.03244999796152115
1750555360484048100,9.936048095703125,-0.0005499999970197678,0.06916250288486481,0.04221250116825104
1750555360493653000,9.945653076171874,-0.007837500423192978,0.055687498301267624,0.04839999973773956
1750555360503258000,9.955258056640625,-0.0005499999970197678,0.016499999910593033,0.03492499887943268
1750555360512863000,9.964863037109374,0.010449999943375587,-0.031075000762939453,0.0031624999828636646
1750555360522467800,9.9744677734375,0.031212499365210533,-0.07012499868869781,-0.03355000168085098
1750555360532073200,9.9840732421875,0.043449997901916504,-0.08855000138282776,-0.05678749829530716
1750555360541678000,9.993677978515626,0.04097500070929527,-0.0775500014424324,-0.06283749639987946
1750555360551283000,10.003282958984375,0.023924998939037323,-0.045787498354911804,-0.038362499326467514
1750555360560888000,10.01288818359375,0.006874999962747097,-0.009074999950826168,0.011687500402331352
1750555360570493200,10.0224931640625,-0.004124999977648258,0.029975000768899918,0.05692499876022339
1750555360580098000,10.03209814453125,-0.004124999977648258,0.0494999997317791,0.07768750190734863
1750555360589703000,10.041702880859376,0.006874999962747097,0.03849999979138374,0.060499999672174454
1750555360599308000,10.05130810546875,0.018975000828504562,0.017737500369548798,0.015399999916553497
1750555360608913200,10.0609130859375,0.023924998939037323,-0.0042624999769032,-0.02983750030398369
1750555360618518000,10.07051806640625,0.020212499424815178,-0.026262499392032623,-0.057887498289346695
1750555360628123000,10.080122802734374,0.014162499457597733,-0.03478749841451645,-0.06888750195503235
1750555360637728000,10.08972802734375,0.0056374999694526196,-0.02502499893307686,-0.06159999966621399
1750555360647333000,10.0993330078125,-0.006599999964237213,-0.011549999937415123,-0.04455000162124634
1750555360656938000,10.10893798828125,-0.009074999950826168,0.0031624999828636646,-0.02502499893307686
1750555360666542800,10.11854296875,-0.016362499445676804,0.004399999976158142,-0.012787500396370888
1750555360676148000,10.12814794921875,-0.018837500363588333,-0.0030249999836087227,-0.011549999937415123
1750555360685752800,10.1377529296875,-0.010312499478459358,-0.005362499970942736,-0.014024999924004078
1750555360695358000,10.14735791015625,-0.0017874999903142452,-0.009074999950826168,-0.016362499445676804
1750555360704962800,10.156962890625,0.0031624999828636646,-0.005362499970942736,-0.022549999877810478
1750555360714568000,10.16656787109375,0.0056374999694526196,0.010449999943375587,-0.022549999877810478
1750555360724172800,10.1761728515625,0.006874999962747097,0.027499999850988388,-0.014024999924004078
1750555360733777700,10.185777587890625,0.0056374999694526196,0.03849999979138374,-0.011549999937415123
1750555360743382800,10.1953828125,0.0019249999895691872,0.03368749842047691,-0.021312499418854713
1750555360752988000,10.20498779296875,0.0019249999895691872,0.007974999956786633,-0.031075000762939453
1750555360762592800,10.2145927734375,-0.004124999977648258,-0.014024999924004078,-0.026124998927116394
1750555360772198000,10.224197998046876,-0.012787500396370888,-0.026262499392032623,-0.014024999924004078
1750555360781803000,10.233802978515625,-0.018837500363588333,-0.018837500363588333,-0.0017874999903142452
1750555360791407900,10.243407958984376,-0.022549999877810478,0.0006874999962747097,0.004399999976158142
1750555360801013000,10.253012939453125,-0.01759999990463257,0.011687500402331352,-0.0030249999836087227
1750555360810618000,10.2626181640625,-0.011549999937415123,-0.006599999964237213,-0.02736249938607216
1750555360820223000,10.272222900390625,-0.006599999964237213,-0.03355000168085098,-0.060362499207258224
1750555360829827800,10.281827880859375,-0.010312499478459358,-0.06531249731779099,-0.08483749628067017
1750555360839433000,10.291432861328126,-0.016362499445676804,-0.06531249731779099,-0.09707500040531158
1750555360849037800,10.301037841796875,-0.018837500363588333,-0.023787500336766243,-0.089649997651577
1750555360858643000,10.310642822265624,-0.026124998927116394,0.018975000828504562,-0.05912499874830246
1750555360868248000,10.320248046875,-0.03712499886751175,0.05816249921917915,-0.023787500336766243
1750555360877853000,10.32985302734375,-0.04936249926686287,0.09473749995231628,-0.0030249999836087227
1750555360887457800,10.339457763671875,-0.06407500058412552,0.116737499833107,0.0006874999962747097
1750555360897063000,10.34906298828125,-0.06764999777078629,0.1264999955892563,-0.018837500363588333
1750555360906668000,10.35866796875,-0.06283749639987946,0.1106875017285347,-0.050599999725818634
1750555360916273000,10.36827294921875,-0.053075000643730164,0.07150000333786011,-0.0835999995470047
1750555360925877800,10.377877685546874,-0.05555000156164169,0.016499999910593033,-0.11288750171661377
1750555360935483000,10.38748291015625,-0.053075000643730164,0.0031624999828636646,-0.133650004863739
1750555360945088000,10.397087890625,-0.06283749639987946,0.027499999850988388,-0.13859999179840088
1750555360954692900,10.40669287109375,-0.06283749639987946,0.09844999760389328,-0.11055000126361847
1750555360964298000,10.416298095703125,-0.04331250116229057,0.21697500348091125,-0.005362499970942736
1750555360973902800,10.42590283203125,-0.038362499326467514,0.34636250138282776,0.23526249825954437
1750555360983508000,10.435508056640625,-0.03959999978542328,0.5016000270843506,0.596887469291687
1750555360993112800,10.44511279296875,-0.07507500052452087,0.7068874835968018,1.017087459564209
1750555361002718000,10.454718017578125,-0.13007499277591705,0.9304624795913696,1.4459500312805176
1750555361012322800,10.46432275390625,-0.15812499821186066,1.212612509727478,1.8955750465393066
1750555361021927700,10.473927734375,-0.12759999930858612,1.4374250173568726,2.490537405014038
1750555361031533000,10.483532958984375,-0.026124998927116394,1.5802874565124512,3.2883124351501465
1750555361041138000,10.493137939453124,0.14492499828338623,1.5644749402999878,4.226612567901611
1750555361050742800,10.50274267578125,0.3170749843120575,1.191849946975708,5.078149795532227
1750555361060347600,10.51234765625,0.4246000051498413,0.6811749935150146,5.515537261962891
1750555361069952800,10.521952880859375,0.3562625050544739,0.1447875052690506,5.525300025939941
1750555361079558000,10.531557861328125,0.14368750154972076,-0.4769875109195709,5.27477502822876
1750555361089162800,10.541162841796876,-0.038362499326467514,-1.1599500179290771,4.826387405395508
1750555361098767600,10.550767578125,-0.0835999995470047,-1.6009124517440796,4.199662685394287
1750555361108372500,10.56037255859375,-0.0017874999903142452,-1.7573875188827515,3.5216500759124756
1750555361117977900,10.569977783203125,0.12416250258684158,-1.5985749959945679,2.8656375408172607
1750555361127582700,10.579582763671874,0.24502499401569366,-1.2430000305175781,2.255962371826172
1750555361137187600,10.5891875,0.31597501039505005,-0.9229000210762024,1.7122875452041626
1750555361146792400,10.59879248046875,0.33178749680519104,-0.7690374851226807,1.3078999519348145
1750555361156397600,10.6083974609375,0.2890250086784363,-0.8007999658584595,1.042799949645996
1750555361166002700,10.618002685546875,0.23526249825954437,-0.8410875201225281,0.8387500047683716
1750555361175607600,10.627607666015624,0.196212500333786,-0.8557999730110168,0.7031750082969666
1750555361185212700,10.637212646484375,0.15826250612735748,-0.8655624985694885,0.6041749715805054
1750555361194817800,10.64681787109375,0.1461624950170517,-0.8007999658584595,0.5076500177383423
1750555361204422700,10.656422607421876,0.11921250075101852,-0.7005624771118164,0.4246000051498413
1750555361214027500,10.666027587890625,0.07644999772310257,-0.6028000116348267,0.3452624976634979
1750555361223632600,10.675632568359376,0.05939999967813492,-0.47327500581741333,0.23897500336170197
1750555361233237500,10.685237548828125,0.05444999784231186,-0.3231250047683716,0.07273750007152557
1750555361242842400,10.69484228515625,0.05692499876022339,-0.14836250245571136,-0.15812499821186066
1750555361252447500,10.704447509765625,0.06297499686479568,-0.009074999950826168,-0.4622749984264374
1750555361262052600,10.714052490234375,0.06792499870061874,0.04097500070929527,-0.8215624690055847
1750555361271657500,10.723657470703126,0.07163749635219574,0.03492499887943268,-1.1977624893188477
1750555361281262300,10.733262451171875,0.0752125009894371,-0.01759999990463257,-1.5350500345230103
1750555361290867700,10.74286767578125,0.09597499668598175,-0.0775500014424324,-1.8269624710083008
1750555361300472600,10.75247265625,0.1704999953508377,-0.11783749610185623,-2.1080124378204346
1750555361310077400,10.762077392578124,0.25850000977516174,-0.14588749408721924,-2.397587537765503
1750555361319682300,10.771682373046875,0.3244999945163727,-0.17036250233650208,-2.729787588119507
1750555361329287400,10.781287353515625,0.35378751158714294,-0.18012499809265137,-3.1415998935699463
1750555361338892500,10.790892578125,0.37950000166893005,-0.11659999936819077,-3.636324882507324
1750555361348497400,10.800497314453125,0.45512500405311584,0.07026249915361404,-4.10052490234375
1750555361358102300,10.810102294921874,0.5406500101089478,0.18878750503063202,-4.384049892425537
1750555361367707400,10.819707275390625,0.644599974155426,0.2083124965429306,-4.450049877166748
1750555361377312300,10.829312255859374,0.8399875164031982,0.1863124966621399,-4.321762561798096
1750555361386917400,10.83891748046875,1.0012749433517456,0.004399999976158142,-4.123762607574463
1750555361396522500,10.8485224609375,1.0489875078201294,-0.17036250233650208,-4.032187461853027
1750555361406127400,10.85812744140625,0.9767999649047852,-0.3133625090122223,-4.039474964141846
1750555361415732200,10.867732177734375,0.8449375033378601,-0.2998875081539154,-4.057762622833252
1750555361425337300,10.87733740234375,0.7739874720573425,0.021449999883770943,-3.946662425994873
1750555361434942500,10.8869423828125,0.7496500015258789,0.40878748893737793,-3.522749900817871
1750555361444547300,10.89654736328125,0.7251750230789185,0.6396499872207642,-2.7627875804901123
1750555361454152200,10.906152099609375,0.6653624773025513,0.6469374895095825,-1.8281999826431274
1750555361463757300,10.91575732421875,0.5040749907493591,0.5651249885559082,-0.9473749995231628
1750555361473362400,10.925362548828126,0.24997499585151672,0.49665001034736633,-0.31693750619888306
1750555361482967300,10.93496728515625,-0.012787500396370888,0.44907498359680176,0.03973750025033951
1750555361492572200,10.944572265625,-0.20569999516010284,0.3550249934196472,0.20954999327659607
1750555361502177300,10.95417724609375,-0.3119874894618988,0.2475000023841858,0.27431249618530273
1750555361511782400,10.963782470703125,-0.32298749685287476,0.2437874972820282,0.2475000023841858
1750555361521387300,10.97338720703125,-0.255887508392334,0.3232625126838684,0.16802500188350677
1750555361530992000,10.9829921875,-0.16183750331401825,0.37207499146461487,0.07150000333786011
1750555361540597200,10.99259716796875,-0.09088750183582306,0.334262490272522,-0.018837500363588333
1750555361550202000,11.0022021484375,-0.06283749639987946,0.21931250393390656,-0.0775500014424324
1750555361559807200,11.01180712890625,-0.060362499207258224,0.06792499870061874,-0.09955000132322311
1750555361569412000,11.021412109375,-0.07012499868869781,-0.05678749829530716,-0.06283749639987946
1750555361579017200,11.031017333984375,-0.09583749622106552,-0.13007499277591705,0.03849999979138374
1750555361588622000,11.0406220703125,-0.1288374960422516,-0.10188750177621841,0.15578749775886536
1750555361598227000,11.05022705078125,-0.16417500376701355,-0.0042624999769032,0.2523125112056732
1750555361607832300,11.059832275390624,-0.19112500548362732,0.1387374997138977,0.32202500104904175
1750555361617437200,11.069437255859375,-0.20569999516010284,0.28654998540878296,0.35983750224113464
1750555361627042000,11.0790419921875,-0.2069374918937683,0.3903625011444092,0.3708375096321106
1750555361636647200,11.088647216796875,-0.1886499971151352,0.40383750200271606,0.3525499999523163
1750555361646252000,11.098251953125,-0.1691250056028366,0.3195500075817108,0.29878750443458557
1750555361655857200,11.107857177734376,-0.1531749963760376,0.1704999953508377,0.22921249270439148
1750555361665462000,11.1174619140625,-0.1373624950647354,0.012924999929964542,0.15702499449253082
1750555361675067000,11.12706689453125,-0.1190750002861023,-0.13983750343322754,0.09597499668598175
1750555361684672000,11.136672119140625,-0.09707500040531158,-0.21312500536441803,0.05444999784231186
1750555361694276900,11.14627685546875,-0.0873124971985817,-0.20336249470710754,0.04839999973773956
1750555361703881700,11.1558818359375,-0.08236250281333923,-0.1288374960422516,0.06173750013113022
1750555361713487000,11.165487060546875,-0.07507500052452087,-0.009074999950826168,0.07150000333786011
1750555361723092000,11.175092041015626,-0.06888750195503235,0.10202500224113464,0.07150000333786011
1750555361732696800,11.18469677734375,-0.05431250110268593,0.1704999953508377,0.04468749836087227
1750555361742302000,11.194302001953124,-0.023787500336766243,0.1742125004529953,0.0019249999895691872
1750555361751907000,11.203906982421875,0.0019249999895691872,0.13144999742507935,-0.03478749841451645
1750555361761512000,11.213511962890625,0.016637500375509262,0.06792499870061874,-0.050599999725818634
1750555361771116800,11.22311669921875,0.020212499424815178,-0.009074999950826168,-0.05431250110268593
1750555361780722000,11.232721923828125,0.011687500402331352,-0.07631249725818634,-0.04702499881386757
1750555361790327000,11.2423271484375,-0.0005499999970197678,-0.10312499850988388,-0.03478749841451645
1750555361799932000,11.251931884765625,-0.015124999918043613,-0.0775500014424324,-0.018837500363588333
1750555361809536800,11.261536865234374,-0.026124998927116394,-0.021312499418854713,-0.0005499999970197678
1750555361819141600,11.2711416015625,-0.03355000168085098,0.05444999784231186,0.014162499457597733
1750555361828746800,11.280746826171875,-0.035887498408555984,0.1069749966263771,0.026399999856948853
1750555361838352000,11.290351806640626,-0.02488750033080578,0.12773749232292175,0.026399999856948853
1750555361847956700,11.299956787109375,-0.007837500423192978,0.11921250075101852,0.016637500375509262
1750555361857561600,11.3095615234375,0.015399999916553497,0.0789249986410141,-0.0042624999769032
1750555361867166700,11.319166748046875,0.03492499887943268,0.031212499365210533,-0.023787500336766243
1750555361876771600,11.328771484375,0.043449997901916504,-0.012787500396370888,-0.03712499886751175
1750555361886376400,11.33837646484375,0.04963750019669533,-0.04207500070333481,-0.048124998807907104
1750555361895981600,11.347981689453125,0.0471624992787838,-0.07878749817609787,-0.05555000156164169
1750555361905586700,11.357586669921876,0.026399999856948853,-0.10683749616146088,-0.05555000156164169
1750555361915191600,11.367191650390625,0.0031624999828636646,-0.11288750171661377,-0.04455000162124634
1750555361924796400,11.37679638671875,-0.01759999990463257,-0.09459999948740005,-0.023787500336766243
1750555361934401500,11.386401611328125,-0.03355000168085098,-0.03959999978542328,-0.0005499999970197678
1750555361944006400,11.39600634765625,-0.03355000168085098,0.027499999850988388,0.026399999856948853
1750555361953611500,11.405611572265625,-0.015124999918043613,0.0812624990940094,0.06297499686479568
1750555361963216400,11.41521630859375,0.004399999976158142,0.09721250087022781,0.09597499668598175
1750555361972821500,11.424821533203126,0.014162499457597733,0.08249999582767487,0.10202500224113464
1750555361982426400,11.43442626953125,0.011687500402331352,0.03973750025033951,0.08249999582767487
1750555361992031500,11.444031494140624,0.004399999976158142,-0.021312499418854713,0.05321250110864639
1750555362001636400,11.45363623046875,-0.009074999950826168,-0.07631249725818634,0.017737500369548798
1750555362011241500,11.463241455078125,-0.016362499445676804,-0.0873124971985817,-0.0005499999970197678
1750555362020846300,11.472846435546876,-0.021312499418854713,-0.07012499868869781,0.0019249999895691872
1750555362030451200,11.482451171875,-0.028599999845027924,-0.009074999950826168,0.020212499424815178
1750555362040056300,11.492056396484376,-0.03712499886751175,0.06173750013113022,0.05321250110864639
1750555362049661400,11.501661376953125,-0.048124998807907104,0.09473749995231628,0.07644999772310257
1750555362059266300,11.511266357421874,-0.050599999725818634,0.09597499668598175,0.07644999772310257
1750555362068871200,11.52087109375,-0.05431250110268593,0.06792499870061874,0.04592499881982803
1750555362078476300,11.530476318359375,-0.05431250110268593,0.018975000828504562,-0.0030249999836087227
1750555362088081400,11.540081298828126,-0.04455000162124634,-0.04331250116229057,-0.0518375001847744
1750555362097686300,11.549686279296875,-0.028599999845027924,-0.0873124971985817,-0.0835999995470047
1750555362107291100,11.559291015625,-0.016362499445676804,-0.10188750177621841,-0.0873124971985817
1750555362116896000,11.56889599609375,-0.018837500363588333,-0.07631249725818634,-0.06407500058412552
1750555362126501000,11.578501220703124,-0.02736249938607216,-0.022549999877810478,-0.026124998927116394
1750555362136106000,11.58810595703125,-0.03464999794960022,0.017737500369548798,0.016637500375509262
1750555362145711000,11.597711181640625,-0.03464999794960022,0.029975000768899918,0.04468749836087227
1750555362155316200,11.607316162109376,-0.03959999978542328,0.03492499887943268,0.05444999784231186
1750555362164921000,11.616921142578125,-0.040837500244379044,0.03849999979138374,0.060499999672174454
1750555362174526000,11.62652587890625,-0.038362499326467514,0.06173750013113022,0.05926249921321869
1750555362184131000,11.636131103515625,-0.03231250122189522,0.10092499852180481,0.05816249921917915
1750555362193736000,11.64573583984375,-0.018837500363588333,0.1387374997138977,0.05321250110864639
1750555362203341000,11.655341064453125,0.0006874999962747097,0.11921250075101852,0.029975000768899918
1750555362212946000,11.66494580078125,0.017875000834465027,0.05926249921321869,-0.01759999990463257
1750555362222551000,11.674551025390626,0.018975000828504562,-0.011549999937415123,-0.07259999960660934
1750555362232156000,11.684156005859375,0.009212499484419823,-0.045787498354911804,-0.1093124970793724
