time,seconds_elapsed,z,y,x
1750555350648501000,0.1005009765625,0.08524999767541885,0.42143750190734863,0.2704625129699707
1750555350658106400,0.1101064453125,0.09624999761581421,0.3396250009536743,0.23251250386238098
1750555350667711200,0.119711181640625,0.09143749624490738,0.27486249804496765,0.16417500376701355
1750555350677316000,0.129316162109375,0.07796250283718109,0.22962500154972076,0.12017499655485153
1750555350686921200,0.138921142578125,0.06324999779462814,0.17338749766349792,0.11646249890327454
1750555350696526300,0.1485263671875,0.04619999974966049,0.13062499463558197,0.13598750531673431
1750555350706131500,0.15813134765625,0.020487500354647636,0.0976250022649765,0.1335124969482422
1750555350715736000,0.167736083984375,-0.007562499959021807,0.07081250101327896,0.10546249896287918
1750555350725341200,0.177341064453125,0.04619999974966049,0.06462500244379044,0.10422500222921371
1750555350734946300,0.1869462890625,0.13048750162124634,0.13062499463558197,0.12622499465942383
1750555350744551400,0.196551513671875,0.19648750126361847,0.2246749997138977,0.15674999356269836
1750555350754156300,0.20615625,0.21230000257492065,0.24791249632835388,0.18246249854564667
1750555350763761200,0.21576123046875,0.19401249289512634,0.19786250591278076,0.19951249659061432
1750555350773366500,0.225366455078125,0.1634874939918518,0.13557499647140503,0.19827499985694885
1750555350782971400,0.234971435546875,0.1414874941110611,0.10009999573230743,0.19827499985694885
1750555350792576300,0.244576171875,0.13529999554157257,0.07686249911785126,0.20074999332427979
1750555350802181000,0.25418115234375,0.13901250064373016,0.035337500274181366,0.19593749940395355
1750555350811786500,0.263786376953125,0.15248750150203705,-0.03423750028014183,0.16651250422000885
1750555350821391400,0.273391357421875,0.1732500046491623,-0.07947500050067902,0.1214125007390976
1750555350830996500,0.28299658203125,0.18906250596046448,-0.10752499848604202,0.05664999783039093
1750555350840601300,0.292601318359375,0.15729999542236328,-0.14423750340938568,-0.021587500348687172
1750555350850206200,0.302206298828125,0.14506250619888306,-0.16871249675750732,-0.0765874981880188
1750555350859811600,0.3118115234375,0.14877499639987946,-0.16376249492168427,-0.09116250276565552
1750555350869416400,0.32141650390625,0.14272500574588776,-0.1467124968767166,-0.08016250282526016
1750555350879021300,0.331021240234375,0.09143749624490738,-0.17723749577999115,-0.05335000157356262
1750555350888626400,0.34062646484375,0.010724999941885471,-0.24323749542236328,-0.020349999889731407
1750555350898231600,0.3502314453125,-0.07108750194311142,-0.29452499747276306,-0.0056374999694526196
1750555350907836400,0.35983642578125,-0.1321374922990799,-0.31404998898506165,-0.006874999962747097
1750555350917441300,0.369441162109375,-0.17256249487400055,-0.38128748536109924,-0.03987500071525574
1750555350927046400,0.37904638671875,-0.20913749933242798,-0.44110000133514404,-0.07535000145435333
1750555350936651500,0.388651611328125,-0.23732499778270721,-0.443574994802475,-0.08139999955892563
1750555350946256400,0.39825634765625,-0.24213749170303345,-0.4655750095844269,-0.0826374962925911
1750555350955861500,0.407861572265625,-0.20432500541210175,-0.4558124840259552,-0.07535000145435333
1750555350965466400,0.41746630859375,-0.14079999923706055,-0.39586248993873596,-0.05458749830722809
1750555350975071500,0.427071533203125,-0.07356250286102295,-0.31033748388290405,-0.03258749842643738
1750555350984676400,0.43667626953125,-0.03684999793767929,-0.22357499599456787,-0.021587500348687172
1750555350994281500,0.446281494140625,-0.043037500232458115,-0.1381874978542328,-0.025299999862909317
1750555351003886600,0.455886474609375,-0.056512501090765,-0.05376249924302101,-0.024062499403953552
1750555351013491500,0.465491455078125,-0.040562499314546585,0.00976249948143959,-0.019112499430775642
1750555351023096600,0.4750966796875,-0.02227500081062317,0.032862499356269836,-0.017875000834465027
1750555351032701700,0.48470166015625,-0.030799999833106995,0.0340999998152256,-0.021587500348687172
1750555351042306600,0.494306640625,-0.05884999781847,0.04633750021457672,-0.028875000774860382
1750555351051911700,0.50391162109375,-0.07837499678134918,0.06228749826550484,-0.03629999980330467
1750555351061516500,0.5135166015625,-0.07479999959468842,0.07686249911785126,-0.04358749836683273
1750555351071121700,0.52312158203125,-0.05403750017285347,0.10009999573230743,-0.05087500065565109
1750555351080726800,0.532726806640625,-0.02708750031888485,0.11357499659061432,-0.05939999967813492
1750555351090331600,0.54233154296875,0.008249999955296516,0.10628750175237656,-0.0668250024318695
1750555351099936800,0.551936767578125,0.04867500066757202,0.06104999780654907,-0.07163749635219574
1750555351109542000,0.5615419921875,0.0681999996304512,-0.01223750039935112,-0.08758749812841415
1750555351119146800,0.571146728515625,0.06943749636411667,-0.08676250278949738,-0.10587500035762787
1750555351128751900,0.580751953125,0.0681999996304512,-0.14176249504089355,-0.1143999993801117
1750555351138357000,0.59035693359375,0.0705375000834465,-0.16499999165534973,-0.1046374961733818
1750555351147961900,0.5999619140625,0.06696250289678574,-0.15523749589920044,-0.07411249727010727
1750555351157567000,0.60956689453125,0.05967500060796738,-0.11976250261068344,-0.03258749842643738
1750555351167171800,0.619171875,0.05472499877214432,-0.08442500233650208,0.004124999977648258
1750555351176777000,0.62877685546875,0.05224999785423279,-0.05871250107884407,0.018699999898672104
1750555351186381800,0.6383818359375,0.05348749831318855,-0.040424998849630356,0.012649999931454659
1750555351195987000,0.647987060546875,0.06201250106096268,-0.030662499368190765,-0.009349999949336052
1750555351205592000,0.657592041015625,0.06943749636411667,-0.00989999994635582,-0.03753750026226044
1750555351215197000,0.667197021484375,0.06572499871253967,0.023099999874830246,-0.04839999973773956
1750555351224801800,0.6768017578125,0.05843750014901161,0.05486249923706055,-0.027637500315904617
1750555351234407000,0.686406982421875,0.04867500066757202,0.07452499866485596,0.012649999931454659
1750555351244012000,0.696011962890625,0.04001250118017197,0.06462500244379044,0.047987498342990875
1750555351253617200,0.7056171875,0.025437500327825546,0.035337500274181366,0.06146249920129776
1750555351263222000,0.715221923828125,0.013199999928474426,0.002337499987334013,0.0541750006377697
1750555351272827100,0.7248271484375,0.007012499962002039,-0.01347499992698431,0.03698749840259552
1750555351282432300,0.734432373046875,0.005912499967962503,-0.015949999913573265,0.028462499380111694
1750555351292037000,0.744037109375,0.007012499962002039,-0.00989999994635582,0.038224998861551285
1750555351301642500,0.753642578125,0.005912499967962503,0.002337499987334013,0.05664999783039093
1750555351311247400,0.763247314453125,-0.003987499978393316,0.00976249948143959,0.07493750005960464
1750555351320852500,0.7728525390625,-0.013749999925494194,-0.0012374999932944775,0.08346249908208847
1750555351330457300,0.782457275390625,-0.01732499897480011,-0.008662499487400055,0.082225002348423
1750555351340062500,0.7920625,-0.016087500378489494,-0.010999999940395355,0.07617499679327011
1750555351349667600,0.80166748046875,-0.013749999925494194,0,0.07122500240802765
1750555351359272400,0.8112724609375,-0.010037500411272049,0.014574999921023846,0.07493750005960464
1750555351368877600,0.820877685546875,-0.006324999965727329,0.02681249938905239,0.082225002348423
1750555351378482400,0.830482421875,-0.002749999985098839,0.03904999792575836,0.08717499673366547
1750555351388087600,0.840087646484375,0.005912499967962503,0.03657500073313713,0.08717499673366547
1750555351397692700,0.849692626953125,0.01924999989569187,0.030524998903274536,0.07617499679327011
1750555351407297500,0.859297607421875,0.022962499409914017,0.028049999848008156,0.05664999783039093
1750555351416902700,0.868902587890625,0.021724998950958252,0.0317624993622303,0.02969999983906746
1750555351426507800,0.8785078125,0.013199999928474426,0.047575000673532486,-0.0056374999694526196
1750555351436112600,0.888112548828125,-0.0002749999985098839,0.05252499878406525,-0.04729999974370003
1750555351445717500,0.897717529296875,-0.01484999991953373,0.04881250113248825,-0.08511249721050262
1750555351455322600,0.907322509765625,-0.030799999833106995,0.03904999792575836,-0.11316250264644623
1750555351464927700,0.916927734375,-0.052799999713897705,0.007287499960511923,-0.1266375035047531
1750555351474532600,0.92653271484375,-0.07479999959468842,-0.0317624993622303,-0.12911249697208405
1750555351484137700,0.9361376953125,-0.0943249985575676,-0.047712501138448715,-0.12182500213384628
1750555351493742800,0.945742919921875,-0.10779999941587448,-0.04399999976158142,-0.1046374961733818
1750555351503347700,0.95534765625,-0.12113749980926514,-0.042762499302625656,-0.07535000145435333
1750555351512952800,0.964952880859375,-0.13461250066757202,-0.037950001657009125,-0.03506249934434891
1750555351522558000,0.974557861328125,-0.13103750348091125,-0.028187500312924385,0.012649999931454659
1750555351532162800,0.984162841796875,-0.12113749980926514,-0.015949999913573265,0.057887498289346695
1750555351541768000,0.993767822265625,-0.10408750176429749,0.02433750033378601,0.08841250091791153
1750555351551372800,1.003372802734375,-0.07961250096559525,0.06833750009536743,0.09817499667406082
1750555351560978200,1.012978271484375,-0.05403750017285347,0.08662500232458115,0.09941250085830688
1750555351570583000,1.0225830078125,-0.038087498396635056,0.07809999585151672,0.10064999759197235
1750555351580188200,1.032188232421875,-0.028324998915195465,0.037812501192092896,0.10064999759197235
1750555351589793300,1.041793212890625,-0.028324998915195465,-0.01347499992698431,0.08717499673366547
1750555351599398100,1.051398193359375,-0.03684999793767929,-0.062424998730421066,0.057887498289346695
1750555351609003000,1.0610029296875,-0.03451250120997429,-0.08676250278949738,0.02488750033080578
1750555351618608000,1.070608154296875,-0.01732499897480011,-0.09047500044107437,0.010174999944865704
1750555351628213200,1.080213134765625,0.009487500414252281,-0.07095000147819519,0.015124999918043613
1750555351637818000,1.089818115234375,0.022962499409914017,-0.02694999985396862,0.02969999983906746
1750555351647423000,1.099423095703125,0.009487500414252281,0.01209999993443489,0.04688749834895134
1750555351657028400,1.1090283203125,-0.013749999925494194,0.035337500274181366,0.0541750006377697
1750555351666633200,1.11863330078125,-0.02956249937415123,0.035337500274181366,0.04688749834895134
1750555351676238300,1.12823828125,-0.033275000751018524,0.030524998903274536,0.02488750033080578
1750555351685843500,1.137843505859375,-0.02474999986588955,0.02928750030696392,0.004124999977648258
1750555351695448300,1.1474482421875,-0.01484999991953373,0.025575000792741776,-0.002062499988824129
1750555351705053400,1.157053466796875,-0.011274999938905239,0.028049999848008156,0.005224999971687794
1750555351714658300,1.166658203125,-0.01979999989271164,0.04152499884366989,0.02241249941289425
1750555351724263700,1.176263671875,-0.02956249937415123,0.047575000673532486,0.038224998861551285
1750555351733868500,1.18586865234375,-0.028324998915195465,0.045099999755620956,0.050462499260902405
1750555351743473400,1.195473388671875,-0.003987499978393316,0.028049999848008156,0.05664999783039093
1750555351753078500,1.20507861328125,0.030249999836087227,0,0.03946249932050705
1750555351762683600,1.21468359375,0.05101250112056732,-0.015949999913573265,0.0028874999843537807
1750555351772288500,1.22428857421875,0.05719999969005585,-0.029424998909235,-0.03258749842643738
1750555351781894000,1.233893798828125,0.04619999974966049,-0.032999999821186066,-0.04235000163316727
1750555351791498800,1.243498779296875,0.022962499409914017,-0.032999999821186066,-0.022824998944997787
1750555351801103600,1.253103515625,-0.0002749999985098839,-0.01966249942779541,0.01746249943971634
1750555351810708700,1.262708740234375,-0.01251249946653843,0.010862499475479126,0.06393750011920929
1750555351820313900,1.27231396484375,-0.010037500411272049,0.030524998903274536,0.09941250085830688
1750555351829919000,1.2819189453125,0.0009624999947845936,0.04386249929666519,0.11646249890327454
1750555351839523800,1.29152392578125,0.009487500414252281,0.05362499877810478,0.11522500216960907
1750555351849128700,1.301128662109375,0.011962499469518661,0.05004999786615372,0.09693749994039536
1750555351858733800,1.31073388671875,0.008249999955296516,0.04152499884366989,0.07122500240802765
1750555351868339000,1.3203388671875,-0.0015124999918043613,0.03657500073313713,0.045649997889995575
1750555351877943800,1.32994384765625,0.0009624999947845936,0.020762499421834946,0.016224998980760574
1750555351887549000,1.339548828125,0.01691249944269657,-0.030662499368190765,-0.014299999922513962
1750555351897154000,1.349154052734375,0.04001250118017197,-0.09652499854564667,-0.05087500065565109
1750555351906759200,1.35875927734375,0.05843750014901161,-0.14300000667572021,-0.08758749812841415
1750555351916364000,1.368364013671875,0.06572499871253967,-0.1625249981880188,-0.1083500012755394
1750555351925969200,1.37796923828125,0.05719999969005585,-0.14423750340938568,-0.1120624989271164
1750555351935574000,1.387573974609375,0.037675000727176666,-0.07947500050067902,-0.09487500041723251
1750555351945179400,1.397179443359375,0.013199999928474426,0.015812499448657036,-0.05087500065565109
1750555351954784300,1.4067841796875,-0.006324999965727329,0.09886249899864197,0.011412499472498894
1750555351964389000,1.41638916015625,-0.013749999925494194,0.15991249680519104,0.06146249920129776
1750555351973994200,1.425994140625,-0.008799999952316284,0.18314999341964722,0.07975000143051147
1750555351983599400,1.435599365234375,0.010724999941885471,0.17215000092983246,0.060224998742341995
1750555351993204200,1.445204345703125,0.03396249935030937,0.1331000030040741,0.021175000816583633
1750555352002809300,1.454809326171875,0.04619999974966049,0.06710000336170197,-0.017875000834465027
1750555352012414500,1.46441455078125,0.04001250118017197,-0.01347499992698431,-0.04729999974370003
1750555352022019600,1.47401953125,0.015675000846385956,-0.07947500050067902,-0.05706249922513962
1750555352031624700,1.483624755859375,-0.005087499972432852,-0.10752499848604202,-0.04606249928474426
1750555352041229600,1.4932294921875,-0.01732499897480011,-0.08552499860525131,-0.021587500348687172
1750555352050834700,1.502834716796875,-0.01251249946653843,-0.030662499368190765,0.010174999944865704
1750555352060439600,1.512439453125,0.002199999988079071,0.01952499896287918,0.03341250121593475
1750555352070044700,1.522044677734375,0.015675000846385956,0.04633750021457672,0.03946249932050705
1750555352079649500,1.5316494140625,0.018012499436736107,0.04152499884366989,0.026124998927116394
1750555352089254700,1.541254638671875,0.015675000846385956,0.025575000792741776,0.005224999971687794
1750555352098859500,1.550859619140625,0.018012499436736107,0.007287499960511923,-0.0032999999821186066
1750555352108465000,1.56046484375,0.022962499409914017,-0.00989999994635582,0.008937500417232513
1750555352118069800,1.57006982421875,0.02419999986886978,-0.010999999940395355,0.02241249941289425
1750555352127674600,1.579674560546875,0.020487500354647636,0,0.02488750033080578
1750555352137279700,1.58927978515625,0.011962499469518661,0,0.015124999918043613
1750555352146884900,1.598884765625,0.0009624999947845936,-0.01223750039935112,-0.0056374999694526196
1750555352156489700,1.60848974609375,-0.008799999952316284,-0.028187500312924385,-0.025299999862909317
1750555352166094800,1.6180947265625,-0.021037500351667404,-0.0317624993622303,-0.03382499888539314
1750555352175700000,1.627699951171875,-0.02227500081062317,-0.015949999913573265,-0.026537500321865082
1750555352185304800,1.637304931640625,-0.021037500351667404,0.0085249999538064,-0.004537499975413084
1750555352194910000,1.646909912109375,-0.01979999989271164,0.023099999874830246,0.01993750035762787
1750555352204515000,1.65651513671875,-0.023512499406933784,0.03657500073313713,0.01993750035762787
1750555352214120200,1.6661201171875,-0.025849999859929085,0.0340999998152256,-0.004537499975413084
1750555352223725000,1.67572509765625,-0.02708750031888485,0.023099999874830246,-0.03506249934434891
1750555352233330200,1.685330078125,-0.023512499406933784,0,-0.05087500065565109
1750555352242935300,1.694935302734375,-0.025849999859929085,-0.0147124994546175,-0.05211250111460686
1750555352252540200,1.7045400390625,-0.02956249937415123,0.002337499987334013,-0.03753750026226044
1750555352262145000,1.71414501953125,-0.02708750031888485,0.02928750030696392,-0.006874999962747097
1750555352271750400,1.72375048828125,-0.025849999859929085,0.04386249929666519,0.02241249941289425
1750555352281355500,1.73335546875,-0.02227500081062317,0.04152499884366989,0.030937500298023224
1750555352290960400,1.74296044921875,-0.01979999989271164,0.02186249941587448,0.012649999931454659
1750555352300565500,1.7525654296875,-0.016087500378489494,0.004812499973922968,-0.014299999922513962
1750555352310170600,1.762170654296875,-0.010037500411272049,-0.015949999913573265,-0.028875000774860382
1750555352319775500,1.771775390625,-0.002749999985098839,-0.020899999886751175,-0.03753750026226044
1750555352329380600,1.781380615234375,0.0034374999813735485,-0.007424999959766865,-0.04235000163316727
1750555352338985700,1.79098583984375,0.011962499469518661,0,-0.04235000163316727
1750555352348590600,1.800590576171875,0.02419999986886978,0,-0.0411125011742115
1750555352358196000,1.810196044921875,0.029012499377131462,-0.00989999994635582,-0.0411125011742115
1750555352367800800,1.81980078125,0.03148749843239784,-0.02199999988079071,-0.0411125011742115
1750555352377405700,1.82940576171875,0.02667500078678131,-0.02199999988079071,-0.03863750025629997
1750555352387011000,1.839010986328125,0.021724998950958252,-0.01347499992698431,-0.03629999980330467
1750555352396616000,1.848615966796875,0.022962499409914017,0.0085249999538064,-0.027637500315904617
1750555352406220800,1.858220703125,0.025437500327825546,0.02186249941587448,-0.008112499490380287
1750555352415826000,1.867825927734375,0.027912499383091927,0.02681249938905239,0.004124999977648258
1750555352425431000,1.87743115234375,0.029012499377131462,0.02433750033378601,-0.0008249999955296516
1750555352435036000,1.887035888671875,0.02667500078678131,0.006049999967217445,-0.019112499430775642
1750555352444641000,1.89664111328125,0.02667500078678131,-0.01223750039935112,-0.03629999980330467
1750555352454246100,1.90624609375,0.030249999836087227,-0.02694999985396862,-0.04358749836683273
1750555352463851300,1.915851318359375,0.0387750007212162,-0.03918749839067459,-0.04235000163316727
1750555352473456000,1.9254560546875,0.04001250118017197,-0.047712501138448715,-0.03863750025629997
1750555352483061200,1.935061279296875,0.03519999980926514,-0.050187498331069946,-0.03382499888539314
1750555352492666000,1.944666015625,0.029012499377131462,-0.03918749839067459,-0.03506249934434891
1750555352502271200,1.954271240234375,0.02419999986886978,-0.018424998968839645,-0.03506249934434891
1750555352511876400,1.96387646484375,0.014437500387430191,0.010862499475479126,-0.027637500315904617
1750555352521481500,1.9734814453125,0.008249999955296516,0.032862499356269836,-0.022824998944997787
1750555352531086300,1.98308642578125,0.008249999955296516,0.05128749832510948,-0.030112499371170998
1750555352540691500,1.99269140625,0.013199999928474426,0.05857500061392784,-0.0448249988257885
1750555352550296600,2.002296630859375,0.022962499409914017,0.04386249929666519,-0.06063750013709068
1750555352559901400,2.0119013671875,0.029012499377131462,0.01209999993443489,-0.07411249727010727
1750555352569506600,2.021506591796875,0.021724998950958252,-0.030662499368190765,-0.08511249721050262
1750555352579111700,2.031111572265625,0.013199999928474426,-0.062424998730421066,-0.09006249904632568
1750555352588716500,2.040716552734375,0.009487500414252281,-0.07947500050067902,-0.09116250276565552
1750555352598321400,2.0503212890625,0.005912499967962503,-0.07823749631643295,-0.08511249721050262
1750555352607926800,2.0599267578125,0.0034374999813735485,-0.062424998730421066,-0.07535000145435333
1750555352617531600,2.06953173828125,0.0009624999947845936,-0.020899999886751175,-0.05829999968409538
1750555352627136800,2.07913671875,-0.002749999985098839,0.023099999874830246,-0.03506249934434891
1750555352636741600,2.08874169921875,0.004674999974668026,0.06104999780654907,-0.013062499463558197
1750555352646346800,2.0983466796875,0.022962499409914017,0.06710000336170197,0.0028874999843537807
1750555352655952000,2.107951904296875,0.0424874983727932,0.05362499877810478,-0.0032999999821186066
1750555352665557000,2.117556884765625,0.05596249923110008,0.05362499877810478,-0.027637500315904617
1750555352675162000,2.127162109375,0.0681999996304512,0.05362499877810478,-0.05582499876618385
1750555352684767000,2.13676708984375,0.07177499681711197,0.05857500061392784,-0.06063750013709068
1750555352694372000,2.1463720703125,0.05101250112056732,0.07452499866485596,-0.04839999973773956
1750555352703977000,2.15597705078125,0.020487500354647636,0.1050499975681305,-0.03629999980330467
1750555352713582000,2.16558203125,0.004674999974668026,0.11715000122785568,-0.027637500315904617
1750555352723187000,2.17518701171875,0.002199999988079071,0.06710000336170197,-0.03382499888539314
1750555352732792000,2.1847919921875,0.0009624999947845936,0.002337499987334013,-0.05582499876618385
1750555352742397200,2.194397216796875,0.0009624999947845936,-0.04895000159740448,-0.09116250276565552
1750555352752002000,2.204001953125,-0.0002749999985098839,-0.09652499854564667,-0.12787500023841858
1750555352761607200,2.213607177734375,-0.002749999985098839,-0.1405249983072281,-0.1266375035047531
1750555352771212500,2.223212646484375,-0.0015124999918043613,-0.18328750133514404,-0.09735000133514404
1750555352780817400,2.2328173828125,0.002199999988079071,-0.20652499794960022,-0.06063750013709068
1750555352790422500,2.242422607421875,0.020487500354647636,-0.20652499794960022,-0.03987500071525574
1750555352800027600,2.252027587890625,0.037675000727176666,-0.1942874938249588,-0.03863750025629997
1750555352809632500,2.261632568359375,0.0424874983727932,-0.15152500569820404,-0.03863750025629997
1750555352819237400,2.2712373046875,0.0364375002682209,-0.07947500050067902,-0.03629999980330467
1750555352828842500,2.280842529296875,0.027912499383091927,-0.00989999994635582,-0.010587500408291817
1750555352838447600,2.290447509765625,0.011962499469518661,0.047575000673532486,0.04688749834895134
1750555352848052500,2.300052490234375,0.002199999988079071,0.08662500232458115,0.10917499661445618
1750555352857657600,2.30965771484375,-0.0002749999985098839,0.11110000312328339,0.1457500010728836
1750555352867262700,2.3192626953125,0.009487500414252281,0.12209999561309814,0.12993749976158142
1750555352876867600,2.32886767578125,0.03148749843239784,0.11715000122785568,0.0541750006377697
1750555352886472700,2.33847265625,0.04619999974966049,0.057337500154972076,-0.05458749830722809
1750555352896077600,2.34807763671875,0.04372499883174896,-0.00989999994635582,-0.16692499816417694
1750555352905683000,2.357682861328125,0.03148749843239784,-0.06971249729394913,-0.22811250388622284
1750555352915287800,2.367287841796875,0.021724998950958252,-0.13323749601840973,-0.22921249270439148
1750555352924893000,2.376892822265625,0.02667500078678131,-0.14176249504089355,-0.20487499237060547
1750555352934498000,2.386498046875,0.04743750020861626,-0.10518749803304672,-0.19139999151229858
1750555352944103000,2.39610302734375,0.06696250289678574,-0.0672374963760376,-0.1816374957561493
1750555352953708000,2.4057080078125,0.08043749630451202,-0.057475000619888306,-0.15963749587535858
1750555352963313200,2.415313232421875,0.0742499977350235,-0.03671250119805336,-0.12787500023841858
1750555352972918000,2.42491796875,0.04743750020861626,-0.008662499487400055,-0.0826374962925911
1750555352982523100,2.434523193359375,0.018012499436736107,0.004812499973922968,-0.028875000774860382
1750555352992128300,2.444128173828125,-0.003987499978393316,0.010862499475479126,0.007699999958276749
1750555353001733000,2.453733154296875,-0.006324999965727329,0.014574999921023846,0.021175000816583633
1750555353011338200,2.463338134765625,0.0034374999813735485,0.00976249948143959,0.01993750035762787
1750555353020943400,2.472943359375,0.014437500387430191,-0.015949999913573265,0.018699999898672104
1750555353030548200,2.48254833984375,0.011962499469518661,-0.047712501138448715,0.02488750033080578
1750555353040153300,2.4921533203125,-0.007562499959021807,-0.0611874982714653,0.03946249932050705
1750555353049758500,2.501758544921875,-0.02708750031888485,-0.054999999701976776,0.04922499880194664
1750555353059363600,2.511363525390625,-0.035750001668930054,-0.0317624993622303,0.045649997889995575
1750555353068968400,2.520968505859375,-0.02956249937415123,0.002337499987334013,0.028462499380111694
1750555353078573600,2.530573486328125,-0.011274999938905239,0.03657500073313713,0.007699999958276749
1750555353088178700,2.5401787109375,0.009487500414252281,0.04881250113248825,-0.015537500381469727
1750555353097783600,2.549783447265625,0.02667500078678131,0.05252499878406525,-0.03753750026226044
1750555353107388700,2.559388671875,0.020487500354647636,0.04028749838471413,-0.04963750019669533
1750555353116993800,2.568993896484375,0.005912499967962503,0.002337499987334013,-0.04729999974370003
1750555353126598700,2.5785986328125,-0.005087499972432852,-0.040424998849630356,-0.03629999980330467
1750555353136203800,2.588203857421875,0.002199999988079071,-0.06847500056028366,-0.024062499403953552
1750555353145809000,2.597808837890625,0.02419999986886978,-0.0672374963760376,-0.0008249999955296516
1750555353155413800,2.607413818359375,0.04743750020861626,-0.04166249930858612,0.015124999918043613
1750555353165019000,2.617018798828125,0.04372499883174896,-0.007424999959766865,0.01993750035762787
1750555353174624000,2.6266240234375,0.022962499409914017,0.025575000792741776,0.02241249941289425
1750555353184228900,2.636228759765625,-0.0002749999985098839,0.06228749826550484,0.021175000816583633
1750555353193834200,2.645834228515625,-0.018562499433755875,0.08786249905824661,0.023649999871850014
1750555353203439000,2.655439208984375,-0.023512499406933784,0.10009999573230743,0.03698749840259552
1750555353213044200,2.665044189453125,-0.018562499433755875,0.09281250089406967,0.060224998742341995
1750555353222649000,2.674649169921875,-0.007562499959021807,0.07933750003576279,0.07617499679327011
1750555353232254200,2.684254150390625,0.004674999974668026,0.08057499676942825,0.07369999587535858
1750555353241859300,2.693859375,0.014437500387430191,0.08304999768733978,0.06146249920129776
1750555353251464400,2.70346435546875,0.01691249944269657,0.07204999774694443,0.055412501096725464
1750555353261069600,2.713069580078125,0.015675000846385956,0.0340999998152256,0.0541750006377697
1750555353270674400,2.72267431640625,0.008249999955296516,-0.0037124999798834324,0.052937500178813934
1750555353280279300,2.732279296875,-0.003987499978393316,-0.01718750037252903,0.050462499260902405
1750555353289884400,2.741884521484375,-0.01484999991953373,-0.0037124999798834324,0.0541750006377697
1750555353299489500,2.751489501953125,-0.01251249946653843,0.007287499960511923,0.05898749828338623
1750555353309094400,2.761094482421875,-0.002749999985098839,0.028049999848008156,0.060224998742341995
1750555353318699500,2.770699462890625,0.009487500414252281,0.045099999755620956,0.0541750006377697
1750555353328304600,2.7803046875,0.014437500387430191,0.05004999786615372,0.035887498408555984
1750555353337909800,2.78990966796875,0.009487500414252281,0.05128749832510948,0.01746249943971634
1750555353347514600,2.7995146484375,-0.003987499978393316,0.04633750021457672,0.023649999871850014
1750555353357120000,2.8091201171875,-0.016087500378489494,0.04152499884366989,0.047987498342990875
1750555353366724900,2.818724853515625,-0.01484999991953373,0.032862499356269836,0.07122500240802765
1750555353376329700,2.828329833984375,-0.013749999925494194,0.015812499448657036,0.08098749816417694
1750555353385934800,2.837934814453125,-0.01251249946653843,0.0010999999940395355,0.07122500240802765
1750555353395540000,2.8475400390625,-0.008799999952316284,-0.00494999997317791,0.045649997889995575
1750555353405144800,2.857144775390625,-0.005087499972432852,-0.007424999959766865,0.018699999898672104
1750555353414750000,2.86675,-0.007562499959021807,0.007287499960511923,-0.002062499988824129
1750555353424355000,2.87635498046875,-0.01732499897480011,0.05128749832510948,0.006462499964982271
1750555353433960000,2.8859599609375,-0.02708750031888485,0.11110000312328339,0.045649997889995575
1750555353443565000,2.89556494140625,-0.038087498396635056,0.17957499623298645,0.09075000137090683
1750555353453170000,2.905169921875,-0.045512501150369644,0.22714999318122864,0.11522500216960907
1750555353462775300,2.914775390625,-0.033275000751018524,0.2283875048160553,0.10175000131130219
1750555353472380200,2.924380126953125,-0.008799999952316284,0.1868624985218048,0.055412501096725464
1750555353481985300,2.9339853515625,0.007012499962002039,0.11357499659061432,-0.0008249999955296516
1750555353491590400,2.94359033203125,0.013199999928474426,0.030524998903274536,-0.05458749830722809
1750555353501195300,2.9531953125,0.010724999941885471,-0.03671250119805336,-0.09363749623298645
1750555353510800100,2.962800048828125,0.004674999974668026,-0.050187498331069946,-0.10106249898672104
1750555353520405500,2.972405517578125,-0.0002749999985098839,-0.035475000739097595,-0.08139999955892563
1750555353530010600,2.9820107421875,-0.007562499959021807,-0.0012374999932944775,-0.05087500065565109
1750555353539615500,2.991615478515625,-0.011274999938905239,0.035337500274181366,-0.017875000834465027
1750555353549220600,3.001220703125,0.0009624999947845936,0.032862499356269836,0.0004124999977648258
1750555353558825700,3.01082568359375,0.018012499436736107,0.02186249941587448,-0.0056374999694526196
1750555353568430600,3.0204306640625,0.03272499889135361,0.02433750033378601,-0.024062499403953552
1750555353578035700,3.03003564453125,0.0387750007212162,0.04028749838471413,-0.028875000774860382
1750555353587640800,3.039640869140625,0.025437500327825546,0.07328750193119049,-0.009349999949336052
1750555353597245700,3.04924560546875,0.007012499962002039,0.09157499670982361,0.02488750033080578
1750555353606850600,3.0588505859375,-0.005087499972432852,0.09281250089406967,0.057887498289346695
1750555353616456000,3.0684560546875,-0.006324999965727329,0.05486249923706055,0.07369999587535858
1750555353626060800,3.078060791015625,0.002199999988079071,0.020762499421834946,0.057887498289346695
1750555353635666000,3.087666015625,0.004674999974668026,0.0170499999076128,0.01993750035762787
1750555353645270800,3.097270751953125,0.0034374999813735485,0.028049999848008156,-0.008112499490380287
1750555353654876000,3.1068759765625,-0.0002749999985098839,0.025575000792741776,-0.019112499430775642
1750555353664481000,3.11648095703125,-0.003987499978393316,0.010862499475479126,-0.011824999935925007
1750555353674086000,3.1260859375,-0.03203750029206276,-0.08195000141859055,-0.025299999862909317
1750555353683691300,3.135691162109375,-0.028324998915195465,-0.14300000667572021,-0.026537500321865082
1750555353693296000,3.145296142578125,0.0009624999947845936,-0.12347500026226044,-0.022824998944997787
1750555353702901200,3.1549013671875,0.02419999986886978,-0.08442500233650208,-0.0411125011742115
1750555353712506400,3.16450634765625,0.03396249935030937,-0.06847500056028366,-0.07782500237226486
1750555353722111200,3.174111328125,0.037675000727176666,-0.06476250290870667,-0.1046374961733818
1750555353731716400,3.18371630859375,0.03396249935030937,-0.052662499248981476,-0.10216250270605087
1750555353741321200,3.1933212890625,0.01691249944269657,-0.037950001657009125,-0.07782500237226486
1750555353750926300,3.20292626953125,0.002199999988079071,-0.008662499487400055,-0.04729999974370003
1750555353760531500,3.212531494140625,0.002199999988079071,0.04262499883770943,-0.022824998944997787
1750555353770136600,3.222136474609375,0.011962499469518661,0.07686249911785126,-0.021587500348687172
1750555353779741700,3.23174169921875,0.01924999989569187,0.07562500238418579,-0.05087500065565109
1750555353789346600,3.2413466796875,0.008249999955296516,0.0635249987244606,-0.0826374962925911
1750555353798951400,3.250951416015625,-0.005087499972432852,0.037812501192092896,-0.10106249898672104
1750555353808556500,3.260556640625,-0.01732499897480011,-0.02199999988079071,-0.11811249703168869
1750555353818161700,3.27016162109375,-0.02227500081062317,-0.08923749625682831,-0.13158750534057617
1750555353827766800,3.279766845703125,-0.016087500378489494,-0.12952500581741333,-0.13392500579357147
1750555353837372000,3.289371826171875,-0.0015124999918043613,-0.12952500581741333,-0.12911249697208405
1750555353846976800,3.298976806640625,0.007012499962002039,-0.10876250267028809,-0.1266375035047531
1750555353856582000,3.308581787109375,0.015675000846385956,-0.08923749625682831,-0.1266375035047531
1750555353866187000,3.31818701171875,0.03148749843239784,-0.07218749821186066,-0.12292499840259552
1750555353875792000,3.3277919921875,0.04372499883174896,-0.05871250107884407,-0.10711249709129333
1750555353885397200,3.337397216796875,0.04001250118017197,-0.035475000739097595,-0.0765874981880188
1750555353895002000,3.347002197265625,0.029012499377131462,-0.00494999997317791,-0.03506249934434891
1750555353904607000,3.35660693359375,0.020487500354647636,0.01952499896287918,0.004124999977648258
1750555353914212000,3.366212158203125,0.021724998950958252,0.05362499877810478,0.02722499892115593
1750555353923817200,3.375817138671875,0.0364375002682209,0.09033749997615814,0.03946249932050705
1750555353933422000,3.385422119140625,0.05596249923110008,0.10986249893903732,0.04441250115633011
1750555353943027200,3.395027099609375,0.06201250106096268,0.11604999750852585,0.04441250115633011
1750555353952632300,3.40463232421875,0.05596249923110008,0.1013374999165535,0.03946249932050705
1750555353962237400,3.414237548828125,0.0387750007212162,0.05362499877810478,0.02969999983906746
1750555353971842300,3.42384228515625,0.030249999836087227,-0.006187499966472387,0.013887500390410423
1750555353981447700,3.43344775390625,0.02419999986886978,-0.062424998730421066,-0.0032999999821186066
1750555353991052500,3.443052490234375,0.01924999989569187,-0.10999999940395355,-0.016637500375509262
1750555354000657400,3.452657470703125,0.009487500414252281,-0.12347500026226044,-0.022824998944997787
1750555354010262800,3.4622626953125,0.0034374999813735485,-0.10999999940395355,-0.019112499430775642
1750555354019867600,3.47186767578125,0.002199999988079071,-0.08195000141859055,-0.0008249999955296516
1750555354029472500,3.481472412109375,-0.0002749999985098839,-0.03918749839067459,0.028462499380111694
1750555354039078000,3.491077880859375,-0.008799999952316284,0.004812499973922968,0.050462499260902405
1750555354048682800,3.500682861328125,-0.018562499433755875,0.04633750021457672,0.06146249920129776
1750555354058287600,3.51028759765625,-0.02474999986588955,0.07686249911785126,0.06270000338554382
1750555354067892700,3.519892822265625,-0.02227500081062317,0.08304999768733978,0.06393750011920929
1750555354077497900,3.529497802734375,-0.01251249946653843,0.06710000336170197,0.05898749828338623
1750555354087102700,3.539102783203125,-0.0002749999985098839,0.04633750021457672,0.045649997889995575
1750555354096708000,3.5487080078125,0.0009624999947845936,0.018287500366568565,0.02969999983906746
1750555354106313000,3.55831298828125,-0.003987499978393316,-0.015949999913573265,0.012649999931454659
1750555354115918000,3.56791796875,-0.006324999965727329,-0.05142499879002571,-0.0056374999694526196
1750555354125523200,3.577523193359375,-0.01251249946653843,-0.07699999958276749,-0.027637500315904617
1750555354135128000,3.587128173828125,-0.01251249946653843,-0.07823749631643295,-0.05087500065565109
1750555354144733200,3.596733154296875,-0.010037500411272049,-0.06476250290870667,-0.06929999589920044
1750555354154338300,3.60633837890625,-0.007562499959021807,-0.04895000159740448,-0.0728750005364418
1750555354163943400,3.615943359375,-0.002749999985098839,-0.032999999821186066,-0.0668250024318695
1750555354173548300,3.62554833984375,0.002199999988079071,-0.01966249942779541,-0.05582499876618385
1750555354183153200,3.635153076171875,0.0034374999813735485,-0.015949999913573265,-0.0411125011742115
1750555354192758500,3.644758544921875,0.002199999988079071,-0.018424998968839645,-0.024062499403953552
1750555354202363400,3.65436328125,0.005912499967962503,-0.035475000739097595,-0.0056374999694526196
1750555354211968300,3.66396826171875,0.005912499967962503,-0.05142499879002571,0.0016499999910593033
1750555354221573600,3.67357373046875,0.002199999988079071,-0.04895000159740448,-0.002062499988824129
1750555354231178800,3.6831787109375,-0.0015124999918043613,-0.030662499368190765,-0.011824999935925007
1750555354240783600,3.69278369140625,-0.008799999952316284,-0.018424998968839645,-0.020349999889731407
1750555354250388500,3.702388427734375,-0.011274999938905239,-0.006187499966472387,-0.022824998944997787
1750555354259993900,3.711993896484375,-0.016087500378489494,0.0035749999806284904,-0.020349999889731407
1750555354269598700,3.7215986328125,-0.02227500081062317,-0.0012374999932944775,-0.013062499463558197
1750555354279203800,3.731203857421875,-0.01979999989271164,-0.00989999994635582,-0.008112499490380287
1750555354288809000,3.74080908203125,-0.013749999925494194,-0.028187500312924385,-0.004537499975413084
1750555354298413800,3.750413818359375,-0.007562499959021807,-0.04166249930858612,-0.008112499490380287
1750555354308019000,3.76001904296875,-0.002749999985098839,-0.04647500067949295,-0.021587500348687172
1750555354317624000,3.7696240234375,0.002199999988079071,-0.042762499302625656,-0.03629999980330467
1750555354327229000,3.77922900390625,0.004674999974668026,-0.035475000739097595,-0.03753750026226044
1750555354336834000,3.788833984375,0.0034374999813735485,-0.03671250119805336,-0.025299999862909317
1750555354346439200,3.798439208984375,0.002199999988079071,-0.03423750028014183,-0.009349999949336052
1750555354356044000,3.8080439453125,-0.0015124999918043613,-0.01347499992698431,0.006462499964982271
1750555354365649200,3.817649169921875,-0.0002749999985098839,0.006049999967217445,0.013887500390410423
1750555354375254000,3.82725390625,0.008249999955296516,0.015812499448657036,0.008937500417232513
1750555354384859400,3.836859375,0.011962499469518661,0.0085249999538064,-0.0032999999821186066
1750555354394464300,3.84646435546875,0.014437500387430191,0,-0.014299999922513962
1750555354404069000,3.856069091796875,0.011962499469518661,-0.006187499966472387,-0.019112499430775642
1750555354413674200,3.86567431640625,0.008249999955296516,-0.015949999913573265,-0.019112499430775642
1750555354423279400,3.875279296875,0.005912499967962503,-0.020899999886751175,-0.020349999889731407
1750555354432884200,3.88488427734375,0.010724999941885471,-0.01718750037252903,-0.021587500348687172
1750555354442489000,3.894489013671875,0.018012499436736107,-0.0037124999798834324,-0.022824998944997787
1750555354452094500,3.904094482421875,0.01691249944269657,0.006049999967217445,-0.016637500375509262
1750555354461699600,3.913699462890625,0.01691249944269657,0.0170499999076128,-0.010587500408291817
1750555354471304400,3.923304443359375,0.021724998950958252,0.02681249938905239,-0.0008249999955296516
1750555354480909600,3.93290966796875,0.029012499377131462,0.030524998903274536,0.004124999977648258
1750555354490514700,3.9425146484375,0.03272499889135361,0.032862499356269836,0.0004124999977648258
1750555354500119600,3.95211962890625,0.029012499377131462,0.030524998903274536,-0.004537499975413084
1750555354509724700,3.961724609375,0.01924999989569187,0.02433750033378601,-0.014299999922513962
1750555354519329800,3.971329833984375,0.005912499967962503,0.020762499421834946,-0.021587500348687172
1750555354528934700,3.9809345703125,0.002199999988079071,0.00976249948143959,-0.030112499371170998
1750555354538539800,3.990539794921875,0.010724999941885471,-0.00989999994635582,-0.03987500071525574
1750555354548144600,4.00014453125,0.01924999989569187,-0.02694999985396862,-0.04358749836683273
1750555354557750000,4.00975,0.020487500354647636,-0.04166249930858612,-0.03863750025629997
1750555354567354600,4.019354736328125,0.010724999941885471,-0.03918749839067459,-0.03629999980330467
1750555354576959700,4.028959716796875,-0.0015124999918043613,-0.0147124994546175,-0.03863750025629997
1750555354586564900,4.03856494140625,-0.006324999965727329,0.0170499999076128,-0.0411125011742115
1750555354596170000,4.048169921875,0.0034374999813735485,0.0317624993622303,-0.0411125011742115
1750555354605775000,4.057775146484375,0.014437500387430191,0.02433750033378601,-0.03506249934434891
1750555354615380000,4.0673798828125,0.020487500354647636,-0.002474999986588955,-0.027637500315904617
1750555354624985000,4.076985107421875,0.018012499436736107,-0.02199999988079071,-0.027637500315904617
1750555354634590000,4.08658984375,0.011962499469518661,-0.030662499368190765,-0.025299999862909317
1750555354644195000,4.096195068359375,0.004674999974668026,-0.0317624993622303,-0.016637500375509262
1750555354653800200,4.10580029296875,-0.002749999985098839,-0.01223750039935112,-0.008112499490380287
1750555354663405000,4.115405029296875,-0.010037500411272049,0.023099999874830246,-0.008112499490380287
1750555354673010400,4.125010498046875,-0.01732499897480011,0.05128749832510948,-0.015537500381469727
1750555354682615300,4.134615234375,-0.02227500081062317,0.057337500154972076,-0.03987500071525574
1750555354692220400,4.144220458984375,-0.01979999989271164,0.045099999755620956,-0.08882500231266022
1750555354701825500,4.153825439453125,-0.013749999925494194,0.004812499973922968,-0.15358750522136688
1750555354711430700,4.1634306640625,-0.006324999965727329,-0.057475000619888306,-0.22068749368190765
1750555354721035500,4.173035400390625,0.002199999988079071,-0.11247500032186508,-0.2732124924659729
1750555354730640400,4.182640380859375,0.009487500414252281,-0.15028749406337738,-0.3086875081062317
1750555354740245800,4.192245849609375,0.007012499962002039,-0.17352500557899475,-0.3221625089645386
1750555354749850600,4.2018505859375,-0.007562499959021807,-0.17723749577999115,-0.3282124996185303
1750555354759455700,4.211455810546875,-0.03203750029206276,-0.1467124968767166,-0.33192500472068787
1750555354769060600,4.221060546875,-0.04179999977350235,-0.10271249711513519,-0.33316248655319214
1750555354778665700,4.230665771484375,-0.040562499314546585,-0.05376249924302101,-0.3172124922275543
1750555354788270800,4.240270751953125,-0.035750001668930054,0.002337499987334013,-0.27197501063346863
1750555354797876000,4.2498759765625,-0.03684999793767929,0.05128749832510948,-0.21587499976158142
1750555354807480800,4.259480712890625,-0.03684999793767929,0.07933750003576279,-0.171875
1750555354817085700,4.269085693359375,-0.04179999977350235,0.06462500244379044,-0.14492499828338623
1750555354826691000,4.278691162109375,-0.05156249925494194,0.03657500073313713,-0.15111249685287476
1750555354836296000,4.2882958984375,-0.06379999965429306,0.035337500274181366,-0.17434999346733093
1750555354845901000,4.297901123046875,-0.07603749632835388,0.04881250113248825,-0.16458749771118164
1750555354855506000,4.307505859375,-0.09184999763965607,0.06710000336170197,-0.07411249727010727
1750555354865111000,4.317111083984375,-0.13337500393390656,0.06462500244379044,0.11893749982118607
1750555354874716200,4.326716064453125,-0.17613749206066132,0.08910000324249268,0.3913249969482422
1750555354884321300,4.3363212890625,-0.20308749377727509,0.11838749796152115,0.7138999700546265
1750555354893926100,4.345926025390625,-0.19813749194145203,0.08304999768733978,1.0742875337600708
1750555354903531300,4.35553125,-0.1443749964237213,-0.08071249723434448,1.5934875011444092
1750555354913136400,4.365136474609375,-0.1297999918460846,-0.41304999589920044,2.447499990463257
1750555354922741500,4.374741455078125,-0.09184999763965607,-0.6036249995231628,3.5384249687194824
1750555354932346400,4.384346435546875,-0.057612501084804535,-0.5229125022888184,4.800537586212158
1750555354941951200,4.393951171875,-0.028324998915195465,-0.48881250619888306,6.033225059509277
1750555354951556600,4.403556640625,0.09872499853372574,-0.2199999988079071,6.867575168609619
1750555354961161500,4.413161376953125,0.2513499855995178,0.10257499665021896,7.180387496948242
1750555354970766300,4.422766357421875,0.3686375021934509,0.24186250567436218,7.000812530517578
1750555354980371500,4.432371337890625,0.30153748393058777,0.24310000240802765,6.530425071716309
1750555354989976800,4.441976806640625,0.0009624999947845936,-0.10395000129938126,5.965987682342529
1750555354999581400,4.45158154296875,-0.2910875082015991,-0.5669124722480774,5.212212562561035
1750555355009186800,4.461186767578125,-0.40466248989105225,-0.8772500157356262,4.212862491607666
1750555355018791700,4.470791748046875,-0.38266250491142273,-0.9762499928474426,3.1755623817443848
1750555355028396800,4.480396728515625,-0.27390000224113464,-1.0495375394821167,2.28621244430542
1750555355038001700,4.490001708984375,-0.16637499630451202,-1.053112506866455,1.571487545967102
1750555355047606800,4.499606689453125,-0.1200374960899353,-0.9542499780654907,1.0400500297546387
1750555355057212000,4.5092119140625,-0.13461250066757202,-0.7574874758720398,0.6796625256538391
1750555355066816800,4.518816650390625,-0.18232500553131104,-0.4483875036239624,0.47437500953674316
1750555355076422000,4.528421875,-0.25808748602867126,-0.12828749418258667,0.3975124955177307
1750555355086027000,4.538027099609375,-0.320374995470047,0.14162500202655792,0.36684998869895935
1750555355095632000,4.5476318359375,-0.3716624975204468,0.32243749499320984,0.3240875005722046
1750555355105237000,4.557237060546875,-0.4204750061035156,0.3371500074863434,0.2190375030040741
1750555355114842000,4.566842041015625,-0.4474250078201294,0.24543750286102295,0.02969999983906746
1750555355124447200,4.576447265625,-0.4351874887943268,0.19786250591278076,-0.2194499969482422
1750555355134052000,4.586052001953125,-0.3997125029563904,0.2381500005722046,-0.4907374978065491
1750555355143657200,4.5956572265625,-0.33371248841285706,0.3334375023841858,-0.7913125157356262
1750555355153262000,4.605261962890625,-0.256850004196167,0.4054875075817108,-1.1467499732971191
1750555355162867200,4.6148671875,-0.1956624984741211,0.32491248846054077,-1.5878499746322632
1750555355172472300,4.624472412109375,-0.15908749401569366,0.16238750517368317,-2.103337526321411
1750555355182077400,4.634077392578125,-0.15661250054836273,0.0035749999806284904,-2.6030125617980957
1750555355191682300,4.643682373046875,-0.1859000027179718,-0.08442500233650208,-3.056349992752075
1750555355201287400,4.653287353515625,-0.23361249268054962,-0.025712499395012856,-3.532787561416626
1750555355210892500,4.662892578125,-0.2971374988555908,0.16362500190734863,-4.039750099182129
1750555355220497400,4.672497314453125,-0.39489999413490295,0.2516250014305115,-4.562662601470947
1750555355230102500,4.6821025390625,-0.3863750100135803,0.2246749997138977,-5.05257511138916
1750555355239707600,4.691707763671875,-0.2751374840736389,0.028049999848008156,-5.333624839782715
1750555355249312500,4.7013125,-0.17861250042915344,-0.30428749322891235,-5.375150203704834
1750555355258917400,4.71091748046875,0.03272499889135361,-0.4558124840259552,-5.349437236785889
1750555355268522800,4.720522705078125,0.3686375021934509,-0.3971000015735626,-5.210149765014648
1750555355278127600,4.730127685546875,0.5801125168800354,-0.3115749955177307,-4.721475124359131
1750555355287732700,4.739732666015625,0.6166874766349792,-0.2615250051021576,-3.9237000942230225
1750555355297337900,4.749337890625,0.5263500213623047,-0.20528750121593475,-2.9928250312805176
1750555355306942700,4.758942626953125,0.35887500643730164,-0.08923749625682831,-2.1595749855041504
1750555355316547800,4.7685478515625,0.20748749375343323,0.17215000092983246,-1.6208499670028687
1750555355326152700,4.778152587890625,0.1377750039100647,0.4482499957084656,-1.3593250513076782
1750555355335758000,4.787758056640625,0.15372499823570251,0.6682500243186951,-1.194462537765503
1750555355345363000,4.797363037109375,0.15125000476837158,0.7768750190734863,-0.8999375104904175
1750555355354968000,4.806968017578125,0.14877499639987946,0.7550125122070312,-0.4345000088214874
1750555355364573200,4.8165732421875,0.16101250052452087,0.7000125050544739,0.023649999871850014
1750555355374178000,4.826177978515625,0.1597750037908554,0.5839625000953674,0.31322500109672546
1750555355383783000,4.835782958984375,0.15729999542236328,0.4141499996185303,0.3718000054359436
1750555355393388000,4.845387939453125,0.1414874941110611,0.20886249840259552,0.2679874897003174
1750555355402993200,4.8549931640625,0.11096250265836716,0.02186249941587448,0.10917499661445618
1750555355412598000,4.864597900390625,0.07919999957084656,-0.08923749625682831,-0.006874999962747097
1750555355422203100,4.874203125,0.04867500066757202,-0.12718750536441803,-0.03258749842643738
1750555355431808500,4.88380859375,0.01924999989569187,-0.10147500038146973,-0.009349999949336052
1750555355441413400,4.893413330078125,0.0034374999813735485,-0.0672374963760376,0.01993750035762787
1750555355451018500,4.9030185546875,0.010724999941885471,-0.045237500220537186,0.05169999971985817
1750555355460623400,4.912623291015625,0.020487500354647636,-0.018424998968839645,0.10064999759197235
1750555355470228500,4.922228515625,0.04001250118017197,-0.035475000739097595,0.1775124967098236
1750555355479833600,4.93183349609375,0.05348749831318855,-0.09776250272989273,0.27527499198913574
1750555355489438700,4.941438720703125,0.06324999779462814,-0.12718750536441803,0.3302749991416931
1750555355499043600,4.951043701171875,0.07301250100135803,-0.07947500050067902,0.3180375099182129
1750555355508648400,4.9606484375,0.0705375000834465,0.007287499960511923,0.25203749537467957
1750555355518253800,4.97025390625,0.06201250106096268,0.10257499665021896,0.16417500376701355
1750555355527858700,4.979858642578125,0.04619999974966049,0.14657500386238098,0.09693749994039536
1750555355537463600,4.989463623046875,0.021724998950958252,0.14781250059604645,0.07122500240802765
1750555355547068700,4.999068603515625,-0.007562499959021807,0.11233749985694885,0.08717499673366547
1750555355556673800,5.008673828125,-0.03203750029206276,0.04386249929666519,0.12251249700784683
1750555355566279000,5.01827880859375,-0.05403750017285347,-0.01718750037252903,0.14093749225139618
1750555355575884000,5.027884033203125,-0.06379999965429306,-0.05142499879002571,0.1311749964952469
1750555355585489000,5.037489013671875,-0.057612501084804535,-0.09171249717473984,0.10670000314712524
1750555355595094000,5.047093994140625,-0.043037500232458115,-0.1307625025510788,0.06270000338554382
1750555355604699000,5.056698974609375,-0.023512499406933784,-0.13571250438690186,0.015124999918043613
1750555355614304000,5.066303955078125,-0.0002749999985098839,-0.10147500038146973,-0.021587500348687172
1750555355623909000,5.0759091796875,0.014437500387430191,-0.042762499302625656,-0.03987500071525574
1750555355633514000,5.085513916015625,0.02667500078678131,0.01209999993443489,-0.03382499888539314
1750555355643119000,5.095119140625,0.0387750007212162,0.02433750033378601,0.005224999971687794
1750555355652724200,5.10472412109375,0.05101250112056732,0.004812499973922968,0.05664999783039093
1750555355662329000,5.1143291015625,0.06201250106096268,-0.020899999886751175,0.09569999575614929
1750555355671934200,5.123934326171875,0.06696250289678574,-0.045237500220537186,0.11275000125169754
1750555355681539300,5.133539306640625,0.06201250106096268,-0.06971249729394913,0.09941250085830688
1750555355691144200,5.143144287109375,0.04619999974966049,-0.07452499866485596,0.060224998742341995
1750555355700749300,5.152749267578125,0.03272499889135361,-0.03918749839067459,0.018699999898672104
1750555355710354400,5.1623544921875,0.03272499889135361,0.010862499475479126,-0.006874999962747097
1750555355719959600,5.17195947265625,0.03272499889135361,0.05857500061392784,-0.014299999922513962
1750555355729564400,5.181564453125,0.03396249935030937,0.08786249905824661,-0.013062499463558197
1750555355739169500,5.19116943359375,0.025437500327825546,0.07562500238418579,-0.008112499490380287
1750555355748774700,5.200774658203125,0.014437500387430191,0.04028749838471413,-0.002062499988824129
1750555355758379800,5.2103798828125,0.011962499469518661,-0.01347499992698431,-0.002062499988824129
1750555355767984600,5.219984619140625,0.01924999989569187,-0.062424998730421066,-0.014299999922513962
1750555355777589800,5.22958984375,0.03272499889135361,-0.08195000141859055,-0.025299999862909317
1750555355787194600,5.239194580078125,0.0424874983727932,-0.08676250278949738,-0.030112499371170998
1750555355796800000,5.248800048828125,0.04619999974966049,-0.06366249918937683,-0.027637500315904617
1750555355806404900,5.25840478515625,0.037675000727176666,-0.03671250119805336,-0.022824998944997787
1750555355816009700,5.268009765625,0.025437500327825546,-0.023237500339746475,-0.026537500321865082
1750555355825614600,5.277614501953125,0.010724999941885471,-0.015949999913573265,-0.03629999980330467
1750555355835220000,5.287219970703125,-0.002749999985098839,-0.00989999994635582,-0.04729999974370003
1750555355844824800,5.296824951171875,-0.013749999925494194,-0.002474999986588955,-0.04839999973773956
1750555355854430000,5.306429931640625,-0.01251249946653843,0.007287499960511923,-0.03753750026226044
1750555355864035000,5.31603515625,-0.011274999938905239,0.02186249941587448,-0.015537500381469727
1750555355873640000,5.325639892578125,-0.01251249946653843,0.03657500073313713,0.005224999971687794
1750555355883244800,5.335244873046875,-0.016087500378489494,0.04028749838471413,0.02488750033080578
1750555355892850000,5.344849853515625,-0.016087500378489494,0.007287499960511923,0.03217500075697899
1750555355902455000,5.354455078125,-0.010037500411272049,-0.035475000739097595,0.005224999971687794
1750555355912060200,5.36406005859375,0.0009624999947845936,-0.08071249723434448,-0.03987500071525574
1750555355921665000,5.3736650390625,0.0034374999813735485,-0.11247500032186508,-0.08139999955892563
1750555355931270100,5.383270263671875,-0.006324999965727329,-0.11247500032186508,-0.09735000133514404
1750555355940875300,5.392875244140625,-0.016087500378489494,-0.07095000147819519,-0.08387500047683716
1750555355950480100,5.402480224609375,-0.01732499897480011,-0.00494999997317791,-0.0448249988257885
1750555355960085200,5.412085205078125,-0.01732499897480011,0.057337500154972076,0.011412499472498894
1750555355969690400,5.4216904296875,-0.007562499959021807,0.08538749814033508,0.05664999783039093
1750555355979295200,5.431295166015625,0.009487500414252281,0.09281250089406967,0.07246249914169312
1750555355988900400,5.440900390625,0.01691249944269657,0.07452499866485596,0.06641250103712082
1750555355998505500,5.45050537109375,0.020487500354647636,0.010862499475479126,0.035887498408555984
1750555356008110300,5.4601103515625,0.015675000846385956,-0.04895000159740448,-0.0032999999821186066
1750555356017715500,5.469715576171875,-0.0002749999985098839,-0.08923749625682831,-0.027637500315904617
1750555356027320600,5.479320556640625,-0.021037500351667404,-0.0929500013589859,-0.027637500315904617
1750555356036925400,5.488925537109375,-0.028324998915195465,-0.054999999701976776,-0.011824999935925007
1750555356046530300,5.4985302734375,-0.030799999833106995,-0.0037124999798834324,0.007699999958276749
1750555356056135700,5.5081357421875,-0.02956249937415123,0.030524998903274536,0.010174999944865704
1750555356065740500,5.517740478515625,-0.02227500081062317,0.06462500244379044,-0.011824999935925007
1750555356075345700,5.527345703125,-0.007562499959021807,0.09033749997615814,-0.0448249988257885
1750555356084950500,5.536950439453125,0.01691249944269657,0.08181250095367432,-0.07039999961853027
1750555356094555600,5.5465556640625,0.037675000727176666,0.05609999969601631,-0.0765874981880188
1750555356104160800,5.556160888671875,0.04496249929070473,0.023099999874830246,-0.0728750005364418
1750555356113765600,5.565765625,0.04496249929070473,-0.00989999994635582,-0.06311249732971191
1750555356123370800,5.575370849609375,0.04124999791383743,-0.0317624993622303,-0.05087500065565109
1750555356132975900,5.584975830078125,0.03148749843239784,-0.04166249930858612,-0.03135000169277191
1750555356142580700,5.594580810546875,0.015675000846385956,-0.04399999976158142,-0.014299999922513962
1750555356152185900,5.604185791015625,-0.002749999985098839,-0.030662499368190765,-0.010587500408291817
1750555356161791000,5.613791015625,-0.007562499959021807,-0.020899999886751175,-0.019112499430775642
1750555356171395800,5.623395751953125,-0.003987499978393316,-0.01347499992698431,-0.03258749842643738
1750555356181001200,5.633001220703125,0.004674999974668026,0.010862499475479126,-0.03506249934434891
1750555356190606000,5.642606201171875,0.018012499436736107,0.057337500154972076,-0.014299999922513962
1750555356200211000,5.6522109375,0.02667500078678131,0.10986249893903732,0.011412499472498894
1750555356209816000,5.661816162109375,0.029012499377131462,0.1331000030040741,0.023649999871850014
1750555356219421200,5.671421142578125,0.021724998950958252,0.11233749985694885,0.013887500390410423
1750555356229026300,5.6810263671875,0.008249999955296516,0.04881250113248825,-0.013062499463558197
1750555356238631400,5.69063134765625,-0.0015124999918043613,-0.015949999913573265,-0.05335000157356262
1750555356248236000,5.700236083984375,-0.005087499972432852,-0.05376249924302101,-0.09363749623298645
1750555356257841400,5.70984130859375,-0.0002749999985098839,-0.06971249729394913,-0.1083500012755394
1750555356267446300,5.7194462890625,0.005912499967962503,-0.06599999964237213,-0.09239999949932098
1750555356277051100,5.729051025390625,0.011962499469518661,-0.042762499302625656,-0.05458749830722809
1750555356286656500,5.738656494140625,0.015675000846385956,0.007287499960511923,-0.019112499430775642
1750555356296261400,5.748261474609375,0.010724999941885471,0.05128749832510948,0.004124999977648258
1750555356305866500,5.757866455078125,0.0034374999813735485,0.0658624991774559,0.015124999918043613
1750555356315471600,5.7674716796875,-0.003987499978393316,0.05362499877810478,0.013887500390410423
1750555356325076500,5.777076416015625,-0.003987499978393316,0.0340999998152256,0.005224999971687794
1750555356334681600,5.786681640625,-0.002749999985098839,0.01209999993443489,-0.0008249999955296516
1750555356344286700,5.79628662109375,0.0034374999813735485,-0.0012374999932944775,-0.009349999949336052
1750555356353891600,5.8058916015625,0.011962499469518661,0.0170499999076128,-0.016637500375509262
1750555356363496400,5.815496337890625,0.021724998950958252,0.05252499878406525,-0.019112499430775642
1750555356373101600,5.8251015625,0.025437500327825546,0.09033749997615814,-0.013062499463558197
1750555356382706700,5.834706787109375,0.022962499409914017,0.10381250083446503,-0.0008249999955296516
1750555356392311600,5.8443115234375,0.010724999941885471,0.1013374999165535,0.004124999977648258
1750555356401916700,5.853916748046875,-0.0002749999985098839,0.09033749997615814,0.010174999944865704
1750555356411521800,5.863521728515625,0.0009624999947845936,0.07809999585151672,0.004124999977648258
1750555356421127000,5.873126953125,0.009487500414252281,0.06833750009536743,-0.009349999949336052
1750555356430731800,5.882731689453125,0.021724998950958252,0.057337500154972076,-0.030112499371170998
1750555356440337000,5.8923369140625,0.03519999980926514,0.057337500154972076,-0.05087500065565109
1750555356449942000,5.90194189453125,0.037675000727176666,0.04028749838471413,-0.05939999967813492
1750555356459547100,5.911547119140625,0.029012499377131462,0.007287499960511923,-0.05939999967813492
1750555356469152000,5.921152099609375,0.01691249944269657,-0.02199999988079071,-0.05458749830722809
1750555356478756900,5.9307568359375,0.0034374999813735485,-0.0317624993622303,-0.04358749836683273
1750555356488362000,5.940362060546875,-0.002749999985098839,-0.01223750039935112,-0.030112499371170998
1750555356497967000,5.949967041015625,0.0009624999947845936,0.02433750033378601,-0.024062499403953552
1750555356507572200,5.959572265625,0.011962499469518661,0.0635249987244606,-0.03135000169277191
1750555356517177000,5.969177001953125,0.025437500327825546,0.08538749814033508,-0.04839999973773956
1750555356526782000,5.978781982421875,0.03272499889135361,0.06462500244379044,-0.05939999967813492
1750555356536387000,5.988386962890625,0.03396249935030937,0.0340999998152256,-0.06558749824762344
1750555356545992200,5.9979921875,0.04001250118017197,0.02186249941587448,-0.05458749830722809
1750555356555597000,6.00759716796875,0.04496249929070473,0.00976249948143959,-0.016637500375509262
1750555356565202000,6.017201904296875,0.04743750020861626,-0.008662499487400055,0.01993750035762787
1750555356574807300,6.026807373046875,0.04372499883174896,-0.00989999994635582,0.026124998927116394
1750555356584412200,6.036412109375,0.02667500078678131,-0.002474999986588955,0.007699999958276749
1750555356594017300,6.046017333984375,0.009487500414252281,0.0035749999806284904,-0.019112499430775642
1750555356603622400,6.055622314453125,-0.0015124999918043613,0.0170499999076128,-0.04606249928474426
1750555356613227300,6.065227294921875,-0.006324999965727329,0.04152499884366989,-0.06558749824762344
1750555356622832400,6.074832275390625,-0.0002749999985098839,0.06104999780654907,-0.07535000145435333
1750555356632437500,6.0844375,0.013199999928474426,0.07562500238418579,-0.08387500047683716
1750555356642042400,6.09404248046875,0.025437500327825546,0.06710000336170197,-0.09487500041723251
1750555356651647500,6.1036474609375,0.03272499889135361,0.037812501192092896,-0.10216250270605087
1750555356661252600,6.113252685546875,0.025437500327825546,0.004812499973922968,-0.09611249715089798
1750555356670857700,6.122857666015625,0.007012499962002039,-0.0317624993622303,-0.08016250282526016
1750555356680462600,6.132462646484375,-0.010037500411272049,-0.057475000619888306,-0.06063750013709068
1750555356690067500,6.1420673828125,-0.02474999986588955,-0.050187498331069946,-0.0448249988257885
1750555356699672600,6.151672607421875,-0.025849999859929085,-0.025712499395012856,-0.030112499371170998
1750555356709277700,6.161277587890625,-0.011274999938905239,0.0035749999806284904,-0.020349999889731407
1750555356718882600,6.170882568359375,0.005912499967962503,0.0317624993622303,-0.011824999935925007
1750555356728487700,6.18048779296875,0.013199999928474426,0.030524998903274536,-0.009349999949336052
1750555356738092800,6.1900927734375,0.009487500414252281,0.002337499987334013,-0.019112499430775642
1750555356747697700,6.19969775390625,0.002199999988079071,-0.03671250119805336,-0.0411125011742115
1750555356757302800,6.209302734375,-0.0015124999918043613,-0.07342500239610672,-0.06806249916553497
1750555356766908000,6.218907958984375,0.0009624999947845936,-0.0989999994635582,-0.08758749812841415
1750555356776512800,6.2285126953125,0.007012499962002039,-0.10395000129938126,-0.09611249715089798
1750555356786118000,6.238117919921875,0.014437500387430191,-0.09418749809265137,-0.08635000139474869
1750555356795723000,6.247722900390625,0.025437500327825546,-0.07218749821186066,-0.0668250024318695
1750555356805328000,6.257327880859375,0.029012499377131462,-0.029424998909235,-0.03987500071525574
1750555356814932700,6.2669326171875,0.02419999986886978,0.01209999993443489,-0.0056374999694526196
1750555356824538000,6.2765380859375,0.010724999941885471,0.0340999998152256,0.015124999918043613
1750555356834143000,6.28614306640625,0.0009624999947845936,0.04386249929666519,0.005224999971687794
1750555356843748000,6.295748046875,-0.006324999965727329,0.032862499356269836,-0.026537500321865082
1750555356853353000,6.30535302734375,-0.010037500411272049,0.010862499475479126,-0.06435000151395798
1750555356862958000,6.3149580078125,-0.01732499897480011,-0.00989999994635582,-0.09858749806880951
1750555356872563200,6.324563232421875,-0.033275000751018524,-0.01718750037252903,-0.12540000677108765
1750555356882168300,6.334168212890625,-0.05156249925494194,-0.02199999988079071,-0.15234999358654022
1750555356891773400,6.3437734375,-0.07232499867677689,-0.02447500079870224,-0.17668749392032623
1750555356901378300,6.35337841796875,-0.08937499672174454,-0.00494999997317791,-0.19511249661445618
1750555356910983200,6.362983154296875,-0.10779999941587448,0.020762499421834946,-0.19511249661445618
1750555356920588300,6.37258837890625,-0.1163249984383583,0.06710000336170197,-0.18535000085830688
1750555356930193400,6.382193359375,-0.1163249984383583,0.1391499936580658,-0.13282500207424164
1750555356939798300,6.39179833984375,-0.10779999941587448,0.22962500154972076,0.015124999918043613
1750555356949403400,6.4014033203125,-0.0882750004529953,0.29438748955726624,0.3583250045776367
1750555356959008500,6.411008544921875,-0.06627500057220459,0.27114999294281006,0.9435250163078308
1750555356968613400,6.42061328125,-0.04427500069141388,0.32862499356269836,1.7572499513626099
1750555356978218200,6.43021826171875,-0.08084999769926071,0.3957250118255615,2.7418875694274902
1750555356987823600,6.43982373046875,-0.09803749620914459,0.4984374940395355,3.6606624126434326
1750555356997428500,6.449428466796875,-0.03451250120997429,0.5387250185012817,4.4009623527526855
1750555357007033300,6.459033447265625,0.011962499469518661,0.40796250104904175,4.903112411499023
1750555357016638500,6.468638427734375,0.15248750150203705,0.3811500072479248,5.169449806213379
1750555357026243600,6.47824365234375,0.29782500863075256,0.19415000081062317,5.367312431335449
1750555357035848400,6.487848388671875,0.322299987077713,0.10257499665021896,5.49326229095459
1750555357045453600,6.49745361328125,0.23925000429153442,0.1648624986410141,5.529837608337402
1750555357055058700,6.50705859375,0.1280124932527542,0.05857500061392784,5.385737419128418
1750555357064663600,6.51666357421875,0.10724999755620956,-0.09418749809265137,4.936112403869629
1750555357074268700,6.5262685546875,0.15248750150203705,-0.20776249468326569,4.148099899291992
1750555357083873800,6.535873779296875,0.18906250596046448,-0.33605000376701355,3.1438000202178955
1750555357093478700,6.545478759765625,0.2147749960422516,-0.5473874807357788,2.135925054550171
1750555357103083800,6.555083740234375,0.20006249845027924,-0.7734375,1.288100004196167
1750555357112689000,6.56468896484375,0.1634874939918518,-0.9200124740600586,0.6943749785423279
1750555357122294000,6.5742939453125,0.15125000476837158,-0.9407749772071838,0.36079999804496765
1750555357131899000,6.58389892578125,0.18906250596046448,-0.9102500081062317,0.19593749940395355
1750555357141503700,6.593503662109375,0.2428250014781952,-0.8430125117301941,0.1274625062942505
1750555357151109000,6.603109130859375,0.2550624907016754,-0.8332499861717224,0.0919874981045723
1750555357160714000,6.6127138671875,0.2147749960422516,-0.8417750000953674,0.01746249943971634
1750555357170318800,6.62231884765625,0.15248750150203705,-0.7734375,-0.1266375035047531
1750555357179924200,6.63192431640625,0.10848750174045563,-0.5706250071525574,-0.35749998688697815
1750555357189529000,6.641529052734375,0.11219999939203262,-0.2652375102043152,-0.6898375153541565
1750555357199134000,6.651134033203125,0.1280124932527542,0.015812499448657036,-1.1529375314712524
1750555357208739000,6.660739013671875,0.1377750039100647,0.15015000104904175,-1.6867125034332275
1750555357218344200,6.67034423828125,0.12430000305175781,0.1368124932050705,-2.1913375854492188
1750555357227949000,6.679948974609375,0.05967500060796738,0.0635249987244606,-2.6104373931884766
1750555357237554200,6.68955419921875,-0.008799999952316284,0.04152499884366989,-2.987874984741211
1750555357247159300,6.6991591796875,-0.055275000631809235,0.05609999969601631,-3.3397374153137207
1750555357256764200,6.70876416015625,-0.06861250102519989,-0.006187499966472387,-3.647599935531616
1750555357266369300,6.718369384765625,-0.052799999713897705,-0.0672374963760376,-3.940887451171875
1750555357275974400,6.727974365234375,0.0009624999947845936,-0.04399999976158142,-4.235274791717529
1750555357285579300,6.737579345703125,0.0705375000834465,0.11838749796152115,-4.496662616729736
1750555357295184100,6.74718408203125,0.11219999939203262,0.21615000069141388,-4.606662273406982
1750555357304789500,6.75678955078125,0.14272500574588776,0.17586250603199005,-4.4868998527526855
1750555357314394400,6.766394287109375,0.16830000281333923,-0.002474999986588955,-4.087462425231934
1750555357323999500,6.77599951171875,0.19648750126361847,-0.21381250023841858,-3.4595000743865967
1750555357333604600,6.7856044921875,0.2648249864578247,-0.32010000944137573,-2.7240123748779297
1750555357343209500,6.79520947265625,0.3161124885082245,-0.3067624866962433,-1.9934749603271484
1750555357352814300,6.804814453125,0.30882498621940613,-0.11371249705553055,-1.3105125427246094
1750555357362419500,6.81441943359375,0.2330625057220459,0.13433749973773956,-0.6373124718666077
1750555357372024600,6.824024658203125,0.13901250064373016,0.4544374942779541,-0.06929999589920044
1750555357381629700,6.833629638671875,0.05348749831318855,0.8600624799728394,0.2899875044822693
1750555357391234600,6.843234619140625,-0.01251249946653843,1.115399956703186,0.4292750060558319
1750555357400839700,6.852839599609375,-0.04427500069141388,1.089687466621399,0.38032498955726624
1750555357410444500,6.862444580078125,-0.04908749833703041,0.8331124782562256,0.20198750495910645
1750555357420049700,6.872049560546875,-0.060087498277425766,0.4141499996185303,-0.0056374999694526196
1750555357429654500,6.881654541015625,-0.06627500057220459,-0.050187498331069946,-0.16087499260902405
1750555357439260000,6.891260009765625,-0.047849997878074646,-0.38981249928474426,-0.23416249454021454
1750555357448864800,6.90086474609375,-0.008799999952316284,-0.5743374824523926,-0.23663750290870667
1750555357458469600,6.9104697265625,0.025437500327825546,-0.5876749753952026,-0.1938749998807907
1750555357468074800,6.92007470703125,0.03148749843239784,-0.47286251187324524,-0.14135000109672546
1750555357477679900,6.929679931640625,0.009487500414252281,-0.2578125,-0.09611249715089798
1750555357487284700,6.93928466796875,-0.040562499314546585,-0.00989999994635582,-0.04729999974370003
1750555357496889900,6.948889892578125,-0.0906125009059906,0.202674999833107,0.026124998927116394
1750555357506494700,6.95849462890625,-0.12113749980926514,0.30896249413490295,0.113987497985363
1750555357516099800,6.968099853515625,-0.12732499837875366,0.2919124960899353,0.18246249854564667
1750555357525705000,6.977705078125,-0.11508750170469284,0.210099995136261,0.20074999332427979
1750555357535310000,6.98731005859375,-0.09927500039339066,0.08057499676942825,0.1714625060558319
1750555357544915000,6.9969150390625,-0.08579999953508377,-0.05142499879002571,0.11275000125169754
1750555357554519800,7.006519775390625,-0.08579999953508377,-0.15028749406337738,0.06393750011920929
1750555357564125200,7.016125244140625,-0.08703749626874924,-0.15523749589920044,0.04193750023841858
1750555357573730000,7.02572998046875,-0.0845625028014183,-0.07095000147819519,0.052937500178813934
1750555357583335000,7.0353349609375,-0.07603749632835388,0.037812501192092896,0.089649997651577
1750555357592940000,7.04493994140625,-0.06379999965429306,0.13805000483989716,0.13722500205039978
1750555357602545200,7.054545166015625,-0.057612501084804535,0.20762500166893005,0.19222499430179596
1750555357612150000,7.06414990234375,-0.05403750017285347,0.20514999330043793,0.23251250386238098
1750555357621755100,7.073755126953125,-0.043037500232458115,0.14038750529289246,0.23251250386238098
1750555357631360300,7.0833603515625,-0.018562499433755875,0.04262499883770943,0.1909874975681305
1750555357640965000,7.092965087890625,0.007012499962002039,-0.06366249918937683,0.11893749982118607
1750555357650570000,7.102570068359375,0.021724998950958252,-0.13323749601840973,0.040699999779462814
1750555357660175400,7.11217529296875,0.022962499409914017,-0.1564749926328659,-0.008112499490380287
1750555357669780200,7.1217802734375,0.020487500354647636,-0.11728750169277191,-0.030112499371170998
1750555357679385000,7.131385009765625,0.01691249944269657,-0.023237500339746475,-0.03258749842643738
1750555357688990200,7.140990234375,0.004674999974668026,0.0635249987244606,-0.017875000834465027
1750555357698595300,7.15059521484375,-0.006324999965727329,0.12815000116825104,-0.0056374999694526196
1750555357708200200,7.1602001953125,-0.007562499959021807,0.14781250059604645,0.012649999931454659
1750555357717805300,7.169805419921875,-0.0015124999918043613,0.11838749796152115,0.03946249932050705
1750555357727410400,7.179410400390625,-0.005087499972432852,0.06228749826550484,0.055412501096725464
1750555357737015300,7.189015380859375,-0.013749999925494194,-0.00494999997317791,0.052937500178813934
1750555357746620400,7.198620361328125,-0.011274999938905239,-0.05623750016093254,0.02722499892115593
1750555357756225500,7.2082255859375,-0.007562499959021807,-0.07576250284910202,-0.014299999922513962
1750555357765830400,7.217830322265625,-0.0002749999985098839,-0.04166249930858612,-0.05211250111460686
1750555357775435500,7.227435546875,0.009487500414252281,0.02186249941587448,-0.06806249916553497
1750555357785040600,7.23704052734375,0.02667500078678131,0.08057499676942825,-0.06311249732971191
1750555357794645500,7.2466455078125,0.04124999791383743,0.0976250022649765,-0.05335000157356262
1750555357804250600,7.256250732421875,0.04867500066757202,0.07328750193119049,-0.05706249922513962
1750555357813855500,7.26585546875,0.04001250118017197,0.020762499421834946,-0.06187500059604645
1750555357823460600,7.275460693359375,0.02419999986886978,-0.035475000739097595,-0.06435000151395798
1750555357833065700,7.285065673828125,0.0009624999947845936,-0.08195000141859055,-0.04358749836683273
1750555357842670600,7.294670654296875,-0.01251249946653843,-0.08318749815225601,-0.002062499988824129
1750555357852275700,7.304275634765625,-0.008799999952316284,-0.05376249924302101,0.038224998861551285
1750555357861880600,7.313880615234375,0.0009624999947845936,0,0.057887498289346695
1750555357871485700,7.323485595703125,0.010724999941885471,0.06228749826550484,0.055412501096725464
1750555357881090800,7.3330908203125,0.021724998950958252,0.10628750175237656,0.035887498408555984
1750555357890695700,7.34269580078125,0.02667500078678131,0.10628750175237656,0.006462499964982271
1750555357900300800,7.35230078125,0.02419999986886978,0.08057499676942825,-0.024062499403953552
1750555357909905700,7.36190576171875,0.020487500354647636,0.04262499883770943,-0.03506249934434891
1750555357919510800,7.3715107421875,0.027912499383091927,-0.008662499487400055,-0.024062499403953552
1750555357929116000,7.381115966796875,0.0364375002682209,-0.052662499248981476,0.0028874999843537807
1750555357938720800,7.390720703125,0.04619999974966049,-0.07218749821186066,0.030937500298023224
1750555357948325600,7.40032568359375,0.05224999785423279,-0.07095000147819519,0.04441250115633011
1750555357957931000,7.409930908203125,0.04743750020861626,-0.05623750016093254,0.040699999779462814
1750555357967535900,7.419535888671875,0.04496249929070473,-0.03671250119805336,0.02722499892115593
1750555357977140700,7.429140625,0.04372499883174896,-0.008662499487400055,0.015124999918043613
1750555357986745900,7.438745849609375,0.04372499883174896,0.023099999874830246,0.010174999944865704
1750555357996351000,7.44835107421875,0.0364375002682209,0.05857500061392784,0.006462499964982271
1750555358005955800,7.457955810546875,0.029012499377131462,0.07452499866485596,0.004124999977648258
1750555358015561000,7.46756103515625,0.021724998950958252,0.045099999755620956,-0.004537499975413084
1750555358025166000,7.477166015625,0.009487500414252281,-0.0147124994546175,-0.020349999889731407
1750555358034771000,7.48677099609375,0.002199999988079071,-0.07218749821186066,-0.03135000169277191
1750555358044376000,7.4963759765625,-0.003987499978393316,-0.0929500013589859,-0.03258749842643738
1750555358053981200,7.505981201171875,-0.003987499978393316,-0.07576250284910202,-0.021587500348687172
1750555358063586000,7.5155859375,-0.003987499978393316,-0.03671250119805336,-0.006874999962747097
1750555358073191000,7.52519091796875,-0.003987499978393316,0.013337500393390656,0.006462499964982271
1750555358082796300,7.53479638671875,-0.007562499959021807,0.059812501072883606,0.02241249941289425
1750555358092401200,7.544401123046875,-0.006324999965727329,0.07809999585151672,0.026124998927116394
1750555358102006000,7.554006103515625,-0.007562499959021807,0.07562500238418579,0.016224998980760574
1750555358111611100,7.563611083984375,-0.005087499972432852,0.04262499883770943,-0.0008249999955296516
1750555358121216300,7.57321630859375,0.005912499967962503,0.002337499987334013,-0.03506249934434891
1750555358130821000,7.582821044921875,0.014437500387430191,-0.02447500079870224,-0.07906249910593033
1750555358140426200,7.59242626953125,0.020487500354647636,-0.057475000619888306,-0.11082500219345093
1750555358150031400,7.60203125,0.027912499383091927,-0.08195000141859055,-0.1303499937057495
1750555358159636200,7.61163623046875,0.029012499377131462,-0.09652499854564667,-0.1303499937057495
1750555358169241000,7.621240966796875,0.02667500078678131,-0.07218749821186066,-0.11082500219345093
1750555358178846500,7.630846435546875,0.018012499436736107,-0.03918749839067459,-0.0765874981880188
1750555358188451300,7.640451416015625,0.007012499962002039,-0.00494999997317791,-0.05087500065565109
1750555358198056200,7.65005615234375,-0.002749999985098839,0.03904999792575836,-0.03629999980330467
1750555358207661300,7.659661376953125,-0.01251249946653843,0.0658624991774559,-0.03258749842643738
1750555358217266400,7.669266357421875,-0.008799999952316284,0.06462500244379044,-0.03987500071525574
1750555358226871600,7.67887158203125,-0.007562499959021807,0.0317624993622303,-0.05706249922513962
1750555358236476400,7.688476318359375,-0.008799999952316284,-0.015949999913573265,-0.07535000145435333
1750555358246081500,7.69808154296875,-0.011274999938905239,-0.052662499248981476,-0.0826374962925911
1750555358255686400,7.707686279296875,-0.01251249946653843,-0.07823749631643295,-0.07535000145435333
1750555358265291500,7.71729150390625,-0.01484999991953373,-0.07095000147819519,-0.05087500065565109
1750555358274896600,7.726896728515625,-0.021037500351667404,-0.02447500079870224,-0.014299999922513962
1750555358284501500,7.73650146484375,-0.028324998915195465,0.028049999848008156,0.01993750035762787
1750555358294106400,7.7461064453125,-0.033275000751018524,0.07081250101327896,0.040699999779462814
1750555358303711500,7.75571142578125,-0.035750001668930054,0.08057499676942825,0.043175000697374344
1750555358313316400,7.76531640625,-0.02956249937415123,0.0695749968290329,0.03464999794960022
1750555358322921500,7.77492138671875,-0.005087499972432852,0.04633750021457672,0.015124999918043613
1750555358332526600,7.784526611328125,0.025437500327825546,0.014574999921023846,0.0016499999910593033
1750555358342131700,7.794131591796875,0.05472499877214432,-0.025712499395012856,-0.006874999962747097
1750555358351736800,7.80373681640625,0.0681999996304512,-0.045237500220537186,-0.016637500375509262
1750555358361341700,7.813341796875,0.06943749636411667,-0.04166249930858612,-0.030112499371170998
1750555358370946800,7.82294677734375,0.06077500060200691,-0.01718750037252903,-0.0411125011742115
1750555358380551700,7.8325517578125,0.04743750020861626,0.02186249941587448,-0.04235000163316727
1750555358390156800,7.84215673828125,0.037675000727176666,0.07686249911785126,-0.03987500071525574
1750555358399761700,7.85176171875,0.03272499889135361,0.12457499653100967,-0.030112499371170998
1750555358409366500,7.861366455078125,0.02419999986886978,0.14781250059604645,-0.009349999949336052
1750555358418971600,7.8709716796875,0.020487500354647636,0.14781250059604645,0.013887500390410423
1750555358428576800,7.88057666015625,0.022962499409914017,0.10257499665021896,0.02241249941289425
1750555358438182000,7.890181884765625,0.027912499383091927,0.0340999998152256,0.011412499472498894
1750555358447786800,7.899786865234375,0.03148749843239784,-0.02694999985396862,-0.021587500348687172
1750555358457391900,7.909391845703125,0.029012499377131462,-0.06476250290870667,-0.06063750013709068
1750555358466996700,7.918996826171875,0.02667500078678131,-0.06599999964237213,-0.09239999949932098
1750555358476601600,7.9286015625,0.021724998950958252,-0.03423750028014183,-0.1046374961733818
1750555358486207000,7.93820703125,0.01691249944269657,0.014574999921023846,-0.09363749623298645
1750555358495811800,7.947811767578125,0.015675000846385956,0.057337500154972076,-0.0728750005364418
1750555358505417000,7.9574169921875,0.01924999989569187,0.06833750009536743,-0.05582499876618385
1750555358515021800,7.967021728515625,0.027912499383091927,0.04633750021457672,-0.0448249988257885
1750555358524627000,7.976626953125,0.0387750007212162,-0.008662499487400055,-0.0411125011742115
1750555358534231800,7.986231689453125,0.04001250118017197,-0.04647500067949295,-0.04839999973773956
1750555358543837000,7.9958369140625,0.027912499383091927,-0.054999999701976776,-0.05939999967813492
1750555358553442000,8.005442138671874,0.01691249944269657,-0.035475000739097595,-0.05582499876618385
1750555358563047000,8.015046875,0.008249999955296516,0.002337499987334013,-0.03382499888539314
1750555358572651800,8.02465185546875,0.007012499962002039,0.04881250113248825,-0.010587500408291817
1750555358582257000,8.0342568359375,0.014437500387430191,0.05609999969601631,-0.002062499988824129
1750555358591862000,8.043862060546875,0.020487500354647636,0.01209999993443489,-0.016637500375509262
1750555358601467100,8.053467041015624,0.021724998950958252,-0.050187498331069946,-0.0448249988257885
1750555358611072300,8.063072265625,0.01924999989569187,-0.10395000129938126,-0.05582499876618385
1750555358620677000,8.072677001953124,0.013199999928474426,-0.13928750157356262,-0.03629999980330467
1750555358630282000,8.082281982421875,0.011962499469518661,-0.13928750157356262,0.0028874999843537807
1750555358639887400,8.091887451171875,0.011962499469518661,-0.10147500038146973,0.0541750006377697
1750555358649492000,8.101491943359376,0.011962499469518661,-0.04399999976158142,0.10064999759197235
1750555358659097000,8.11109716796875,0.005912499967962503,0.004812499973922968,0.12498749792575836
1750555358668702200,8.1207021484375,0.0009624999947845936,0.04633750021457672,0.12498749792575836
1750555358678307000,8.13030712890625,-0.003987499978393316,0.09033749997615814,0.09693749994039536
1750555358687912200,8.139912109375,-0.01484999991953373,0.11357499659061432,0.04922499880194664
1750555358697517000,8.14951708984375,-0.025849999859929085,0.11604999750852585,0.005224999971687794
1750555358707122200,8.1591220703125,-0.025849999859929085,0.07562500238418579,-0.025299999862909317
1750555358716727300,8.168727294921876,-0.01979999989271164,0.023099999874830246,-0.05582499876618385
1750555358726332200,8.178332275390625,-0.006324999965727329,-0.02694999985396862,-0.0826374962925911
1750555358735937300,8.187937255859374,0.011962499469518661,-0.08799999952316284,-0.09982500225305557
1750555358745542400,8.19754248046875,0.02667500078678131,-0.12223749607801437,-0.11811249703168869
1750555358755147300,8.207147216796875,0.030249999836087227,-0.10147500038146973,-0.12058749794960022
1750555358764752100,8.216752197265626,0.020487500354647636,-0.040424998849630356,-0.10106249898672104
1750555358774357200,8.226357177734375,0.009487500414252281,0.035337500274181366,-0.0668250024318695
1750555358783962400,8.23596240234375,-0.0002749999985098839,0.08304999768733978,-0.03863750025629997
1750555358793567200,8.245567138671875,-0.003987499978393316,0.09157499670982361,-0.03506249934434891
1750555358803172400,8.25517236328125,-0.002749999985098839,0.06104999780654907,-0.05087500065565109
1750555358812777200,8.264777099609375,-0.0002749999985098839,0.02681249938905239,-0.07535000145435333
1750555358822382300,8.27438232421875,-0.006324999965727329,0.007287499960511923,-0.0826374962925911
1750555358831987200,8.2839873046875,-0.005087499972432852,-0.025712499395012856,-0.06435000151395798
1750555358841592300,8.29359228515625,-0.006324999965727329,-0.06366249918937683,-0.04235000163316727
1750555358851197400,8.303197509765624,-0.01251249946653843,-0.08318749815225601,-0.030112499371170998
1750555358860802300,8.31280224609375,-0.01732499897480011,-0.0989999994635582,-0.027637500315904617
1750555358870407400,8.322407470703125,-0.018562499433755875,-0.09652499854564667,-0.028875000774860382
1750555358880012500,8.332012451171876,-0.021037500351667404,-0.06847500056028366,-0.020349999889731407
1750555358889617400,8.341617431640625,-0.021037500351667404,-0.025712499395012856,-0.006874999962747097
1750555358899222500,8.351222412109376,-0.018562499433755875,0.023099999874830246,0.006462499964982271
1750555358908827400,8.360827392578125,-0.02708750031888485,0.037812501192092896,0.021175000816583633
1750555358918432500,8.3704326171875,-0.03932499885559082,0.02433750033378601,0.02488750033080578
1750555358928037400,8.380037353515625,-0.052799999713897705,0.0010999999940395355,-0.002062499988824129
1750555358937642500,8.389642578125,-0.06503749638795853,-0.020899999886751175,-0.04963750019669533
1750555358947247400,8.399247314453126,-0.09184999763965607,-0.02199999988079071,-0.0826374962925911
1750555358956852500,8.4088525390625,-0.11756250262260437,0.02928750030696392,-0.09611249715089798
1750555358966457600,8.41845751953125,-0.14685000479221344,0.15138749778270721,-0.0728750005364418
1750555358976062500,8.4280625,-0.17489999532699585,0.3176249861717224,0.011412499472498894
1750555358985667300,8.437667236328124,-0.13956250250339508,0.5484874844551086,0.22027499973773956
1750555358995272400,8.4472724609375,-0.07837499678134918,0.7023500204086304,0.6759499907493591
1750555359004877600,8.456877685546875,0.007012499962002039,0.896637499332428,1.2893375158309937
1750555359014482400,8.466482421875,0.07548750191926956,1.1349250078201294,2.126162528991699
1750555359024087600,8.476087646484375,0.04372499883174896,1.181262493133545,3.2355124950408936
1750555359033692700,8.485692626953124,0.07672499865293503,1.2314499616622925,4.325200080871582
1750555359043297500,8.495297607421875,0.16706250607967377,0.9894499778747559,5.220737457275391
1750555359052902700,8.504902587890625,0.19772499799728394,0.4361499845981598,5.7596001625061035
1750555359062507500,8.514507568359376,0.17682500183582306,-0.11495000123977661,5.9257001876831055
1750555359072112600,8.524112548828125,0.0705375000834465,-0.7526749968528748,5.8133625984191895
1750555359081717800,8.5337177734375,-0.01251249946653843,-1.181399941444397,5.466312408447266
1750555359091322600,8.543322509765625,0.010724999941885471,-1.3696374893188477,4.9739251136779785
1750555359100927700,8.552927734375,0.07177499681711197,-1.4001624584197998,4.338675022125244
1750555359110532600,8.56253271484375,0.2012999951839447,-1.2253999710083008,3.56784987449646
1750555359120137700,8.5721376953125,0.2820124924182892,-1.1093499660491943,2.793174982070923
1750555359129742600,8.58174267578125,0.2868250012397766,-1.168062448501587,2.0613999366760254
1750555359139347700,8.59134765625,0.27101248502731323,-1.185112476348877,1.4212000370025635
1750555359148952800,8.600952880859374,0.23058749735355377,-1.1631125211715698,0.9630500078201294
1750555359158557700,8.6105576171875,0.20377500355243683,-1.0458250045776367,0.6931374669075012
1750555359168162600,8.62016259765625,0.16706250607967377,-0.8381999731063843,0.5598999857902527
1750555359177767700,8.629767578125,0.1060125008225441,-0.6329125165939331,0.48179998993873596
1750555359187372800,8.639372802734375,0.025437500327825546,-0.47286251187324524,0.40232500433921814
1750555359196977700,8.648977783203126,-0.07837499678134918,-0.3788124918937683,0.2997500002384186
1750555359206582800,8.658582763671875,-0.1993750035762787,-0.3287625014781952,0.16775000095367432
1750555359216187600,8.668187744140624,-0.29589998722076416,-0.26028749346733093,0.01746249943971634
1750555359225792800,8.677792724609375,-0.3251875042915344,-0.14176249504089355,-0.171875
1750555359235397600,8.687397705078125,-0.28984999656677246,0.045099999755620956,-0.45045000314712524
1750555359245002800,8.697002685546876,-0.22384999692440033,0.2125750035047531,-0.7948874831199646
1750555359254608000,8.70660791015625,-0.1297999918460846,0.2956250011920929,-1.1834625005722046
1750555359264212700,8.716212646484376,-0.01979999989271164,0.30896249413490295,-1.5903249979019165
1750555359273817900,8.72581787109375,0.0681999996304512,0.24914999306201935,-1.9837124347686768
1750555359283422700,8.735422607421874,0.0999625027179718,0.1611499935388565,-2.3794374465942383
1750555359293027800,8.74502783203125,0.0742499977350235,0.02928750030696392,-2.7935874462127686
1750555359302632700,8.7546328125,0.0424874983727932,-0.06476250290870667,-3.2016875743865967
1750555359312238000,8.764238037109376,-0.0002749999985098839,-0.035475000739097595,-3.5815999507904053
1750555359321843000,8.773843017578125,-0.02956249937415123,0.05857500061392784,-3.9078874588012695
1750555359331448000,8.783447998046874,-0.03932499885559082,0.17957499623298645,-4.212037563323975
1750555359341053000,8.793052978515625,-0.025849999859929085,0.3871999979019165,-4.5236124992370605
1750555359350657800,8.80265771484375,-0.04661250114440918,0.5240125060081482,-4.83023738861084
1750555359360263000,8.812262939453126,-0.035750001668930054,0.6413000226020813,-5.045287609100342
1750555359369868000,8.821867919921875,-0.0015124999918043613,0.620537519454956,-5.039100170135498
1750555359379472600,8.83147265625,0.06696250289678574,0.5081999897956848,-4.692187309265137
1750555359389078000,8.841078125,0.16706250607967377,0.41772499680519104,-3.9506499767303467
1750555359398683000,8.850682861328124,0.258774995803833,0.39338749647140503,-2.90482497215271
1750555359408287700,8.860287841796875,0.2685374915599823,0.4164874851703644,-1.7747124433517456
1750555359417892900,8.869892822265625,0.17806249856948853,0.5277249813079834,-0.8156499862670898
1750555359427497700,8.879497802734376,0.05224999785423279,0.6890124678611755,-0.19016249477863312
1750555359437102800,8.889102783203125,-0.0882750004529953,0.8588249683380127,0.08098749816417694
1750555359446708000,8.8987080078125,-0.19689999520778656,0.9773499965667725,0.057887498289346695
1750555359456312800,8.908312744140625,-0.2213750034570694,0.9455875158309937,-0.1438249945640564
1750555359465918000,8.91791796875,-0.19208750128746033,0.7512999773025513,-0.40149998664855957
1750555359475522800,8.927522705078125,-0.12113749980926514,0.42391249537467957,-0.622737467288971
1750555359485128000,8.9371279296875,-0.01484999991953373,0.02928750030696392,-0.7155500054359436
1750555359494732800,8.94673291015625,0.08648750185966492,-0.3531000018119812,-0.6763625144958496
1750555359504337700,8.956337646484375,0.16224999725818634,-0.5706250071525574,-0.5603125095367432
1750555359513943000,8.965943115234374,0.18177500367164612,-0.5938624739646912,-0.381974995136261
1750555359523548000,8.9755478515625,0.14396250247955322,-0.46309998631477356,-0.19263750314712524
1750555359533153000,8.985153076171875,0.07548750191926956,-0.24323749542236328,-0.03135000169277191
1750555359542758100,8.994758056640626,-0.0002749999985098839,-0.0012374999932944775,0.0919874981045723
1750555359552363000,9.004363037109375,-0.06132499873638153,0.2003374993801117,0.17998750507831573
1750555359561967900,9.0139677734375,-0.09308750182390213,0.3176249861717224,0.2545124888420105
1750555359571573000,9.023572998046875,-0.10779999941587448,0.3651999831199646,0.30951249599456787
1750555359581178000,9.03317822265625,-0.10903749614953995,0.3102000057697296,0.3302749991416931
1750555359590783000,9.042782958984375,-0.10903749614953995,0.18562500178813934,0.31556248664855957
1750555359600387800,9.052387939453125,-0.11384999752044678,0.05362499877810478,0.2667500078678131
1750555359609993200,9.0619931640625,-0.11027500033378601,-0.06847500056028366,0.20074999332427979
1750555359619598000,9.07159814453125,-0.10284999758005142,-0.15523749589920044,0.1396999955177307
1750555359629203000,9.081202880859376,-0.09308750182390213,-0.18576249480247498,0.08717499673366547
1750555359638808000,9.09080810546875,-0.07479999959468842,-0.1467124968767166,0.050462499260902405
1750555359648413200,9.1004130859375,-0.055275000631809235,-0.06599999964237213,0.045649997889995575
1750555359658018000,9.11001806640625,-0.035750001668930054,0.0170499999076128,0.052937500178813934
1750555359667623000,9.119622802734375,-0.01484999991953373,0.07081250101327896,0.0541750006377697
1750555359677227800,9.129227783203126,-0.0015124999918043613,0.06710000336170197,0.057887498289346695
1750555359686833200,9.138833251953125,0.008249999955296516,0.015812499448657036,0.05898749828338623
1750555359696438000,9.14843798828125,0.005912499967962503,-0.04399999976158142,0.06875000149011612
1750555359706043000,9.15804296875,-0.002749999985098839,-0.09171249717473984,0.07864999771118164
1750555359715648000,9.16764794921875,0.002199999988079071,-0.11728750169277191,0.07975000143051147
1750555359725253000,9.177253173828126,0.013199999928474426,-0.10628750175237656,0.06764999777078629
1750555359734858000,9.18685791015625,0.010724999941885471,-0.05623750016093254,0.038224998861551285
1750555359744462800,9.196462890625,0.005912499967962503,-0.00989999994635582,0.007699999958276749
1750555359754068200,9.206068115234375,-0.0015124999918043613,0.0170499999076128,-0.021587500348687172
1750555359763673000,9.215673095703124,-0.002749999985098839,0.037812501192092896,-0.03629999980330467
1750555359773278000,9.22527783203125,0.007012499962002039,0.04028749838471413,-0.021587500348687172
1750555359782883000,9.234883056640625,0.018012499436736107,0.037812501192092896,0.006462499964982271
1750555359792488000,9.244488037109376,0.022962499409914017,0.03904999792575836,0.035887498408555984
1750555359802093000,9.254093017578125,0.01924999989569187,0.03904999792575836,0.052937500178813934
1750555359811698200,9.2636982421875,0.018012499436736107,0.02928750030696392,0.047987498342990875
1750555359821303300,9.27330322265625,0.01924999989569187,0.007287499960511923,0.01746249943971634
1750555359830908200,9.282908203125,0.021724998950958252,-0.007424999959766865,-0.025299999862909317
1750555359840513000,9.292512939453125,0.021724998950958252,-0.01223750039935112,-0.06435000151395798
1750555359850118100,9.3021181640625,0.027912499383091927,-0.01223750039935112,-0.09006249904632568
1750555359859723300,9.31172314453125,0.0387750007212162,-0.002474999986588955,-0.10106249898672104
1750555359869328100,9.321328125,0.05348749831318855,0.010862499475479126,-0.08635000139474869
1750555359878933200,9.330933349609374,0.07919999957084656,0.007287499960511923,-0.05706249922513962
1750555359888538000,9.3405380859375,0.09253749996423721,0.002337499987334013,-0.022824998944997787
1750555359898143000,9.35014306640625,0.08401250094175339,0.018287500366568565,0.015124999918043613
1750555359907748000,9.359748046875,0.05843750014901161,0.06462500244379044,0.05898749828338623
1750555359917353200,9.369353271484375,0.03396249935030937,0.13186250627040863,0.0919874981045723
1750555359926958000,9.3789580078125,0.020487500354647636,0.16733749210834503,0.09569999575614929
1750555359936563200,9.388563232421875,0.01691249944269657,0.16362500190734863,0.05898749828338623
1750555359946168000,9.39816796875,0.018012499436736107,0.12086249887943268,-0.006874999962747097
1750555359955773200,9.407773193359375,0.015675000846385956,0.0658624991774559,-0.08016250282526016
1750555359965378000,9.4173779296875,0.01924999989569187,0.002337499987334013,-0.12787500023841858
1750555359974983200,9.426983154296876,0.022962499409914017,-0.07218749821186066,-0.1303499937057495
1750555359984588300,9.43658837890625,0.022962499409914017,-0.09542500227689743,-0.09982500225305557
1750555359994193200,9.446193115234376,0.018012499436736107,-0.05871250107884407,-0.05335000157356262
1750555360003798000,9.455798095703125,0.014437500387430191,0.002337499987334013,-0.004537499975413084
1750555360013403100,9.465403076171874,0.01924999989569187,0.07204999774694443,0.030937500298023224
1750555360023008300,9.47500830078125,0.02419999986886978,0.12209999561309814,0.04193750023841858
1750555360032613000,9.484613037109375,0.022962499409914017,0.13186250627040863,0.02722499892115593
1750555360042218000,9.494218017578126,0.022962499409914017,0.11110000312328339,-0.0032999999821186066
1750555360051823400,9.5038232421875,0.0364375002682209,0.047575000673532486,-0.04235000163316727
1750555360061428200,9.51342822265625,0.05596249923110008,-0.0317624993622303,-0.08882500231266022
1750555360071033000,9.523033203125,0.06572499871253967,-0.10023749619722366,-0.1303499937057495
1750555360080638200,9.53263818359375,0.07177499681711197,-0.14547500014305115,-0.14739999175071716
1750555360090243300,9.542243408203126,0.06696250289678574,-0.14300000667572021,-0.13158750534057617
1750555360099848200,9.55184814453125,0.05596249923110008,-0.0929500013589859,-0.08139999955892563
1750555360109453000,9.561453125,0.0387750007212162,-0.0147124994546175,-0.016637500375509262
1750555360119058200,9.57105810546875,0.014437500387430191,0.06833750009536743,0.045649997889995575
1750555360128663000,9.5806630859375,-0.003987499978393316,0.13433749973773956,0.0859375
1750555360138268200,9.59026806640625,-0.01251249946653843,0.14904999732971191,0.09941250085830688
1750555360147873000,9.599873046875,-0.013749999925494194,0.10862500220537186,0.08346249908208847
1750555360157478100,9.60947802734375,-0.007562499959021807,0.04262499883770943,0.03946249932050705
1750555360167083000,9.6190830078125,0.010724999941885471,-0.03671250119805336,-0.013062499463558197
1750555360176688000,9.628688232421876,0.01924999989569187,-0.0989999994635582,-0.05939999967813492
1750555360186293200,9.638293212890625,0.020487500354647636,-0.1344749927520752,-0.0826374962925911
1750555360195898400,9.6478984375,0.020487500354647636,-0.14904999732971191,-0.0826374962925911
1750555360205503200,9.657503173828125,0.014437500387430191,-0.1344749927520752,-0.07163749635219574
1750555360215108000,9.667108154296875,0.0034374999813735485,-0.09047500044107437,-0.03987500071525574
1750555360224713200,9.676713134765626,-0.011274999938905239,-0.03671250119805336,-0.0008249999955296516
1750555360234318000,9.686318115234375,-0.02474999986588955,0.02433750033378601,0.02722499892115593
1750555360243923200,9.695923095703124,-0.033275000751018524,0.06710000336170197,0.045649997889995575
1750555360253528300,9.7055283203125,-0.033275000751018524,0.07452499866485596,0.052937500178813934
1750555360263133200,9.71513330078125,-0.02474999986588955,0.05252499878406525,0.04688749834895134
1750555360272738000,9.724738037109375,-0.013749999925494194,0.01952499896287918,0.026124998927116394
1750555360282343200,9.73434326171875,0.0034374999813735485,-0.02694999985396862,-0.004537499975413084
1750555360291948300,9.7439482421875,0.015675000846385956,-0.06599999964237213,-0.03135000169277191
1750555360301553200,9.75355322265625,0.020487500354647636,-0.10518749803304672,-0.0448249988257885
1750555360311158300,9.763158203125,0.022962499409914017,-0.11371249705553055,-0.0411125011742115
1750555360320763100,9.77276318359375,0.020487500354647636,-0.09418749809265137,-0.017875000834465027
1750555360330368000,9.782367919921874,0.014437500387430191,-0.03918749839067459,0.01993750035762787
1750555360339973000,9.79197314453125,0.014437500387430191,0.035337500274181366,0.057887498289346695
1750555360349578200,9.801578125,0.014437500387430191,0.08786249905824661,0.08717499673366547
1750555360359183400,9.811183349609376,0.013199999928474426,0.10257499665021896,0.09817499667406082
1750555360368788200,9.820788330078125,0.014437500387430191,0.08786249905824661,0.08346249908208847
1750555360378393000,9.83039306640625,0.015675000846385956,0.05486249923706055,0.047987498342990875
1750555360387998200,9.839998291015625,0.015675000846385956,0.006049999967217445,0.0004124999977648258
1750555360397603000,9.84960302734375,0.010724999941885471,-0.04647500067949295,-0.0448249988257885
1750555360407208200,9.859208251953126,0.0034374999813735485,-0.08799999952316284,-0.07039999961853027
1750555360416813300,9.868813232421875,0.002199999988079071,-0.09542500227689743,-0.0826374962925911
1750555360426418400,9.87841845703125,0.004674999974668026,-0.07218749821186066,-0.07906249910593033
1750555360436023000,9.88802294921875,0.013199999928474426,-0.040424998849630356,-0.05829999968409538
1750555360445628200,9.897628173828124,0.029012499377131462,0.002337499987334013,-0.03382499888539314
1750555360455233300,9.9072333984375,0.03396249935030937,0.030524998903274536,-0.0032999999821186066
1750555360464838100,9.916838134765625,0.029012499377131462,0.04386249929666519,0.021175000816583633
1750555360474443000,9.926443115234376,0.015675000846385956,0.06104999780654907,0.03341250121593475
1750555360484048100,9.936048095703125,0.002199999988079071,0.06833750009536743,0.043175000697374344
1750555360493653000,9.945653076171874,-0.005087499972432852,0.05486249923706055,0.04922499880194664
1750555360503258000,9.955258056640625,0.002199999988079071,0.015812499448657036,0.035887498408555984
1750555360512863000,9.964863037109374,0.013199999928474426,-0.0317624993622303,0.004124999977648258
1750555360522467800,9.9744677734375,0.03396249935030937,-0.07095000147819519,-0.03258749842643738
1750555360532073200,9.9840732421875,0.04619999974966049,-0.08923749625682831,-0.05582499876618385
1750555360541678000,9.993677978515626,0.04372499883174896,-0.07823749631643295,-0.06187500059604645
1750555360551283000,10.003282958984375,0.02667500078678131,-0.04647500067949295,-0.03753750026226044
1750555360560888000,10.01288818359375,0.009487500414252281,-0.00989999994635582,0.012649999931454659
1750555360570493200,10.0224931640625,-0.0015124999918043613,0.02928750030696392,0.057887498289346695
1750555360580098000,10.03209814453125,-0.0015124999918043613,0.04881250113248825,0.07864999771118164
1750555360589703000,10.041702880859376,0.009487500414252281,0.037812501192092896,0.06146249920129776
1750555360599308000,10.05130810546875,0.021724998950958252,0.0170499999076128,0.016224998980760574
1750555360608913200,10.0609130859375,0.02667500078678131,-0.00494999997317791,-0.028875000774860382
1750555360618518000,10.07051806640625,0.022962499409914017,-0.02694999985396862,-0.05706249922513962
1750555360628123000,10.080122802734374,0.01691249944269657,-0.035475000739097595,-0.06806249916553497
1750555360637728000,10.08972802734375,0.008249999955296516,-0.025712499395012856,-0.06063750013709068
1750555360647333000,10.0993330078125,-0.003987499978393316,-0.01223750039935112,-0.04358749836683273
1750555360656938000,10.10893798828125,-0.006324999965727329,0.002337499987334013,-0.024062499403953552
1750555360666542800,10.11854296875,-0.013749999925494194,0.0035749999806284904,-0.011824999935925007
1750555360676148000,10.12814794921875,-0.016087500378489494,-0.0037124999798834324,-0.010587500408291817
1750555360685752800,10.1377529296875,-0.007562499959021807,-0.006187499966472387,-0.013062499463558197
1750555360695358000,10.14735791015625,0.0009624999947845936,-0.00989999994635582,-0.015537500381469727
1750555360704962800,10.156962890625,0.005912499967962503,-0.006187499966472387,-0.021587500348687172
1750555360714568000,10.16656787109375,0.008249999955296516,0.00976249948143959,-0.021587500348687172
1750555360724172800,10.1761728515625,0.009487500414252281,0.02681249938905239,-0.013062499463558197
1750555360733777700,10.185777587890625,0.008249999955296516,0.037812501192092896,-0.010587500408291817
1750555360743382800,10.1953828125,0.004674999974668026,0.032862499356269836,-0.020349999889731407
1750555360752988000,10.20498779296875,0.004674999974668026,0.007287499960511923,-0.030112499371170998
1750555360762592800,10.2145927734375,-0.0015124999918043613,-0.0147124994546175,-0.025299999862909317
1750555360772198000,10.224197998046876,-0.010037500411272049,-0.02694999985396862,-0.013062499463558197
1750555360781803000,10.233802978515625,-0.016087500378489494,-0.01966249942779541,-0.0008249999955296516
1750555360791407900,10.243407958984376,-0.01979999989271164,0,0.005224999971687794
1750555360801013000,10.253012939453125,-0.01484999991953373,0.010862499475479126,-0.002062499988824129
1750555360810618000,10.2626181640625,-0.008799999952316284,-0.007424999959766865,-0.026537500321865082
1750555360820223000,10.272222900390625,-0.003987499978393316,-0.03423750028014183,-0.05939999967813492
1750555360829827800,10.281827880859375,-0.007562499959021807,-0.06599999964237213,-0.08387500047683716
1750555360839433000,10.291432861328126,-0.013749999925494194,-0.06599999964237213,-0.09611249715089798
1750555360849037800,10.301037841796875,-0.016087500378489494,-0.02447500079870224,-0.08882500231266022
1750555360858643000,10.310642822265624,-0.023512499406933784,0.018287500366568565,-0.05829999968409538
1750555360868248000,10.320248046875,-0.03451250120997429,0.057337500154972076,-0.022824998944997787
1750555360877853000,10.32985302734375,-0.04661250114440918,0.09404999762773514,-0.002062499988824129
1750555360887457800,10.339457763671875,-0.06132499873638153,0.11604999750852585,0.0016499999910593033
1750555360897063000,10.34906298828125,-0.06503749638795853,0.12581250071525574,-0.017875000834465027
1750555360906668000,10.35866796875,-0.060087498277425766,0.10986249893903732,-0.04963750019669533
1750555360916273000,10.36827294921875,-0.050324998795986176,0.07081250101327896,-0.0826374962925911
1750555360925877800,10.377877685546874,-0.052799999713897705,0.015812499448657036,-0.1120624989271164
1750555360935483000,10.38748291015625,-0.050324998795986176,0.002337499987334013,-0.13282500207424164
1750555360945088000,10.397087890625,-0.060087498277425766,0.02681249938905239,-0.13763749599456787
1750555360954692900,10.40669287109375,-0.060087498277425766,0.0976250022649765,-0.10958749800920486
1750555360964298000,10.416298095703125,-0.040562499314546585,0.21615000069141388,-0.004537499975413084
1750555360973902800,10.42590283203125,-0.035750001668930054,0.345674991607666,0.23622499406337738
1750555360983508000,10.435508056640625,-0.03684999793767929,0.5007749795913696,0.5978500247001648
1750555360993112800,10.44511279296875,-0.07232499867677689,0.7060624957084656,1.018049955368042
1750555361002718000,10.454718017578125,-0.12732499837875366,0.9296374917030334,1.4469125270843506
1750555361012322800,10.46432275390625,-0.15537500381469727,1.2119250297546387,1.8965375423431396
1750555361021927700,10.473927734375,-0.12484999746084213,1.4365999698638916,2.491499900817871
1750555361031533000,10.483532958984375,-0.023512499406933784,1.5795999765396118,3.2892749309539795
1750555361041138000,10.493137939453124,0.147537499666214,1.5637874603271484,4.227574825286865
1750555361050742800,10.50274267578125,0.3198249936103821,1.1911624670028687,5.079112529754639
1750555361060347600,10.51234765625,0.4273499846458435,0.6804875135421753,5.51636266708374
1750555361069952800,10.521952880859375,0.35887500643730164,0.14409999549388885,5.526262283325195
1750555361079558000,10.531557861328125,0.14630000293254852,-0.4778124988079071,5.275737285614014
1750555361089162800,10.541162841796876,-0.035750001668930054,-1.1606374979019165,4.82735013961792
1750555361098767600,10.550767578125,-0.08084999769926071,-1.6017374992370605,4.200624942779541
1750555361108372500,10.56037255859375,0.0009624999947845936,-1.7580749988555908,3.5226125717163086
1750555361117977900,10.569977783203125,0.12677499651908875,-1.5992624759674072,2.8666000366210938
1750555361127582700,10.579582763671874,0.24777500331401825,-1.2438249588012695,2.256925106048584
1750555361137187600,10.5891875,0.3185875117778778,-0.9237250089645386,1.7132500410079956
1750555361146792400,10.59879248046875,0.3345375061035156,-0.7697250247001648,1.3088624477386475
1750555361156397600,10.6083974609375,0.2917749881744385,-0.8014875054359436,1.043762445449829
1750555361166002700,10.618002685546875,0.23801249265670776,-0.8417750000953674,0.8397125005722046
1750555361175607600,10.627607666015624,0.19882500171661377,-0.856487512588501,0.7041375041007996
1750555361185212700,10.637212646484375,0.16101250052452087,-0.8662499785423279,0.6051374673843384
1750555361194817800,10.64681787109375,0.14877499639987946,-0.8014875054359436,0.5086125135421753
1750555361204422700,10.656422607421876,0.12196250259876251,-0.7013875246047974,0.4255625009536743
1750555361214027500,10.666027587890625,0.07919999957084656,-0.6036249995231628,0.3460874855518341
1750555361223632600,10.675632568359376,0.06201250106096268,-0.4740999937057495,0.23980000615119934
1750555361233237500,10.685237548828125,0.05719999969005585,-0.32381248474121094,0.07369999587535858
1750555361242842400,10.69484228515625,0.05967500060796738,-0.14904999732971191,-0.15716250240802765
1750555361252447500,10.704447509765625,0.06572499871253967,-0.00989999994635582,-0.4614500105381012
1750555361262052600,10.714052490234375,0.0705375000834465,0.04028749838471413,-0.8205999732017517
1750555361271657500,10.723657470703126,0.0742499977350235,0.0340999998152256,-1.1969374418258667
1750555361281262300,10.733262451171875,0.07796250283718109,-0.018424998968839645,-1.5340875387191772
1750555361290867700,10.74286767578125,0.09872499853372574,-0.07823749631643295,-1.8259999752044678
1750555361300472600,10.75247265625,0.1732500046491623,-0.11852499842643738,-2.1070499420166016
1750555361310077400,10.762077392578124,0.26124998927116394,-0.1467124968767166,-2.39662504196167
1750555361319682300,10.771682373046875,0.32711249589920044,-0.17104999721050262,-2.7289624214172363
1750555361329287400,10.781287353515625,0.35653749108314514,-0.18081249296665192,-3.1406373977661133
1750555361338892500,10.790892578125,0.3821125030517578,-0.11728750169277191,-3.635362386703491
1750555361348497400,10.800497314453125,0.45787498354911804,0.0695749968290329,-4.099699974060059
1750555361358102300,10.810102294921874,0.54339998960495,0.18809999525547028,-4.383087635040283
1750555361367707400,10.819707275390625,0.6472125053405762,0.20762500166893005,-4.449087619781494
1750555361377312300,10.829312255859374,0.8427374958992004,0.18562500178813934,-4.320799827575684
1750555361386917400,10.83891748046875,1.0040249824523926,0.0035749999806284904,-4.122799873352051
1750555361396522500,10.8485224609375,1.0515999794006348,-0.17104999721050262,-4.031225204467773
1750555361406127400,10.85812744140625,0.9795500040054321,-0.31404998898506165,-4.038512706756592
1750555361415732200,10.867732177734375,0.8475499749183655,-0.30057498812675476,-4.0569376945495605
1750555361425337300,10.87733740234375,0.7767375111579895,0.020762499421834946,-3.94569993019104
1750555361434942500,10.8869423828125,0.7522624731063843,0.40796250104904175,-3.521787405014038
1750555361444547300,10.89654736328125,0.7279250025749207,0.638824999332428,-2.7618250846862793
1750555361454152200,10.906152099609375,0.6679750084877014,0.6462500095367432,-1.8272374868392944
1750555361463757300,10.91575732421875,0.5066875219345093,0.564300000667572,-0.9464125037193298
1750555361473362400,10.925362548828126,0.2525874972343445,0.4959625005722046,-0.31597501039505005
1750555361482967300,10.93496728515625,-0.010037500411272049,0.4482499957084656,0.040699999779462814
1750555361492572200,10.944572265625,-0.20308749377727509,0.35420000553131104,0.21051250398159027
1750555361502177300,10.95417724609375,-0.30937498807907104,0.24667499959468842,0.27527499198913574
1750555361511782400,10.963782470703125,-0.320374995470047,0.24310000240802765,0.2484624981880188
1750555361521387300,10.97338720703125,-0.2531374990940094,0.32243749499320984,0.16898749768733978
1750555361530992000,10.9829921875,-0.15908749401569366,0.3713875114917755,0.07246249914169312
1750555361540597200,10.99259716796875,-0.0882750004529953,0.3334375023841858,-0.017875000834465027
1750555361550202000,11.0022021484375,-0.060087498277425766,0.2186249941587448,-0.0765874981880188
1750555361559807200,11.01180712890625,-0.057612501084804535,0.06710000336170197,-0.09858749806880951
1750555361569412000,11.021412109375,-0.06751249730587006,-0.057475000619888306,-0.06187500059604645
1750555361579017200,11.031017333984375,-0.09308750182390213,-0.1307625025510788,0.03946249932050705
1750555361588622000,11.0406220703125,-0.1260875016450882,-0.10271249711513519,0.15674999356269836
1750555361598227000,11.05022705078125,-0.1615625023841858,-0.00494999997317791,0.2532750070095062
1750555361607832300,11.059832275390624,-0.18837499618530273,0.13805000483989716,0.32298749685287476
1750555361617437200,11.069437255859375,-0.20308749377727509,0.2858625054359436,0.36079999804496765
1750555361627042000,11.0790419921875,-0.20432500541210175,0.38967499136924744,0.3718000054359436
1750555361636647200,11.088647216796875,-0.1859000027179718,0.4031499922275543,0.3535124957561493
1750555361646252000,11.098251953125,-0.16637499630451202,0.3188624978065491,0.2997500002384186
1750555361655857200,11.107857177734376,-0.15056249499320984,0.16981250047683716,0.23003749549388885
1750555361665462000,11.1174619140625,-0.13461250066757202,0.01209999993443489,0.15798750519752502
1750555361675067000,11.12706689453125,-0.1163249984383583,-0.1405249983072281,0.09693749994039536
1750555361684672000,11.136672119140625,-0.0943249985575676,-0.21381250023841858,0.055412501096725464
1750555361694276900,11.14627685546875,-0.0845625028014183,-0.2040500044822693,0.04922499880194664
1750555361703881700,11.1558818359375,-0.07961250096559525,-0.12952500581741333,0.06270000338554382
1750555361713487000,11.165487060546875,-0.07232499867677689,-0.00989999994635582,0.07246249914169312
1750555361723092000,11.175092041015626,-0.06627500057220459,0.1013374999165535,0.07246249914169312
1750555361732696800,11.18469677734375,-0.05156249925494194,0.16981250047683716,0.045649997889995575
1750555361742302000,11.194302001953124,-0.021037500351667404,0.17338749766349792,0.0028874999843537807
1750555361751907000,11.203906982421875,0.004674999974668026,0.13062499463558197,-0.03382499888539314
1750555361761512000,11.213511962890625,0.01924999989569187,0.06710000336170197,-0.04963750019669533
1750555361771116800,11.22311669921875,0.022962499409914017,-0.00989999994635582,-0.05335000157356262
1750555361780722000,11.232721923828125,0.014437500387430191,-0.07699999958276749,-0.04606249928474426
1750555361790327000,11.2423271484375,0.002199999988079071,-0.10395000129938126,-0.03382499888539314
1750555361799932000,11.251931884765625,-0.01251249946653843,-0.07823749631643295,-0.017875000834465027
1750555361809536800,11.261536865234374,-0.023512499406933784,-0.02199999988079071,0.0004124999977648258
1750555361819141600,11.2711416015625,-0.030799999833106995,0.05362499877810478,0.015124999918043613
1750555361828746800,11.280746826171875,-0.033275000751018524,0.10628750175237656,0.02722499892115593
1750555361838352000,11.290351806640626,-0.02227500081062317,0.1270499974489212,0.02722499892115593
1750555361847956700,11.299956787109375,-0.005087499972432852,0.11838749796152115,0.01746249943971634
1750555361857561600,11.3095615234375,0.018012499436736107,0.07809999585151672,-0.0032999999821186066
1750555361867166700,11.319166748046875,0.037675000727176666,0.030524998903274536,-0.022824998944997787
1750555361876771600,11.328771484375,0.04619999974966049,-0.01347499992698431,-0.03629999980330467
1750555361886376400,11.33837646484375,0.05224999785423279,-0.042762499302625656,-0.04729999974370003
1750555361895981600,11.347981689453125,0.04977500066161156,-0.07947500050067902,-0.05458749830722809
1750555361905586700,11.357586669921876,0.029012499377131462,-0.10752499848604202,-0.05458749830722809
1750555361915191600,11.367191650390625,0.005912499967962503,-0.11371249705553055,-0.04358749836683273
1750555361924796400,11.37679638671875,-0.01484999991953373,-0.09542500227689743,-0.022824998944997787
1750555361934401500,11.386401611328125,-0.030799999833106995,-0.040424998849630356,0.0004124999977648258
1750555361944006400,11.39600634765625,-0.030799999833106995,0.02681249938905239,0.02722499892115593
1750555361953611500,11.405611572265625,-0.01251249946653843,0.08057499676942825,0.06393750011920929
1750555361963216400,11.41521630859375,0.007012499962002039,0.09638749808073044,0.09693749994039536
1750555361972821500,11.424821533203126,0.01691249944269657,0.08181250095367432,0.10298749804496765
1750555361982426400,11.43442626953125,0.014437500387430191,0.03904999792575836,0.08346249908208847
1750555361992031500,11.444031494140624,0.007012499962002039,-0.02199999988079071,0.0541750006377697
1750555362001636400,11.45363623046875,-0.006324999965727329,-0.07699999958276749,0.018699999898672104
1750555362011241500,11.463241455078125,-0.013749999925494194,-0.08799999952316284,0.0004124999977648258
1750555362020846300,11.472846435546876,-0.018562499433755875,-0.07095000147819519,0.0028874999843537807
1750555362030451200,11.482451171875,-0.025849999859929085,-0.00989999994635582,0.021175000816583633
1750555362040056300,11.492056396484376,-0.03451250120997429,0.06104999780654907,0.0541750006377697
1750555362049661400,11.501661376953125,-0.045512501150369644,0.09404999762773514,0.07741250097751617
1750555362059266300,11.511266357421874,-0.047849997878074646,0.0952875018119812,0.07741250097751617
1750555362068871200,11.52087109375,-0.05156249925494194,0.06710000336170197,0.04688749834895134
1750555362078476300,11.530476318359375,-0.05156249925494194,0.018287500366568565,-0.002062499988824129
1750555362088081400,11.540081298828126,-0.04179999977350235,-0.04399999976158142,-0.05087500065565109
1750555362097686300,11.549686279296875,-0.025849999859929085,-0.08799999952316284,-0.0826374962925911
1750555362107291100,11.559291015625,-0.013749999925494194,-0.10271249711513519,-0.08635000139474869
1750555362116896000,11.56889599609375,-0.016087500378489494,-0.07699999958276749,-0.06311249732971191
1750555362126501000,11.578501220703124,-0.02474999986588955,-0.023237500339746475,-0.025299999862909317
1750555362136106000,11.58810595703125,-0.03203750029206276,0.0170499999076128,0.01746249943971634
1750555362145711000,11.597711181640625,-0.03203750029206276,0.02928750030696392,0.045649997889995575
1750555362155316200,11.607316162109376,-0.03684999793767929,0.0340999998152256,0.055412501096725464
1750555362164921000,11.616921142578125,-0.038087498396635056,0.037812501192092896,0.06146249920129776
1750555362174526000,11.62652587890625,-0.035750001668930054,0.06104999780654907,0.060224998742341995
1750555362184131000,11.636131103515625,-0.02956249937415123,0.10009999573230743,0.05898749828338623
1750555362193736000,11.64573583984375,-0.016087500378489494,0.13805000483989716,0.0541750006377697
1750555362203341000,11.655341064453125,0.0034374999813735485,0.11838749796152115,0.030937500298023224
1750555362212946000,11.66494580078125,0.020487500354647636,0.05857500061392784,-0.016637500375509262
1750555362222551000,11.674551025390626,0.021724998950958252,-0.01223750039935112,-0.07163749635219574
1750555362232156000,11.684156005859375,0.011962499469518661,-0.04647500067949295,-0.1083500012755394
1750555362241760800,11.6937607421875,0.007012499962002039,-0.04166249930858612,-0.1143999993801117
1750555362251366000,11.703365966796875,0.010724999941885471,0.004812499973922968,-0.09611249715089798
1750555362260971000,11.712970947265624,0.01924999989569187,0.05486249923706055,-0.06311249732971191
1750555362270575900,11.722575927734376,0.022962499409914017,0.09281250089406967,-0.03506249934434891
1750555362280180700,11.7321806640625,0.021724998950958252,0.10381250083446503,-0.022824998944997787
1750555362289786000,11.7417861328125,0.02419999986886978,0.08304999768733978,-0.024062499403953552
