time,seconds_elapsed,z,y,x
1750555350638896000,0.090896240234375,7.797000408172607,5.611050128936768,-0.5629500150680542
1750555350648501000,0.1005009765625,7.750950336456299,5.422050476074219,-0.5010000467300415
1750555350658106400,0.1101064453125,7.543050289154053,5.464950084686279,-0.42195001244544983
1750555350667711200,0.119711181640625,7.609950542449951,5.475000381469727,-0.46095001697540283
1750555350677316000,0.129316162109375,7.8160505294799805,5.427000045776367,-0.5490000247955322
1750555350686921200,0.138921142578125,7.993050575256348,5.695050239562988,-0.47505003213882446
1750555350696526300,0.1485263671875,7.8349504470825195,5.886000156402588,-0.4459500312805176
1750555350706131500,0.15813134765625,7.62000036239624,5.57295036315918,-0.17595000565052032
1750555350715736000,0.167736083984375,7.6050004959106445,6.3100504875183105,-0.48705002665519714
1750555350725341200,0.177341064453125,7.501950263977051,6.60705041885376,-0.6420000195503235
1750555350734946300,0.1869462890625,7.440000534057617,6.4110002517700195,-0.6019500494003296
1750555350744551400,0.196551513671875,7.684050559997559,5.977050304412842,-0.48000001907348633
1750555350754156300,0.20615625,7.885050296783447,5.740050315856934,-0.2569500207901001
1750555350763761200,0.21576123046875,7.921050548553467,5.683050155639648,0.019950000569224358
1750555350773366500,0.225366455078125,7.951950550079346,5.82705020904541,0.16095000505447388
1750555350782971400,0.234971435546875,7.963950157165527,5.791050434112549,0.08895000070333481
1750555350792576300,0.244576171875,7.914000511169434,5.697000503540039,-0.034050002694129944
1750555350802181000,0.25418115234375,7.758000373840332,5.680950164794922,-0.23295001685619354
1750555350811786500,0.263786376953125,7.44195032119751,5.700000286102295,-0.4050000309944153
1750555350821391400,0.273391357421875,7.174050331115723,5.772000312805176,-0.3840000033378601
1750555350830996500,0.28299658203125,7.153050422668457,5.488950252532959,-0.010050000622868538
1750555350840601300,0.292601318359375,7.315950393676758,5.611050128936768,0.2689500153064728
1750555350850206200,0.302206298828125,7.5259504318237305,5.860050201416016,0.3720000088214874
1750555350859811600,0.3118115234375,7.773000240325928,5.664000034332275,0.4819500148296356
1750555350869416400,0.32141650390625,8.07194995880127,5.209050178527832,0.6210000514984131
1750555350879021300,0.331021240234375,8.245050430297852,5.086950302124023,0.778950035572052
1750555350888626400,0.34062646484375,8.200950622558594,5.107950210571289,0.7399500608444214
1750555350898231600,0.3502314453125,7.998000144958496,5.161050319671631,0.6400500535964966
1750555350907836400,0.35983642578125,7.974000453948975,5.311950206756592,0.5419500470161438
1750555350917441300,0.369441162109375,8.031000137329102,5.404950141906738,0.34095001220703125
1750555350927046400,0.37904638671875,7.893000602722168,5.496000289916992,0.29295000433921814
1750555350936651500,0.388651611328125,7.854000568389893,5.544000148773193,0.17805001139640808
1750555350946256400,0.39825634765625,7.888050556182861,5.755050182342529,-0.08700000494718552
1750555350955861500,0.407861572265625,7.73205041885376,5.944050312042236,-0.20400001108646393
1750555350965466400,0.41746630859375,7.591050148010254,6.010950088500977,-0.20205001533031464
1750555350975071500,0.427071533203125,7.3750505447387695,5.9920501708984375,-0.11100000888109207
1750555350984676400,0.43667626953125,7.276950359344482,5.797950267791748,0.1680000126361847
1750555350994281500,0.446281494140625,7.303950309753418,5.74500036239624,0.4120500087738037
1750555351003886600,0.455886474609375,7.432950496673584,5.908050060272217,0.4410000145435333
1750555351013491500,0.465491455078125,7.540950298309326,5.920050144195557,0.42705002427101135
1750555351023096600,0.4750966796875,7.633950233459473,5.764050483703613,0.47505003213882446
1750555351032701700,0.48470166015625,7.648050308227539,5.6419501304626465,0.5580000281333923
1750555351042306600,0.494306640625,7.64400053024292,5.659050464630127,0.5080500245094299
1750555351051911700,0.50391162109375,7.648050308227539,5.7019500732421875,0.3379500210285187
1750555351061516500,0.5135166015625,7.617000579833984,5.791050434112549,0.17100000381469727
1750555351071121700,0.52312158203125,7.675050258636475,5.901000499725342,0.06000000238418579
1750555351080726800,0.532726806640625,7.797000408172607,5.949000358581543,-0.018000001087784767
1750555351090331600,0.54233154296875,7.938000202178955,5.910000324249268,-0.11805000901222229
1750555351099936800,0.551936767578125,8.029050827026367,5.782950401306152,-0.05400000140070915
1750555351109542000,0.5615419921875,8.074950218200684,5.665950298309326,0.13500000536441803
1750555351119146800,0.571146728515625,8.118000030517578,5.569950103759766,0.2659500241279602
1750555351128751900,0.580751953125,8.151000022888184,5.596950054168701,0.28095000982284546
1750555351138357000,0.59035693359375,8.212950706481934,5.587050437927246,0.3379500210285187
1750555351147961900,0.5999619140625,8.233050346374512,5.557950496673584,0.4410000145435333
1750555351157567000,0.60956689453125,8.218050003051758,5.487000465393066,0.47895002365112305
1750555351167171800,0.619171875,8.098050117492676,5.436000347137451,0.4939500093460083
1750555351176777000,0.62877685546875,7.957050323486328,5.45805025100708,0.4939500093460083
1750555351186381800,0.6383818359375,7.830000400543213,5.451000213623047,0.42900002002716064
1750555351195987000,0.647987060546875,7.7749505043029785,5.44605016708374,0.44805002212524414
1750555351205592000,0.657592041015625,7.861050605773926,5.45805025100708,0.597000002861023
1750555351215197000,0.667197021484375,8.105999946594238,5.45805025100708,0.6370500326156616
1750555351224801800,0.6768017578125,8.368950843811035,5.455050468444824,0.6570000052452087
1750555351234407000,0.686406982421875,8.479050636291504,5.4720001220703125,0.6450000405311584
1750555351244012000,0.696011962890625,8.446050643920898,5.427000045776367,0.6160500049591064
1750555351253617200,0.7056171875,8.278050422668457,5.422050476074219,0.5800500512123108
1750555351263222000,0.715221923828125,8.105999946594238,5.503050327301025,0.5440500378608704
1750555351272827100,0.7248271484375,8.07705020904541,5.557950496673584,0.5029500126838684
1750555351282432300,0.734432373046875,8.142000198364258,5.596950054168701,0.5059500336647034
1750555351292037000,0.744037109375,8.223000526428223,5.551050186157227,0.5059500336647034
1750555351301642500,0.753642578125,8.236949920654297,5.487000465393066,0.4819500148296356
1750555351311247400,0.763247314453125,8.247000694274902,5.48205041885376,0.4909500181674957
1750555351320852500,0.7728525390625,8.13705062866211,5.520000457763672,0.3840000033378601
1750555351330457300,0.782457275390625,8.047950744628906,5.620950222015381,0.3450000286102295
1750555351340062500,0.7920625,7.957050323486328,5.677950382232666,0.32895001769065857
1750555351349667600,0.80166748046875,7.950000286102295,5.7210001945495605,0.36705002188682556
1750555351359272400,0.8112724609375,7.926000595092773,5.709000110626221,0.41505002975463867
1750555351368877600,0.820877685546875,7.897050380706787,5.676000118255615,0.4050000309944153
1750555351378482400,0.830482421875,7.849050521850586,5.673000335693359,0.3720000088214874
1750555351388087600,0.840087646484375,7.753950595855713,5.665950298309326,0.31905001401901245
1750555351397692700,0.849692626953125,7.621950149536133,5.668950080871582,0.37605002522468567
1750555351407297500,0.859297607421875,7.519050121307373,5.664000034332275,0.46995002031326294
1750555351416902700,0.868902587890625,7.423050403594971,5.664000034332275,0.5779500007629395
1750555351426507800,0.8785078125,7.44195032119751,5.611050128936768,0.6660000085830688
1750555351436112600,0.888112548828125,7.569000244140625,5.629950046539307,0.6420000195503235
1750555351445717500,0.897717529296875,7.729950428009033,5.578050136566162,0.6060000061988831
1750555351455322600,0.907322509765625,7.933050155639648,5.463000297546387,0.5610000491142273
1750555351464927700,0.916927734375,8.10105037689209,5.494050025939941,0.5149500370025635
1750555351474532600,0.92653271484375,8.203949928283691,5.530050277709961,0.5029500126838684
1750555351484137700,0.9361376953125,8.27595043182373,5.623050212860107,0.42000001668930054
1750555351493742800,0.945742919921875,8.42400074005127,5.63700008392334,0.43905001878738403
1750555351503347700,0.95534765625,8.551050186157227,5.566050052642822,0.41700002551078796
1750555351512952800,0.964952880859375,8.581950187683105,5.568000316619873,0.26205000281333923
1750555351522558000,0.974557861328125,8.541000366210938,5.604000091552734,0.15105000138282776
1750555351532162800,0.984162841796875,8.338050842285156,5.683050155639648,0.0990000069141388
1750555351541768000,0.993767822265625,8.107950210571289,5.793000221252441,0.010050000622868538
1750555351551372800,1.003372802734375,8.07194995880127,5.829000473022461,0.016950000077486038
1750555351560978200,1.012978271484375,8.187000274658203,5.821950435638428,0.022050000727176666
1750555351570583000,1.0225830078125,8.356950759887695,5.824050426483154,0.11805000901222229
1750555351580188200,1.032188232421875,8.359050750732422,5.773950099945068,0.19200000166893005
1750555351589793300,1.041793212890625,8.224950790405273,5.724000453948975,0.2639999985694885
1750555351599398100,1.051398193359375,8.047950744628906,5.736000061035156,0.22305001318454742
1750555351609003000,1.0610029296875,7.999950408935547,5.806950092315674,0.04800000041723251
1750555351618608000,1.070608154296875,8.011950492858887,5.862000465393066,0.0010500000789761543
1750555351628213200,1.080213134765625,7.984050273895264,5.848050117492676,0.06000000238418579
1750555351637818000,1.089818115234375,7.974000453948975,5.724000453948975,0.2850000262260437
1750555351647423000,1.099423095703125,7.938000202178955,5.616000175476074,0.41700002551078796
1750555351657028400,1.1090283203125,7.927950382232666,5.590050220489502,0.39795002341270447
1750555351666633200,1.11863330078125,7.858950138092041,5.617950439453125,0.26205000281333923
1750555351676238300,1.12823828125,7.828050136566162,5.664000034332275,0.14400000870227814
1750555351685843500,1.137843505859375,7.924050331115723,5.677950382232666,0.10395000129938126
1750555351695448300,1.1474482421875,8.029050827026367,5.635050296783447,0.13199999928474426
1750555351705053400,1.157053466796875,8.062950134277344,5.599050045013428,0.2179500162601471
1750555351714658300,1.166658203125,8.08395004272461,5.592000484466553,0.2639999985694885
1750555351724263700,1.176263671875,8.110050201416016,5.605950355529785,0.12495000660419464
1750555351733868500,1.18586865234375,8.0910005569458,5.680950164794922,-0.0970500037074089
1750555351743473400,1.195473388671875,7.993050575256348,5.761950492858887,-0.24300001561641693
1750555351753078500,1.20507861328125,7.789950370788574,5.772000312805176,-0.19500000774860382
1750555351762683600,1.21468359375,7.761000156402588,5.697000503540039,0.00795000046491623
1750555351772288500,1.22428857421875,7.882950305938721,5.616000175476074,0.21405000984668732
1750555351781894000,1.233893798828125,8.151000022888184,5.533950328826904,0.3739500045776367
1750555351791498800,1.243498779296875,8.32395076751709,5.476950168609619,0.4939500093460083
1750555351801103600,1.253103515625,8.367000579833984,5.494050025939941,0.40005001425743103
1750555351810708700,1.262708740234375,8.319000244140625,5.578050136566162,0.2639999985694885
1750555351820313900,1.27231396484375,8.200950622558594,5.616000175476074,0.13905000686645508
1750555351829919000,1.2819189453125,8.010000228881836,5.6419501304626465,0.13005000352859497
1750555351839523800,1.29152392578125,7.878000259399414,5.617950439453125,0.208950012922287
1750555351849128700,1.301128662109375,7.753950595855713,5.6419501304626465,0.30900001525878906
1750555351858733800,1.31073388671875,7.7149505615234375,5.673000335693359,0.40005001425743103
1750555351868339000,1.3203388671875,7.713000297546387,5.782950401306152,0.36000001430511475
1750555351877943800,1.32994384765625,7.833000183105469,5.914950370788574,0.18495000898838043
1750555351887549000,1.339548828125,7.858950138092041,5.953050136566162,0.043950002640485764
1750555351897154000,1.349154052734375,7.837050437927246,5.985000133514404,0.06000000238418579
1750555351906759200,1.35875927734375,7.782000541687012,5.937000274658203,0.21405000984668732
1750555351916364000,1.368364013671875,7.7989501953125,5.824050426483154,0.3840000033378601
1750555351925969200,1.37796923828125,7.828050136566162,5.719050407409668,0.5850000381469727
1750555351935574000,1.387573974609375,7.939950466156006,5.63700008392334,0.6690000295639038
1750555351945179400,1.397179443359375,8.119950294494629,5.613000392913818,0.6469500064849854
1750555351954784300,1.4067841796875,8.206049919128418,5.611050128936768,0.4909500181674957
1750555351964389000,1.41638916015625,8.154000282287598,5.697000503540039,0.30900001525878906
1750555351973994200,1.425994140625,8.019000053405762,5.800050258636475,0.1680000126361847
1750555351983599400,1.435599365234375,7.972050189971924,5.836050510406494,0.09195000678300858
1750555351993204200,1.445204345703125,8.038949966430664,5.781000137329102,0.12300000339746475
1750555352002809300,1.454809326171875,8.197050094604492,5.6449503898620605,0.28095000982284546
1750555352012414500,1.46441455078125,8.331000328063965,5.47005033493042,0.43605002760887146
1750555352022019600,1.47401953125,8.314050674438477,5.443050384521484,0.47895002365112305
1750555352031624700,1.483624755859375,8.256000518798828,5.5320000648498535,0.44805002212524414
1750555352041229600,1.4932294921875,8.142000198364258,5.613000392913818,0.364950031042099
1750555352050834700,1.502834716796875,8.034000396728516,5.716050148010254,0.25394999980926514
1750555352060439600,1.512439453125,7.984050273895264,5.7330002784729,0.23295001685619354
1750555352070044700,1.522044677734375,7.91895055770874,5.688000202178955,0.283050000667572
1750555352079649500,1.5316494140625,7.900050163269043,5.629950046539307,0.31905001401901245
1750555352089254700,1.541254638671875,7.963950157165527,5.623050212860107,0.25394999980926514
1750555352098859500,1.550859619140625,8.119950294494629,5.616000175476074,0.2160000056028366
1750555352108465000,1.56046484375,8.131950378417969,5.5849504470825195,0.2569500207901001
1750555352118069800,1.57006982421875,8.02695083618164,5.632950305938721,0.31200000643730164
1750555352127674600,1.579674560546875,7.945050239562988,5.665950298309326,0.36705002188682556
1750555352137279700,1.58927978515625,7.866000175476074,5.647050380706787,0.3910500109195709
1750555352146884900,1.598884765625,7.81095027923584,5.659050464630127,0.3930000066757202
1750555352156489700,1.60848974609375,7.81095027923584,5.653950214385986,0.43905001878738403
1750555352166094800,1.6180947265625,7.840050220489502,5.673000335693359,0.3840000033378601
1750555352175700000,1.627699951171875,7.930950164794922,5.704050064086914,0.36000001430511475
1750555352185304800,1.637304931640625,8.006999969482422,5.700000286102295,0.3360000252723694
1750555352194910000,1.646909912109375,7.90500020980835,5.688000202178955,0.3379500210285187
1750555352204515000,1.65651513671875,7.782000541687012,5.697000503540039,0.30900001525878906
1750555352214120200,1.6661201171875,7.7440505027771,5.689950466156006,0.2639999985694885
1750555352223725000,1.67572509765625,7.857000350952148,5.707050323486328,0.1969500035047531
1750555352233330200,1.685330078125,7.942950248718262,5.697000503540039,0.2569500207901001
1750555352242935300,1.694935302734375,7.9960503578186035,5.707050323486328,0.2880000174045563
1750555352252540200,1.7045400390625,8.046000480651855,5.767050266265869,0.31200000643730164
1750555352262145000,1.71414501953125,8.11305046081543,5.731050491333008,0.283050000667572
1750555352271750400,1.72375048828125,8.055000305175781,5.716050148010254,0.2350500077009201
1750555352281355500,1.73335546875,7.9360504150390625,5.7430500984191895,0.19200000166893005
1750555352290960400,1.74296044921875,7.842000484466553,5.760000228881836,0.15105000138282776
1750555352300565500,1.7525654296875,7.857000350952148,5.781000137329102,0.11805000901222229
1750555352310170600,1.762170654296875,7.890000343322754,5.805000305175781,0.12495000660419464
1750555352319775500,1.771775390625,7.866000175476074,5.793000221252441,0.1270500123500824
1750555352329380600,1.781380615234375,7.924050331115723,5.785950183868408,0.15405000746250153
1750555352338985700,1.79098583984375,7.984050273895264,5.772000312805176,0.11505000293254852
1750555352348590600,1.800590576171875,8.034000396728516,5.740050315856934,0.08400000631809235
1750555352358196000,1.810196044921875,8.074950218200684,5.7019500732421875,0.14205001294612885
1750555352367800800,1.81980078125,8.038949966430664,5.697000503540039,0.21105000376701355
1750555352377405700,1.82940576171875,7.990950584411621,5.673000335693359,0.22305001318454742
1750555352387011000,1.839010986328125,8.002950668334961,5.731050491333008,0.22095000743865967
1750555352396616000,1.848615966796875,8.067000389099121,5.716050148010254,0.24195000529289246
1750555352406220800,1.858220703125,8.058000564575195,5.676000118255615,0.24195000529289246
1750555352415826000,1.867825927734375,7.9960503578186035,5.635050296783447,0.2850000262260437
1750555352425431000,1.87743115234375,7.948050498962402,5.6449503898620605,0.25905001163482666
1750555352435036000,1.887035888671875,7.963950157165527,5.6610002517700195,0.24495001137256622
1750555352444641000,1.89664111328125,8.002950668334961,5.652000427246094,0.20400001108646393
1750555352454246100,1.90624609375,8.055000305175781,5.64900016784668,0.17100000381469727
1750555352463851300,1.915851318359375,8.098050117492676,5.63700008392334,0.20205001533031464
1750555352473456000,1.9254560546875,8.050950050354004,5.604000091552734,0.283050000667572
1750555352483061200,1.935061279296875,7.969050407409668,5.592000484466553,0.3739500045776367
1750555352492666000,1.944666015625,7.885050296783447,5.6419501304626465,0.4120500087738037
1750555352502271200,1.954271240234375,7.885050296783447,5.566050052642822,0.4600500166416168
1750555352511876400,1.96387646484375,7.878000259399414,5.539050102233887,0.4240500330924988
1750555352521481500,1.9734814453125,7.830000400543213,5.617950439453125,0.3330000042915344
1750555352531086300,1.98308642578125,7.8349504470825195,5.740050315856934,0.27105000615119934
1750555352540691500,1.99269140625,7.927950382232666,5.776050090789795,0.208950012922287
1750555352550296600,2.002296630859375,8.06505012512207,5.755050182342529,0.24000000953674316
1750555352559901400,2.0119013671875,8.176950454711914,5.668950080871582,0.28995001316070557
1750555352569506600,2.021506591796875,8.230050086975098,5.599050045013428,0.2970000207424164
1750555352579111700,2.031111572265625,8.188950538635254,5.575050354003906,0.2569500207901001
1750555352588716500,2.040716552734375,8.166000366210938,5.544000148773193,0.25905001163482666
1750555352598321400,2.0503212890625,8.161050796508789,5.5320000648498535,0.24495001137256622
1750555352607926800,2.0599267578125,8.09595012664795,5.533950328826904,0.2970000207424164
1750555352617531600,2.06953173828125,8.122050285339355,5.56095027923584,0.3430500030517578
1750555352627136800,2.07913671875,8.143950462341309,5.5819501876831055,0.33105000853538513
1750555352636741600,2.08874169921875,8.154000282287598,5.592000484466553,0.11100000888109207
1750555352646346800,2.0983466796875,8.09595012664795,5.700000286102295,0.1270500123500824
1750555352655952000,2.107951904296875,7.9170002937316895,5.737950325012207,0.08700000494718552
1750555352665557000,2.117556884765625,7.845000267028809,5.605950355529785,0.11295000463724136
1750555352675162000,2.127162109375,7.930950164794922,5.551050186157227,0.17295001447200775
1750555352684767000,2.13676708984375,8.059950828552246,5.488950252532959,0.43605002760887146
1750555352694372000,2.1463720703125,8.07705020904541,5.44605016708374,0.5850000381469727
1750555352703977000,2.15597705078125,8.082000732421875,5.452950477600098,0.4720500111579895
1750555352713582000,2.16558203125,8.203949928283691,5.487000465393066,0.29295000433921814
1750555352723187000,2.17518701171875,8.259000778198242,5.545950412750244,0.23805001378059387
1750555352732792000,2.1847919921875,8.158050537109375,5.515050411224365,0.19005000591278076
1750555352742397200,2.194397216796875,8.12700080871582,5.496000289916992,0.18300001323223114
1750555352752002000,2.204001953125,8.368950843811035,5.45805025100708,0.20400001108646393
1750555352761607200,2.213607177734375,8.596050262451172,5.44605016708374,0.2779500186443329
1750555352771212500,2.223212646484375,8.653950691223145,5.4720001220703125,0.22605000436306
1750555352780817400,2.2328173828125,8.476950645446777,5.48205041885376,0.15105000138282776
1750555352790422500,2.242422607421875,8.173049926757812,5.4910502433776855,0.21405000984668732
1750555352800027600,2.252027587890625,7.945050239562988,5.542050361633301,0.31905001401901245
1750555352809632500,2.261632568359375,7.82295036315918,5.487000465393066,0.45795002579689026
1750555352819237400,2.2712373046875,7.861050605773926,5.475000381469727,0.5149500370025635
1750555352828842500,2.280842529296875,8.167950630187988,5.403000354766846,0.5230500102043152
1750555352838447600,2.290447509765625,8.35004997253418,5.391000270843506,0.47895002365112305
1750555352848052500,2.300052490234375,8.304000854492188,5.45805025100708,0.40995001792907715
1750555352857657600,2.30965771484375,7.987950325012207,5.464950084686279,0.3840000033378601
1750555352867262700,2.3192626953125,7.426050186157227,5.512950420379639,0.208950012922287
1750555352876867600,2.32886767578125,7.243950366973877,5.602050304412842,0.283050000667572
1750555352886472700,2.33847265625,7.228950500488281,5.599050045013428,0.36900001764297485
1750555352896077600,2.34807763671875,7.560000419616699,5.613000392913818,0.4819500148296356
1750555352905683000,2.357682861328125,8.05305004119873,5.530050277709961,0.4819500148296356
1750555352915287800,2.367287841796875,8.223000526428223,5.503050327301025,0.3430500030517578
1750555352924893000,2.376892822265625,8.035950660705566,5.554050445556641,0.21105000376701355
1750555352934498000,2.386498046875,7.8349504470825195,5.568000316619873,0.15405000746250153
1750555352944103000,2.39610302734375,8.086950302124023,5.48205041885376,0.22605000436306
1750555352953708000,2.4057080078125,8.230050086975098,5.4120001792907715,0.34800001978874207
1750555352963313200,2.415313232421875,8.37405014038086,5.281050205230713,0.5850000381469727
1750555352972918000,2.42491796875,8.53695011138916,5.194050312042236,0.6589500308036804
1750555352982523100,2.434523193359375,8.53695011138916,5.209050178527832,0.6250500082969666
1750555352992128300,2.444128173828125,8.383049964904785,5.284950256347656,0.4600500166416168
1750555353001733000,2.453733154296875,8.227950096130371,5.355000019073486,0.3550500273704529
1750555353011338200,2.463338134765625,8.28795051574707,5.379000186920166,0.30195000767707825
1750555353020943400,2.472943359375,8.42400074005127,5.329050064086914,0.39795002341270447
1750555353030548200,2.48254833984375,8.458050727844238,5.235000133514404,0.5389500260353088
1750555353040153300,2.4921533203125,8.38800048828125,5.26200008392334,0.6280500292778015
1750555353049758500,2.501758544921875,8.194050788879395,5.37600040435791,0.62295001745224
1750555353059363600,2.511363525390625,7.974000453948975,5.4720001220703125,0.48900002241134644
1750555353068968400,2.520968505859375,7.869000434875488,5.551050186157227,0.3739500045776367
1750555353078573600,2.530573486328125,7.930950164794922,5.554050445556641,0.3049500286579132
1750555353088178700,2.5401787109375,7.960050582885742,5.527050495147705,0.3139500021934509
1750555353097783600,2.549783447265625,8.110050201416016,5.427000045776367,0.42900002002716064
1750555353107388700,2.559388671875,8.314050674438477,5.284950256347656,0.5080500245094299
1750555353116993800,2.568993896484375,8.455050468444824,5.329050064086914,0.5029500126838684
1750555353126598700,2.5785986328125,8.42400074005127,5.419950485229492,0.43905001878738403
1750555353136203800,2.588203857421875,8.452950477600098,5.5489501953125,0.2880000174045563
1750555353145809000,2.597808837890625,8.344950675964355,5.566050052642822,0.2639999985694885
1750555353155413800,2.607413818359375,8.209050178527832,5.484000205993652,0.4410000145435333
1750555353165019000,2.617018798828125,8.173049926757812,5.374050140380859,0.6210000514984131
1750555353174624000,2.6266240234375,8.105999946594238,5.317050457000732,0.6780000329017639
1750555353184228900,2.636228759765625,8.08905029296875,5.344950199127197,0.6300000548362732
1750555353193834200,2.645834228515625,8.197050094604492,5.3959503173828125,0.5179499983787537
1750555353203439000,2.655439208984375,8.32800006866455,5.48205041885376,0.34800001978874207
1750555353213044200,2.665044189453125,8.338050842285156,5.523000240325928,0.2689500153064728
1750555353222649000,2.674649169921875,8.173049926757812,5.527050495147705,0.2569500207901001
1750555353232254200,2.684254150390625,8.10105037689209,5.593950271606445,0.31200000643730164
1750555353241859300,2.693859375,8.151000022888184,5.542050361633301,0.34095001220703125
1750555353251464400,2.70346435546875,8.314050674438477,5.44605016708374,0.364950031042099
1750555353261069600,2.713069580078125,8.38800048828125,5.404950141906738,0.41505002975463867
1750555353270674400,2.72267431640625,8.296950340270996,5.422050476074219,0.47505003213882446
1750555353280279300,2.732279296875,8.185050010681152,5.464950084686279,0.5149500370025635
1750555353289884400,2.741884521484375,8.155950546264648,5.48205041885376,0.45795002579689026
1750555353299489500,2.751489501953125,8.12505054473877,5.508000373840332,0.364950031042099
1750555353309094400,2.761094482421875,8.043000221252441,5.520000457763672,0.3049500286579132
1750555353318699500,2.770699462890625,7.9860005378723145,5.479050159454346,0.34995001554489136
1750555353328304600,2.7803046875,7.978950500488281,5.428950309753418,0.42195001244544983
1750555353337909800,2.78990966796875,8.161050796508789,5.4150004386901855,0.4819500148296356
1750555353347514600,2.7995146484375,8.332950592041016,5.392950057983398,0.4939500093460083
1750555353357120000,2.8091201171875,8.371050834655762,5.419950485229492,0.44805002212524414
1750555353366724900,2.818724853515625,8.315999984741211,5.475000381469727,0.3910500109195709
1750555353376329700,2.828329833984375,8.163000106811523,5.494050025939941,0.4030500054359436
1750555353385934800,2.837934814453125,7.914000511169434,5.475000381469727,0.3739500045776367
1750555353395540000,2.8475400390625,7.837050437927246,5.496000289916992,0.3739500045776367
1750555353405144800,2.857144775390625,7.8259501457214355,5.488950252532959,0.4240500330924988
1750555353414750000,2.86675,7.921050548553467,5.499000072479248,0.534000039100647
1750555353424355000,2.87635498046875,8.10300064086914,5.503050327301025,0.5440500378608704
1750555353433960000,2.8859599609375,8.167950630187988,5.439000129699707,0.5659500360488892
1750555353443565000,2.89556494140625,8.12700080871582,5.431950092315674,0.5269500017166138
1750555353453170000,2.905169921875,7.998000144958496,5.476950168609619,0.3139500021934509
1750555353462775300,2.914775390625,7.854000568389893,5.563050270080566,0.15600000321865082
1750555353472380200,2.924380126953125,7.849050521850586,5.578050136566162,0.11505000293254852
1750555353481985300,2.9339853515625,7.924050331115723,5.557950496673584,0.17505000531673431
1750555353491590400,2.94359033203125,8.006999969482422,5.52495002746582,0.2740500271320343
1750555353501195300,2.9531953125,8.031000137329102,5.53695011138916,0.30705001950263977
1750555353510800100,2.962800048828125,8.107950210571289,5.52495002746582,0.36000001430511475
1750555353520405500,2.972405517578125,8.151000022888184,5.539050102233887,0.3550500273704529
1750555353530010600,2.9820107421875,8.179950714111328,5.499000072479248,0.2740500271320343
1750555353539615500,2.991615478515625,8.235000610351562,5.5819501876831055,0.13005000352859497
1750555353549220600,3.001220703125,8.13705062866211,5.611050128936768,0.06795000284910202
1750555353558825700,3.01082568359375,7.984050273895264,5.629950046539307,0.11100000888109207
1750555353568430600,3.0204306640625,7.9960503578186035,5.623050212860107,0.24000000953674316
1750555353578035700,3.03003564453125,8.12700080871582,5.527050495147705,0.37905001640319824
1750555353587640800,3.039640869140625,8.315999984741211,5.4120001792907715,0.42000001668930054
1750555353597245700,3.04924560546875,8.403000831604004,5.419950485229492,0.3139500021934509
1750555353606850600,3.0588505859375,8.443050384521484,5.4340500831604,0.15900000929832458
1750555353616456000,3.0684560546875,8.242050170898438,5.499000072479248,0.1270500123500824
1750555353626060800,3.078060791015625,7.990950584411621,5.52495002746582,0.20400001108646393
1750555353635666000,3.087666015625,7.897050380706787,5.53695011138916,0.23295001685619354
1750555353645270800,3.097270751953125,8.034000396728516,5.568000316619873,0.23805001378059387
1750555353654876000,3.1068759765625,8.230050086975098,5.52495002746582,0.23295001685619354
1750555353664481000,3.11648095703125,8.482049942016602,5.419950485229492,0.20595000684261322
1750555353674086000,3.1260859375,8.391000747680664,5.38800048828125,0.18000000715255737
1750555353683691300,3.135691162109375,8.050950050354004,5.569950103759766,0.034050002694129944
1750555353693296000,3.145296142578125,7.753950595855713,5.608950138092041,0.040950000286102295
1750555353702901200,3.1549013671875,7.6459503173828125,5.57295036315918,0.10395000129938126
1750555353712506400,3.16450634765625,7.7470502853393555,5.539050102233887,0.1680000126361847
1750555353722111200,3.174111328125,7.914000511169434,5.500950336456299,0.2659500241279602
1750555353731716400,3.18371630859375,8.110050201416016,5.452950477600098,0.38100001215934753
1750555353741321200,3.1933212890625,8.166000366210938,5.383950233459473,0.43905001878738403
1750555353750926300,3.20292626953125,8.047950744628906,5.37600040435791,0.3430500030517578
1750555353760531500,3.212531494140625,7.939950466156006,5.451000213623047,0.24195000529289246
1750555353770136600,3.222136474609375,7.854000568389893,5.484000205993652,0.20595000684261322
1750555353779741700,3.23174169921875,7.857000350952148,5.398050308227539,0.3139500021934509
1750555353789346600,3.2413466796875,7.9860005378723145,5.374050140380859,0.364950031042099
1750555353798951400,3.250951416015625,8.215950012207031,5.386050224304199,0.30000001192092896
1750555353808556500,3.260556640625,8.32800006866455,5.428950309753418,0.21405000984668732
1750555353818161700,3.27016162109375,8.332950592041016,5.47005033493042,0.13905000686645508
1750555353827766800,3.279766845703125,8.235000610351562,5.530050277709961,0.07695000618696213
1750555353837372000,3.289371826171875,8.134050369262695,5.4910502433776855,0.08700000494718552
1750555353846976800,3.298976806640625,8.0910005569458,5.494050025939941,0.12300000339746475
1750555353856582000,3.308581787109375,8.14905071258545,5.545950412750244,0.09195000678300858
1750555353866187000,3.31818701171875,8.260950088500977,5.542050361633301,0.1489500105381012
1750555353875792000,3.3277919921875,8.367000579833984,5.479050159454346,0.25005000829696655
1750555353885397200,3.337397216796875,8.446050643920898,5.371950149536133,0.3570000231266022
1750555353895002000,3.347002197265625,8.440950393676758,5.317050457000732,0.3910500109195709
1750555353904607000,3.35660693359375,8.371050834655762,5.314050197601318,0.34095001220703125
1750555353914212000,3.366212158203125,8.239950180053711,5.36400032043457,0.22800001502037048
1750555353923817200,3.375817138671875,8.197050094604492,5.443050384521484,0.15600000321865082
1750555353933422000,3.385422119140625,8.25195026397705,5.448000431060791,0.23805001378059387
1750555353943027200,3.395027099609375,8.34000015258789,5.424000263214111,0.34995001554489136
1750555353952632300,3.40463232421875,8.452950477600098,5.317050457000732,0.44805002212524414
1750555353962237400,3.414237548828125,8.503050804138184,5.293050289154053,0.5080500245094299
1750555353971842300,3.42384228515625,8.508000373840332,5.3020501136779785,0.46995002031326294
1750555353981447700,3.43344775390625,8.460000038146973,5.27400016784668,0.46695002913475037
1750555353991052500,3.443052490234375,8.367000579833984,5.233050346374512,0.5110500454902649
1750555354000657400,3.452657470703125,8.284950256347656,5.269050121307373,0.5509500503540039
1750555354010262800,3.4622626953125,8.319000244140625,5.374050140380859,0.5029500126838684
1750555354019867600,3.47186767578125,8.32800006866455,5.329050064086914,0.5029500126838684
1750555354029472500,3.481472412109375,8.247000694274902,5.317050457000732,0.5629500150680542
1750555354039078000,3.491077880859375,8.14905071258545,5.317050457000732,0.5680500268936157
1750555354048682800,3.500682861328125,8.04104995727539,5.3359503746032715,0.520050048828125
1750555354058287600,3.51028759765625,8.059950828552246,5.392950057983398,0.40005001425743103
1750555354067892700,3.519892822265625,8.10105037689209,5.443050384521484,0.2760000228881836
1750555354077497900,3.529497802734375,8.074950218200684,5.467050075531006,0.25005000829696655
1750555354087102700,3.539102783203125,8.055000305175781,5.476950168609619,0.283050000667572
1750555354096708000,3.5487080078125,8.074950218200684,5.460000038146973,0.34095001220703125
1750555354106313000,3.55831298828125,8.06505012512207,5.403000354766846,0.34995001554489136
1750555354115918000,3.56791796875,8.017050743103027,5.367000102996826,0.37905001640319824
1750555354125523200,3.577523193359375,7.914000511169434,5.391000270843506,0.3930000066757202
1750555354135128000,3.587128173828125,7.842000484466553,5.4120001792907715,0.3840000033378601
1750555354144733200,3.596733154296875,7.942950248718262,5.410050392150879,0.3450000286102295
1750555354154338300,3.60633837890625,8.058000564575195,5.422050476074219,0.3049500286579132
1750555354163943400,3.615943359375,8.13705062866211,5.416950225830078,0.28995001316070557
1750555354173548300,3.62554833984375,8.233050346374512,5.383950233459473,0.30900001525878906
1750555354183153200,3.635153076171875,8.320950508117676,5.350050449371338,0.3240000009536743
1750555354192758500,3.644758544921875,8.391000747680664,5.283000469207764,0.2779500186443329
1750555354202363400,3.65436328125,8.355000495910645,5.281050205230713,0.30900001525878906
1750555354211968300,3.66396826171875,8.191950798034668,5.293050289154053,0.3570000231266022
1750555354221573600,3.67357373046875,8.062950134277344,5.295000076293945,0.4240500330924988
1750555354231178800,3.6831787109375,8.029050827026367,5.308950424194336,0.4240500330924988
1750555354240783600,3.69278369140625,8.082000732421875,5.311950206756592,0.4320000112056732
1750555354250388500,3.702388427734375,8.12505054473877,5.329050064086914,0.4549500346183777
1750555354259993900,3.711993896484375,8.230050086975098,5.323950290679932,0.4320000112056732
1750555354269598700,3.7215986328125,8.282999992370605,5.359950065612793,0.3739500045776367
1750555354279203800,3.731203857421875,8.304000854492188,5.386050224304199,0.2760000228881836
1750555354288809000,3.74080908203125,8.282999992370605,5.3959503173828125,0.26205000281333923
1750555354298413800,3.750413818359375,8.197050094604492,5.404950141906738,0.2970000207424164
1750555354308019000,3.76001904296875,8.12505054473877,5.431950092315674,0.2970000207424164
1750555354317624000,3.7696240234375,8.167950630187988,5.427000045776367,0.3049500286579132
1750555354327229000,3.77922900390625,8.304000854492188,5.403000354766846,0.36000001430511475
1750555354336834000,3.788833984375,8.368950843811035,5.379000186920166,0.3739500045776367
1750555354346439200,3.798439208984375,8.308950424194336,5.392950057983398,0.40995001792907715
1750555354356044000,3.8080439453125,8.209050178527832,5.4340500831604,0.40005001425743103
1750555354365649200,3.817649169921875,8.138999938964844,5.451000213623047,0.3240000009536743
1750555354375254000,3.82725390625,8.12700080871582,5.436000347137451,0.30195000767707825
1750555354384859400,3.836859375,8.118000030517578,5.400000095367432,0.30195000767707825
1750555354394464300,3.84646435546875,8.167950630187988,5.356950283050537,0.3240000009536743
1750555354404069000,3.856069091796875,8.211000442504883,5.350050449371338,0.36000001430511475
1750555354413674200,3.86567431640625,8.206049919128418,5.329050064086914,0.3739500045776367
1750555354423279400,3.875279296875,8.199000358581543,5.410050392150879,0.32895001769065857
1750555354432884200,3.88488427734375,8.166000366210938,5.452950477600098,0.30195000767707825
1750555354442489000,3.894489013671875,8.176950454711914,5.3959503173828125,0.34800001978874207
1750555354452094500,3.904094482421875,8.199000358581543,5.367000102996826,0.36000001430511475
1750555354461699600,3.913699462890625,8.215950012207031,5.371950149536133,0.32100000977516174
1750555354471304400,3.923304443359375,8.209050178527832,5.386050224304199,0.2950500249862671
1750555354480909600,3.93290966796875,8.143950462341309,5.350050449371338,0.3379500210285187
1750555354490514700,3.9425146484375,8.105999946594238,5.323950290679932,0.42705002427101135
1750555354500119600,3.95211962890625,8.098050117492676,5.305050373077393,0.5299500226974487
1750555354509724700,3.961724609375,8.098050117492676,5.293050289154053,0.5419500470161438
1750555354519329800,3.971329833984375,8.143950462341309,5.307000160217285,0.4819500148296356
1750555354528934700,3.9809345703125,8.199000358581543,5.338050365447998,0.3139500021934509
1750555354538539800,3.990539794921875,8.280000686645508,5.350050449371338,0.2569500207901001
1750555354548144600,4.00014453125,8.331000328063965,5.314050197601318,0.2950500249862671
1750555354557750000,4.00975,8.284950256347656,5.257050037384033,0.4510500133037567
1750555354567354600,4.019354736328125,8.163000106811523,5.299950122833252,0.5230500102043152
1750555354576959700,4.028959716796875,8.11500072479248,5.3959503173828125,0.49605002999305725
1750555354586564900,4.03856494140625,8.167950630187988,5.48205041885376,0.3550500273704529
1750555354596170000,4.048169921875,8.295000076293945,5.464950084686279,0.2659500241279602
1750555354605775000,4.057775146484375,8.41200065612793,5.37600040435791,0.25394999980926514
1750555354615380000,4.0673798828125,8.347050666809082,5.278050422668457,0.3550500273704529
1750555354624985000,4.076985107421875,8.280000686645508,5.238000392913818,0.44805002212524414
1750555354634590000,4.08658984375,8.242050170898438,5.263950347900391,0.48405003547668457
1750555354644195000,4.096195068359375,8.170050621032715,5.250000476837158,0.534000039100647
1750555354653800200,4.10580029296875,8.010000228881836,5.284950256347656,0.5419500470161438
1750555354663405000,4.115405029296875,7.942950248718262,5.281050205230713,0.5460000038146973
1750555354673010400,4.125010498046875,7.9069504737854,5.247000217437744,0.4600500166416168
1750555354682615300,4.134615234375,7.833000183105469,5.20395040512085,0.3720000088214874
1750555354692220400,4.144220458984375,7.828050136566162,5.15595006942749,0.30705001950263977
1750555354701825500,4.153825439453125,7.912050247192383,5.1469502449035645,0.3379500210285187
1750555354711430700,4.1634306640625,8.062950134277344,5.214000225067139,0.4050000309944153
1750555354721035500,4.173035400390625,8.142000198364258,5.238000392913818,0.48705002665519714
1750555354730640400,4.182640380859375,8.295000076293945,5.194050312042236,0.5580000281333923
1750555354740245800,4.192245849609375,8.403000831604004,5.15595006942749,0.7159500122070312
1750555354749850600,4.2018505859375,8.314050674438477,5.1469502449035645,0.8029500246047974
1750555354759455700,4.211455810546875,8.266050338745117,5.161050319671631,0.7210500240325928
1750555354769060600,4.221060546875,8.35200023651123,5.233050346374512,0.5940000414848328
1750555354778665700,4.230665771484375,8.52495002746582,5.257050037384033,0.5460000038146973
1750555354788270800,4.240270751953125,8.6850004196167,5.323950290679932,0.609000027179718
1750555354797876000,4.2498759765625,8.733000755310059,5.359950065612793,0.5730000138282776
1750555354807480800,4.259480712890625,8.761950492858887,5.3959503173828125,0.5389500260353088
1750555354817085700,4.269085693359375,8.593950271606445,5.347950458526611,0.5659500360488892
1750555354826691000,4.278691162109375,8.42400074005127,5.383950233459473,0.597000002861023
1750555354836296000,4.2882958984375,8.629950523376465,5.416950225830078,0.6180000305175781
1750555354845901000,4.297901123046875,9.343950271606445,5.479050159454346,0.5370000004768372
1750555354855506000,4.307505859375,10.52595043182373,5.4120001792907715,0.6880500316619873
1750555354865111000,4.317111083984375,11.529000282287598,5.398050308227539,0.7450500130653381
1750555354874716200,4.326716064453125,12.408000946044922,5.506050109863281,0.4990500211715698
1750555354884321300,4.3363212890625,13.468950271606445,5.439000129699707,0.08895000070333481
1750555354893926100,4.345926025390625,16.52895164489746,5.175000190734863,-0.5470499992370605
1750555354903531300,4.35553125,20.93895149230957,3.9370501041412354,-0.9150000214576721
1750555354913136400,4.365136474609375,23.551050186157227,2.8909502029418945,-0.5059500336647034
1750555354922741500,4.374741455078125,24.648000717163086,2.5699501037597656,-0.7309500575065613
1750555354932346400,4.384346435546875,23.917951583862305,1.9429501295089722,-1.6120500564575195
1750555354941951200,4.393951171875,18.691051483154297,1.4020500183105469,-2.4409501552581787
1750555354951556600,4.403556640625,12.331950187683105,1.6819500923156738,-2.527050018310547
1750555354961161500,4.413161376953125,7.624050140380859,2.8000500202178955,-1.2310500144958496
1750555354970766300,4.422766357421875,4.146000385284424,3.910950183868408,0.5130000114440918
1750555354980371500,4.432371337890625,2.7619500160217285,3.2380502223968506,2.448000192642212
1750555354989976800,4.441976806640625,0.753000020980835,3.4390501976013184,3.331050157546997
1750555354999581400,4.45158154296875,-2.955000162124634,5.455050468444824,2.545950174331665
1750555355009186800,4.461186767578125,-5.910000324249268,7.4569501876831055,1.6000500917434692
1750555355018791700,4.470791748046875,-6.388050079345703,8.452950477600098,0.8530500531196594
1750555355028396800,4.480396728515625,-5.953050136566162,8.664000511169434,0.5230500102043152
1750555355038001700,4.490001708984375,-5.28000020980835,8.581950187683105,0.817050039768219
1750555355047606800,4.499606689453125,-4.565999984741211,8.154000282287598,1.2930001020431519
1750555355057212000,4.5092119140625,-3.6610500812530518,7.792050361633301,1.665000081062317
1750555355066816800,4.518816650390625,-2.581050157546997,7.488000392913818,1.7839500904083252
1750555355076422000,4.528421875,-1.7479500770568848,7.303950309753418,1.6570501327514648
1750555355086027000,4.538027099609375,-1.2960000038146973,7.2270002365112305,1.3050000667572021
1750555355095632000,4.5476318359375,-0.9439500570297241,7.179000377655029,1.068000078201294
1750555355105237000,4.557237060546875,-1.0399500131607056,7.110000133514404,0.7909500598907471
1750555355114842000,4.566842041015625,-1.5109500885009766,7.387950420379639,0.4720500111579895
1750555355124447200,4.576447265625,-1.9489500522613525,7.72005033493042,0.34095001220703125
1750555355134052000,4.586052001953125,-2.3970000743865967,8.074950218200684,0.19905000925064087
1750555355143657200,4.5956572265625,-2.7109501361846924,8.26200008392334,0.11295000463724136
1750555355153262000,4.605261962890625,-2.7199501991271973,8.40000057220459,0.013050000183284283
1750555355162867200,4.6148671875,-2.8399500846862793,8.329050064086914,0.04800000041723251
1750555355172472300,4.624472412109375,-2.7180001735687256,8.07194995880127,0.1080000028014183
1750555355182077400,4.634077392578125,-2.545950174331665,7.8070502281188965,0.25905001163482666
1750555355191682300,4.643682373046875,-2.9569501876831055,7.693950176239014,0.6180000305175781
1750555355201287400,4.653287353515625,-3.532050132751465,7.515000343322754,0.9390000700950623
1750555355210892500,4.662892578125,-3.079050064086914,6.889950275421143,1.0470000505447388
1750555355220497400,4.672497314453125,-1.7839500904083252,5.7330002784729,0.817050039768219
1750555355230102500,4.6821025390625,1.1740500926971436,4.906949996948242,-0.6190500259399414
1750555355239707600,4.691707763671875,4.6720499992370605,4.8259501457214355,-1.3339500427246094
1750555355249312500,4.7013125,5.862000465393066,4.969050407409668,-1.7680500745773315
1750555355258917400,4.71091748046875,7.129050254821777,5.338050365447998,-2.6730000972747803
1750555355268522800,4.720522705078125,10.780050277709961,5.154000282287598,-2.328000068664551
1750555355278127600,4.730127685546875,14.649001121520996,4.483050346374512,-1.071000099182129
1750555355287732700,4.739732666015625,16.753950119018555,3.7390501499176025,0.06000000238418579
1750555355297337900,4.749337890625,16.738950729370117,3.6600000858306885,0.9610500335693359
1750555355306942700,4.758942626953125,14.40000057220459,4.195950031280518,1.3680000305175781
1750555355316547800,4.7685478515625,11.773950576782227,4.668000221252441,1.0110000371932983
1750555355326152700,4.778152587890625,11.14905071258545,5.3359503746032715,0.5080500245094299
1750555355335758000,4.787758056640625,12.69795036315918,5.448000431060791,0.13500000536441803
1750555355345363000,4.797363037109375,14.800050735473633,4.831050395965576,-0.0580500029027462
1750555355354968000,4.806968017578125,15.399001121520996,4.768050193786621,-0.22800001502037048
1750555355364573200,4.8165732421875,14.484001159667969,5.010000228881836,-0.18495000898838043
1750555355374178000,4.826177978515625,12.508950233459473,5.1060004234313965,-0.11805000901222229
1750555355383783000,4.835782958984375,10.782000541687012,5.299950122833252,-0.018000001087784767
1750555355393388000,4.845387939453125,9.669000625610352,5.455050468444824,0.14400000870227814
1750555355402993200,4.8549931640625,9.142050743103027,5.520000457763672,0.2689500153064728
1750555355412598000,4.864597900390625,9.075000762939453,5.578050136566162,0.3960000276565552
1750555355422203100,4.874203125,9.004050254821777,5.56095027923584,0.46695002913475037
1750555355431808500,4.88380859375,8.826000213623047,5.605950355529785,0.4459500312805176
1750555355441413400,4.893413330078125,8.802000045776367,5.740050315856934,0.2970000207424164
1750555355451018500,4.9030185546875,8.802000045776367,5.716050148010254,0.1489500105381012
1750555355460623400,4.912623291015625,9.123000144958496,5.63700008392334,0.0010500000789761543
1750555355470228500,4.922228515625,9.484950065612793,5.52495002746582,-0.13005000352859497
1750555355479833600,4.93183349609375,9.241050720214844,5.422050476074219,-0.1469999998807907
1750555355489438700,4.941438720703125,8.295000076293945,5.506050109863281,-0.15900000929832458
1750555355499043600,4.951043701171875,7.414050579071045,5.554050445556641,0.015000000596046448
1750555355508648400,4.9606484375,6.931950092315674,5.593950271606445,0.1660500019788742
1750555355518253800,4.97025390625,7.026000499725342,5.63700008392334,0.22605000436306
1750555355527858700,4.979858642578125,7.483050346374512,5.530050277709961,0.22995001077651978
1750555355537463600,4.989463623046875,7.930950164794922,5.448000431060791,0.20400001108646393
1750555355547068700,4.999068603515625,8.36205005645752,5.400000095367432,0.1680000126361847
1750555355556673800,5.008673828125,8.383049964904785,5.4120001792907715,0.15900000929832458
1750555355566279000,5.01827880859375,8.10300064086914,5.467050075531006,0.08205000311136246
1750555355575884000,5.027884033203125,7.909050464630127,5.620950222015381,-0.06300000101327896
1750555355585489000,5.037489013671875,7.741950511932373,5.6419501304626465,-0.17805001139640808
1750555355595094000,5.047093994140625,7.495050430297852,5.632950305938721,-0.2689500153064728
1750555355604699000,5.056698974609375,7.348950386047363,5.712000370025635,-0.2740500271320343
1750555355614304000,5.066303955078125,7.332000255584717,5.724000453948975,-0.16095000505447388
1750555355623909000,5.0759091796875,7.52400016784668,5.709000110626221,-0.07005000114440918
1750555355633514000,5.085513916015625,8.043000221252441,5.74500036239624,-0.07695000618696213
1750555355643119000,5.095119140625,8.398050308227539,5.712000370025635,-0.08505000174045563
1750555355652724200,5.10472412109375,8.41200065612793,5.688000202178955,-0.04605000093579292
1750555355662329000,5.1143291015625,8.26395034790039,5.575050354003906,0.00795000046491623
1750555355671934200,5.123934326171875,8.017050743103027,5.506050109863281,0.08895000070333481
1750555355681539300,5.133539306640625,7.701000213623047,5.460000038146973,0.18495000898838043
1750555355691144200,5.143144287109375,7.509000301361084,5.467050075531006,0.24000000953674316
1750555355700749300,5.152749267578125,7.480950355529785,5.616000175476074,0.12300000339746475
1750555355710354400,5.1623544921875,7.63200044631958,5.683050155639648,0.13005000352859497
1750555355719959600,5.17195947265625,7.780050277709961,5.695050239562988,0.12000000476837158
1750555355729564400,5.181564453125,8.002950668334961,5.671050071716309,0.17805001139640808
1750555355739169500,5.19116943359375,8.173049926757812,5.5819501876831055,0.22800001502037048
1750555355748774700,5.200774658203125,8.223000526428223,5.602050304412842,0.16305001080036163
1750555355758379800,5.2103798828125,8.13705062866211,5.593950271606445,0.12300000339746475
1750555355767984600,5.219984619140625,7.998000144958496,5.64900016784668,0.08400000631809235
1750555355777589800,5.22958984375,7.972050189971924,5.707050323486328,0.09405000507831573
1750555355787194600,5.239194580078125,7.927950382232666,5.685000419616699,0.17805001139640808
1750555355796800000,5.248800048828125,7.909050464630127,5.625000476837158,0.24495001137256622
1750555355806404900,5.25840478515625,7.945050239562988,5.592000484466553,0.2950500249862671
1750555355816009700,5.268009765625,7.8949503898620605,5.530050277709961,0.3139500021934509
1750555355825614600,5.277614501953125,7.888050556182861,5.508000373840332,0.3049500286579132
1750555355835220000,5.287219970703125,7.939950466156006,5.496000289916992,0.30900001525878906
1750555355844824800,5.296824951171875,8.022000312805176,5.530050277709961,0.2659500241279602
1750555355854430000,5.306429931640625,8.122050285339355,5.605950355529785,0.2160000056028366
1750555355864035000,5.31603515625,8.179950714111328,5.629950046539307,0.2689500153064728
1750555355873640000,5.325639892578125,8.247000694274902,5.613000392913818,0.283050000667572
1750555355883244800,5.335244873046875,8.27595043182373,5.6419501304626465,0.21105000376701355
1750555355892850000,5.344849853515625,8.086950302124023,5.635050296783447,0.09405000507831573
1750555355902455000,5.354455078125,7.830000400543213,5.677950382232666,0.04605000093579292
1750555355912060200,5.36406005859375,7.7440505027771,5.700000286102295,0.07695000618696213
1750555355921665000,5.3736650390625,7.7560505867004395,5.697000503540039,0.21105000376701355
1750555355931270100,5.383270263671875,7.818000316619873,5.689950466156006,0.25905001163482666
1750555355940875300,5.392875244140625,7.900050163269043,5.781000137329102,0.24195000529289246
1750555355950480100,5.402480224609375,8.0910005569458,5.794950485229492,0.17805001139640808
1750555355960085200,5.412085205078125,8.239950180053711,5.725950241088867,0.13500000536441803
1750555355969690400,5.4216904296875,8.167950630187988,5.713950157165527,0.034050002694129944
1750555355979295200,5.431295166015625,8.062950134277344,5.712000370025635,0.06795000284910202
1750555355988900400,5.440900390625,8.050950050354004,5.647050380706787,0.11805000901222229
1750555355998505500,5.45050537109375,7.962000370025635,5.64900016784668,0.17100000381469727
1750555356008110300,5.4601103515625,7.972050189971924,5.604000091552734,0.26205000281333923
1750555356017715500,5.469715576171875,8.029050827026367,5.602050304412842,0.36705002188682556
1750555356027320600,5.479320556640625,7.954950332641602,5.587050437927246,0.30900001525878906
1750555356036925400,5.488925537109375,7.882950305938721,5.659050464630127,0.22800001502037048
1750555356046530300,5.4985302734375,7.813950538635254,5.685000419616699,0.1870500147342682
1750555356056135700,5.5081357421875,7.593000411987305,5.707050323486328,0.17100000381469727
1750555356065740500,5.517740478515625,7.477950572967529,5.83905029296875,0.12495000660419464
1750555356075345700,5.527345703125,7.653000354766846,5.877000331878662,0.004950000438839197
1750555356084950500,5.536950439453125,7.954950332641602,5.788050174713135,-0.10095000267028809
1750555356094555600,5.5465556640625,8.14905071258545,5.664000034332275,-0.043950002640485764
1750555356104160800,5.556160888671875,8.271000862121582,5.625000476837158,0.040950000286102295
1750555356113765600,5.565765625,8.28795051574707,5.608950138092041,0.08895000070333481
1750555356123370800,5.575370849609375,8.284950256347656,5.563050270080566,0.17295001447200775
1750555356132975900,5.584975830078125,8.266050338745117,5.551050186157227,0.2740500271320343
1750555356142580700,5.594580810546875,8.12700080871582,5.467050075531006,0.31905001401901245
1750555356152185900,5.604185791015625,7.9960503578186035,5.506050109863281,0.28095000982284546
1750555356161791000,5.613791015625,7.954950332641602,5.587050437927246,0.19500000774860382
1750555356171395800,5.623395751953125,7.924050331115723,5.623050212860107,0.11100000888109207
1750555356181001200,5.633001220703125,7.984050273895264,5.680950164794922,0.10605000704526901
1750555356190606000,5.642606201171875,8.029050827026367,5.713950157165527,0.12495000660419464
1750555356200211000,5.6522109375,8.05305004119873,5.680950164794922,0.17295001447200775
1750555356209816000,5.661816162109375,8.04104995727539,5.617950439453125,0.23805001378059387
1750555356219421200,5.671421142578125,8.10300064086914,5.542050361633301,0.24195000529289246
1750555356229026300,5.6810263671875,8.019000053405762,5.511000156402588,0.23295001685619354
1750555356238631400,5.69063134765625,7.912050247192383,5.530050277709961,0.208950012922287
1750555356248236000,5.700236083984375,7.963950157165527,5.575050354003906,0.15405000746250153
1750555356257841400,5.70984130859375,8.12700080871582,5.593950271606445,0.0990000069141388
1750555356267446300,5.7194462890625,8.296950340270996,5.575050354003906,0.12300000339746475
1750555356277051100,5.729051025390625,8.215950012207031,5.575050354003906,0.15405000746250153
1750555356286656500,5.738656494140625,8.08395004272461,5.520000457763672,0.20595000684261322
1750555356296261400,5.748261474609375,8.06505012512207,5.499000072479248,0.22605000436306
1750555356305866500,5.757866455078125,8.07705020904541,5.508000373840332,0.18495000898838043
1750555356315471600,5.7674716796875,8.067000389099121,5.52495002746582,0.16095000505447388
1750555356325076500,5.777076416015625,8.034000396728516,5.590050220489502,0.11100000888109207
1750555356334681600,5.786681640625,7.9960503578186035,5.593950271606445,0.08400000631809235
1750555356344286700,5.79628662109375,7.869000434875488,5.616000175476074,0.06300000101327896
1750555356353891600,5.8058916015625,7.804050445556641,5.6569504737854,0.04800000041723251
1750555356363496400,5.815496337890625,7.846950531005859,5.64900016784668,0.08400000631809235
1750555356373101600,5.8251015625,7.993050575256348,5.604000091552734,0.14205001294612885
1750555356382706700,5.834706787109375,8.05305004119873,5.506050109863281,0.19200000166893005
1750555356392311600,5.8443115234375,8.130000114440918,5.4910502433776855,0.208950012922287
1750555356401916700,5.853916748046875,8.07194995880127,5.545950412750244,0.1469999998807907
1750555356411521800,5.863521728515625,7.993050575256348,5.599050045013428,0.05595000088214874
1750555356421127000,5.873126953125,7.924050331115723,5.640000343322754,0.019950000569224358
1750555356430731800,5.882731689453125,7.870950222015381,5.629950046539307,0.0010500000789761543
1750555356440337000,5.8923369140625,8.011950492858887,5.569950103759766,0.04800000041723251
1750555356449942000,5.90194189453125,8.212950706481934,5.487000465393066,0.11100000888109207
1750555356459547100,5.911547119140625,8.326050758361816,5.427000045776367,0.18000000715255737
1750555356469152000,5.921152099609375,8.35200023651123,5.400000095367432,0.20400001108646393
1750555356478756900,5.9307568359375,8.248950004577637,5.443050384521484,0.15900000929832458
1750555356488362000,5.940362060546875,8.098050117492676,5.475000381469727,0.11805000901222229
1750555356497967000,5.949967041015625,7.930950164794922,5.527050495147705,0.039000000804662704
1750555356507572200,5.959572265625,7.869000434875488,5.596950054168701,0.010050000622868538
1750555356517177000,5.969177001953125,7.9960503578186035,5.593950271606445,0.0010500000789761543
1750555356526782000,5.978781982421875,8.146050453186035,5.578050136566162,0.06000000238418579
1750555356536387000,5.988386962890625,8.247000694274902,5.592000484466553,0.07500000298023224
1750555356545992200,5.9979921875,8.416950225830078,5.578050136566162,0.036000002175569534
1750555356555597000,6.00759716796875,8.500950813293457,5.520000457763672,0.0580500029027462
1750555356565202000,6.017201904296875,8.268000602722168,5.476950168609619,0.14205001294612885
1750555356574807300,6.026807373046875,7.962000370025635,5.499000072479248,0.2689500153064728
1750555356584412200,6.036412109375,7.821000576019287,5.4720001220703125,0.325950026512146
1750555356594017300,6.046017333984375,7.773000240325928,5.512950420379639,0.3139500021934509
1750555356603622400,6.055622314453125,7.7560505867004395,5.539050102233887,0.25005000829696655
1750555356613227300,6.065227294921875,7.846950531005859,5.5819501876831055,0.08895000070333481
1750555356622832400,6.074832275390625,7.900050163269043,5.625000476837158,-0.006000000052154064
1750555356632437500,6.0844375,7.987950325012207,5.611050128936768,-0.06495000422000885
1750555356642042400,6.09404248046875,8.155950546264648,5.57295036315918,-0.022050000727176666
1750555356651647500,6.1036474609375,8.308950424194336,5.4910502433776855,0.11295000463724136
1750555356661252600,6.113252685546875,8.472000122070312,5.410050392150879,0.19500000774860382
1750555356670857700,6.122857666015625,8.551050186157227,5.374050140380859,0.2740500271320343
1750555356680462600,6.132462646484375,8.43600082397461,5.380950450897217,0.25005000829696655
1750555356690067500,6.1420673828125,8.307000160217285,5.455050468444824,0.16305001080036163
1750555356699672600,6.151672607421875,8.227950096130371,5.494050025939941,0.010050000622868538
1750555356709277700,6.161277587890625,8.173049926757812,5.518050193786621,-0.08895000070333481
1750555356718882600,6.170882568359375,8.235000610351562,5.511000156402588,-0.04605000093579292
1750555356728487700,6.18048779296875,8.260950088500977,5.448000431060791,0.036000002175569534
1750555356738092800,6.1900927734375,8.215950012207031,5.38800048828125,0.10395000129938126
1750555356747697700,6.19969775390625,8.154000282287598,5.4120001792907715,0.1270500123500824
1750555356757302800,6.209302734375,8.09595012664795,5.3959503173828125,0.10095000267028809
1750555356766908000,6.218907958984375,8.067000389099121,5.4150004386901855,0.06795000284910202
1750555356776512800,6.2285126953125,8.130000114440918,5.419950485229492,0.08205000311136246
1750555356786118000,6.238117919921875,8.143950462341309,5.398050308227539,0.04800000041723251
1750555356795723000,6.247722900390625,8.170050621032715,5.380950450897217,0.11100000888109207
1750555356805328000,6.257327880859375,8.236949920654297,5.374050140380859,0.208950012922287
1750555356814932700,6.2669326171875,8.247000694274902,5.353050231933594,0.3430500030517578
1750555356824538000,6.2765380859375,8.08395004272461,5.344950199127197,0.3739500045776367
1750555356834143000,6.28614306640625,7.948050498962402,5.359950065612793,0.2950500249862671
1750555356843748000,6.295748046875,7.9069504737854,5.392950057983398,0.26205000281333923
1750555356853353000,6.30535302734375,7.900050163269043,5.38800048828125,0.25005000829696655
1750555356862958000,6.3149580078125,7.864050388336182,5.38800048828125,0.31905001401901245
1750555356872563200,6.324563232421875,7.846950531005859,5.428950309753418,0.33105000853538513
1750555356882168300,6.334168212890625,7.8349504470825195,5.416950225830078,0.39795002341270447
1750555356891773400,6.3437734375,7.845000267028809,5.518050193786621,0.40005001425743103
1750555356901378300,6.35337841796875,7.9860005378723145,5.518050193786621,0.36900001764297485
1750555356910983200,6.362983154296875,8.110050201416016,5.476950168609619,0.33105000853538513
1750555356920588300,6.37258837890625,8.476950645446777,5.568000316619873,0.22800001502037048
1750555356930193400,6.382193359375,9.490050315856934,5.6419501304626465,0.2350500077009201
1750555356939798300,6.39179833984375,11.63700008392334,5.749950408935547,-0.025050001218914986
1750555356949403400,6.4014033203125,14.829000473022461,5.683050155639648,-0.19995000958442688
1750555356959008500,6.411008544921875,17.611051559448242,5.295000076293945,-0.4729500114917755
1750555356968613400,6.42061328125,19.63905143737793,4.567049980163574,-0.45600003004074097
1750555356978218200,6.43021826171875,19.75605010986328,3.700050115585327,-0.20205001533031464
1750555356987823600,6.43982373046875,18.27195167541504,3.9400501251220703,-1.1959500312805176
1750555356997428500,6.449428466796875,16.342050552368164,4.090950012207031,-1.3510500192642212
1750555357007033300,6.459033447265625,13.624051094055176,4.852050304412842,-1.987950086593628
1750555357016638500,6.468638427734375,12.166050910949707,4.906949996948242,-2.5410001277923584
1750555357026243600,6.47824365234375,10.420950889587402,4.41195011138916,-1.6530001163482666
1750555357035848400,6.487848388671875,7.869000434875488,4.1860504150390625,-0.5490000247955322
1750555357045453600,6.49745361328125,5.659050464630127,4.153050422668457,0.0010500000789761543
1750555357055058700,6.50705859375,2.6130001544952393,4.978950023651123,-0.20205001533031464
1750555357064663600,6.51666357421875,-1.2889500856399536,6.577950477600098,-0.29805001616477966
1750555357074268700,6.5262685546875,-4.483050346374512,7.965000152587891,0.22095000743865967
1750555357083873800,6.535873779296875,-5.509950160980225,8.695050239562988,0.5610000491142273
1750555357093478700,6.545478759765625,-5.086050033569336,8.64900016784668,0.8340000510215759
1750555357103083800,6.555083740234375,-3.637050151824951,8.391000747680664,1.128000020980835
1750555357112689000,6.56468896484375,-2.026050090789795,8.158950805664062,0.8890500664710999
1750555357122294000,6.5742939453125,-0.5770500302314758,8.131950378417969,0.4320000112056732
1750555357131899000,6.58389892578125,0.2950500249862671,8.008049964904785,0.08895000070333481
1750555357141503700,6.593503662109375,0.9250500202178955,7.752000331878662,0.18495000898838043
1750555357151109000,6.603109130859375,0.9400500655174255,7.432950496673584,0.6589500308036804
1750555357160714000,6.6127138671875,0.28095000982284546,7.330050468444824,1.0180500745773315
1750555357170318800,6.62231884765625,-1.1040000915527344,7.597950458526611,1.1790000200271606
1750555357179924200,6.63192431640625,-2.754000186920166,8.173049926757812,1.1089500188827515
1750555357189529000,6.641529052734375,-4.042050361633301,8.617950439453125,1.0639500617980957
1750555357199134000,6.651134033203125,-4.389000415802002,8.487000465393066,1.1470500230789185
1750555357208739000,6.660739013671875,-3.6660001277923584,7.929000377655029,1.1790000200271606
1750555357218344200,6.67034423828125,-2.55495023727417,7.3470001220703125,1.3510500192642212
1750555357227949000,6.679948974609375,-1.8660000562667847,7.084050178527832,1.4629501104354858
1750555357237554200,6.68955419921875,-1.420050024986267,6.904050350189209,1.1260499954223633
1750555357247159300,6.6991591796875,-0.38100001215934753,6.787050247192383,0.6949500441551208
1750555357256764200,6.70876416015625,0.2070000171661377,6.760050296783447,0.2569500207901001
1750555357266369300,6.718369384765625,0.6139500141143799,6.721950531005859,-0.0799500048160553
1750555357275974400,6.727974365234375,0.9679500460624695,6.289050102233887,0.043950002640485764
1750555357285579300,6.737579345703125,2.7829501628875732,5.689950466156006,-0.034050002694129944
1750555357295184100,6.74718408203125,5.902950286865234,4.546050071716309,0.09195000678300858
1750555357304789500,6.75678955078125,9.955950736999512,4.147950172424316,-0.35295000672340393
1750555357314394400,6.766394287109375,13.468950271606445,4.126950263977051,-0.4630500078201294
1750555357323999500,6.77599951171875,15.490050315856934,4.633950233459473,-0.7099500298500061
1750555357333604600,6.7856044921875,16.093050003051758,5.130000114440918,-0.48705002665519714
1750555357343209500,6.79520947265625,15.904050827026367,5.311950206756592,0.13199999928474426
1750555357352814300,6.804814453125,15.6670503616333,5.10105037689209,0.6640500426292419
1750555357362419500,6.81441943359375,14.721000671386719,4.840050220489502,1.0060499906539917
1750555357372024600,6.824024658203125,12.649950981140137,5.0560503005981445,1.1759999990463257
1750555357381629700,6.833629638671875,11.010000228881836,5.452950477600098,1.0950000286102295
1750555357391234600,6.843234619140625,10.186050415039062,5.860050201416016,0.8220000267028809
1750555357400839700,6.852839599609375,9.676050186157227,6.20205020904541,0.4990500211715698
1750555357410444500,6.862444580078125,9.619050025939941,6.246000289916992,0.3930000066757202
1750555357420049700,6.872049560546875,9.916050910949707,6.211950302124023,0.3550500273704529
1750555357429654500,6.881654541015625,10.026000022888184,6.319950103759766,0.22305001318454742
1750555357439260000,6.891260009765625,9.870000839233398,6.4609503746032715,0.10605000704526901
1750555357448864800,6.90086474609375,9.41100025177002,6.4830002784729,0.1660500019788742
1750555357458469600,6.9104697265625,8.782950401306152,6.4710001945495605,0.3910500109195709
1750555357468074800,6.92007470703125,8.058000564575195,6.364950180053711,0.6690000295639038
1750555357477679900,6.929679931640625,7.660050392150879,6.265050411224365,0.9769500494003296
1750555357487284700,6.93928466796875,7.723050594329834,6.198000431060791,1.0060499906539917
1750555357496889900,6.948889892578125,8.163000106811523,6.103950500488281,0.7570500373840332
1750555357506494700,6.95849462890625,8.533950805664062,6.1710004806518555,0.36195001006126404
1750555357516099800,6.968099853515625,8.476950645446777,6.205050468444824,0.07500000298023224
1750555357525705000,6.977705078125,8.239950180053711,6.243000507354736,-0.015000000596046448
1750555357535310000,6.98731005859375,7.972050189971924,6.229050159454346,-0.05595000088214874
1750555357544915000,6.9969150390625,7.821000576019287,6.127950191497803,0.0010500000789761543
1750555357554519800,7.006519775390625,7.636050224304199,6.082950115203857,0.043950002640485764
1750555357564125200,7.016125244140625,7.395000457763672,6.076050281524658,0.036000002175569534
1750555357573730000,7.02572998046875,7.4160003662109375,6.085050106048584,0.027000000700354576
1750555357583335000,7.0353349609375,7.474050521850586,6.103950500488281,-0.018000001087784767
1750555357592940000,7.04493994140625,7.657950401306152,6.0610504150390625,0.04605000093579292
1750555357602545200,7.054545166015625,7.852050304412842,6.013050079345703,0.016950000077486038
1750555357612150000,7.06414990234375,7.854000568389893,5.997000217437744,-0.04200000315904617
1750555357621755100,7.073755126953125,7.629000186920166,6.006000518798828,-0.15600000321865082
1750555357631360300,7.0833603515625,7.372950553894043,6.049050331115723,-0.16095000505447388
1750555357640965000,7.092965087890625,7.086000442504883,6.0319504737854,-0.08205000311136246
1750555357650570000,7.102570068359375,7.011000156402588,5.997000217437744,0.04605000093579292
1750555357660175400,7.11217529296875,6.958950519561768,5.985000133514404,0.1680000126361847
1750555357669780200,7.1217802734375,6.909000396728516,6.0610504150390625,0.23805001378059387
1750555357679385000,7.131385009765625,7.026000499725342,6.0610504150390625,0.35295000672340393
1750555357688990200,7.140990234375,7.1670002937316895,5.985000133514404,0.34800001978874207
1750555357698595300,7.15059521484375,7.423050403594971,5.953050136566162,0.24705001711845398
1750555357708200200,7.1602001953125,7.7749505043029785,5.953050136566162,0.08205000311136246
1750555357717805300,7.169805419921875,7.951950550079346,5.881950378417969,0.07005000114440918
1750555357727410400,7.179410400390625,7.933050155639648,5.865000247955322,0.10095000267028809
1750555357737015300,7.189015380859375,7.741950511932373,5.9509501457214355,0.11805000901222229
1750555357746620400,7.198620361328125,7.471050262451172,6.054000377655029,0.16305001080036163
1750555357756225500,7.2082255859375,7.284000396728516,6.130950450897217,0.13905000686645508
1750555357765830400,7.217830322265625,7.276950359344482,6.1710004806518555,0.1489500105381012
1750555357775435500,7.227435546875,7.4350504875183105,6.199950218200684,0.11505000293254852
1750555357785040600,7.23704052734375,7.660050392150879,6.229050159454346,0.05595000088214874
1750555357794645500,7.2466455078125,7.773000240325928,6.150000095367432,0.05595000088214874
1750555357804250600,7.256250732421875,7.8949503898620605,6.091950416564941,0.1469999998807907
1750555357813855500,7.26585546875,8.011950492858887,6.058950424194336,0.26205000281333923
1750555357823460600,7.275460693359375,8.167950630187988,5.998950481414795,0.3379500210285187
1750555357833065700,7.285065673828125,8.25195026397705,6.004050254821777,0.34095001220703125
1750555357842670600,7.294670654296875,8.13705062866211,6.118950366973877,0.22605000436306
1750555357852275700,7.304275634765625,7.909050464630127,6.169050216674805,0.1489500105381012
1750555357861880600,7.313880615234375,7.617000579833984,6.20205020904541,0.1080000028014183
1750555357871485700,7.323485595703125,7.452000141143799,6.246000289916992,0.0580500029027462
1750555357881090800,7.3330908203125,7.426050186157227,6.235950469970703,0.11100000888109207
1750555357890695700,7.34269580078125,7.519050121307373,6.20205020904541,0.15405000746250153
1750555357900300800,7.35230078125,7.678950309753418,6.1620001792907715,0.15105000138282776
1750555357909905700,7.36190576171875,7.957050323486328,6.217050075531006,0.1270500123500824
1750555357919510800,7.3715107421875,8.146050453186035,6.198000431060791,0.10605000704526901
1750555357929116000,7.381115966796875,8.09595012664795,6.166950225830078,0.09405000507831573
1750555357938720800,7.390720703125,7.948050498962402,6.166950225830078,0.14400000870227814
1750555357948325600,7.40032568359375,7.693950176239014,6.094950199127197,0.24195000529289246
1750555357957931000,7.409930908203125,7.52400016784668,6.103950500488281,0.2569500207901001
1750555357967535900,7.419535888671875,7.402050495147705,6.13800048828125,0.2569500207901001
1750555357977140700,7.429140625,7.384950160980225,6.1810503005981445,0.30000001192092896
1750555357986745900,7.438745849609375,7.380000114440918,6.174000263214111,0.43905001878738403
1750555357996351000,7.44835107421875,7.420950412750244,6.142950057983398,0.4630500078201294
1750555358005955800,7.457955810546875,7.584000587463379,6.066000461578369,0.4600500166416168
1750555358015561000,7.46756103515625,7.681950569152832,5.980050086975098,0.42195001244544983
1750555358025166000,7.477166015625,7.711050510406494,5.946000099182129,0.364950031042099
1750555358034771000,7.48677099609375,7.690950393676758,5.94195032119751,0.33105000853538513
1750555358044376000,7.4963759765625,7.5960001945495605,5.965050220489502,0.24000000953674316
1750555358053981200,7.505981201171875,7.486050128936768,6.004050254821777,0.23295001685619354
1750555358063586000,7.5155859375,7.4569501876831055,6.021000385284424,0.30900001525878906
1750555358073191000,7.52519091796875,7.468950271606445,6.046950340270996,0.36000001430511475
1750555358082796300,7.53479638671875,7.513950347900391,6.076050281524658,0.36705002188682556
1750555358092401200,7.544401123046875,7.488000392913818,6.0420002937316895,0.3840000033378601
1750555358102006000,7.554006103515625,7.509000301361084,6.03000020980835,0.34800001978874207
1750555358111611100,7.563611083984375,7.450050354003906,6.088050365447998,0.25905001163482666
1750555358121216300,7.57321630859375,7.312950134277344,6.082950115203857,0.18000000715255737
1750555358130821000,7.582821044921875,7.383000373840332,6.076050281524658,0.19905000925064087
1750555358140426200,7.59242626953125,7.500000476837158,6.022950172424316,0.19200000166893005
1750555358150031400,7.60203125,7.669950485229492,5.961000442504883,0.25200000405311584
1750555358159636200,7.61163623046875,7.804050445556641,5.997000217437744,0.34995001554489136
1750555358169241000,7.621240966796875,7.881000518798828,5.985000133514404,0.42705002427101135
1750555358178846500,7.630846435546875,7.900050163269043,5.970000267028809,0.47895002365112305
1750555358188451300,7.640451416015625,7.7470502853393555,5.958000183105469,0.4510500133037567
1750555358198056200,7.65005615234375,7.6870503425598145,5.974950313568115,0.42900002002716064
1750555358207661300,7.659661376953125,7.666950225830078,6.016050338745117,0.2779500186443329
1750555358217266400,7.669266357421875,7.7149505615234375,6.043950080871582,0.19005000591278076
1750555358226871600,7.67887158203125,7.789950370788574,6.01800012588501,0.18300001323223114
1750555358236476400,7.688476318359375,7.890000343322754,6.022950172424316,0.17805001139640808
1750555358246081500,7.69808154296875,7.972050189971924,6.034950256347656,0.15600000321865082
1750555358255686400,7.707686279296875,8.029050827026367,6.058950424194336,0.1489500105381012
1750555358265291500,7.71729150390625,7.987950325012207,6.066000461578369,0.208950012922287
1750555358274896600,7.726896728515625,7.933050155639648,6.055950164794922,0.2160000056028366
1750555358284501500,7.73650146484375,7.830000400543213,6.064050197601318,0.20595000684261322
1750555358294106400,7.7461064453125,7.780050277709961,6.078000068664551,0.19005000591278076
1750555358303711500,7.75571142578125,7.725000381469727,6.106950283050537,0.07500000298023224
1750555358313316400,7.76531640625,7.6650004386901855,6.199950218200684,-0.04605000093579292
1750555358322921500,7.77492138671875,7.660050392150879,6.29295015335083,-0.18495000898838043
1750555358332526600,7.784526611328125,7.725000381469727,6.307950496673584,-0.1660500019788742
1750555358342131700,7.794131591796875,7.63200044631958,6.235950469970703,-0.05400000140070915
1750555358351736800,7.80373681640625,7.483050346374512,6.195000171661377,0.13500000536441803
1750555358361341700,7.813341796875,7.390050411224365,6.090000152587891,0.2779500186443329
1750555358370946800,7.82294677734375,7.383000373840332,5.986950397491455,0.3550500273704529
1750555358380551700,7.8325517578125,7.342050552368164,5.937000274658203,0.32895001769065857
1750555358390156800,7.84215673828125,7.432950496673584,5.914950370788574,0.3139500021934509
1750555358399761700,7.85176171875,7.657950401306152,5.901000499725342,0.30195000767707825
1750555358409366500,7.861366455078125,7.857000350952148,5.874000072479248,0.23805001378059387
1750555358418971600,7.8709716796875,8.002950668334961,5.934000492095947,0.13695000112056732
1750555358428576800,7.88057666015625,7.987950325012207,5.958000183105469,0.09195000678300858
1750555358438182000,7.890181884765625,7.818000316619873,5.949000358581543,0.07695000618696213
1750555358447786800,7.899786865234375,7.641000270843506,5.937000274658203,0.11505000293254852
1750555358457391900,7.909391845703125,7.500000476837158,5.901000499725342,0.1680000126361847
1750555358466996700,7.918996826171875,7.480950355529785,5.956050395965576,0.25200000405311584
1750555358476601600,7.9286015625,7.5360002517700195,6.03000020980835,0.3049500286579132
1750555358486207000,7.93820703125,7.681950569152832,6.046950340270996,0.29295000433921814
1750555358495811800,7.947811767578125,7.833000183105469,6.058950424194336,0.22995001077651978
1750555358505417000,7.9574169921875,7.966950416564941,6.073050498962402,0.15105000138282776
1750555358515021800,7.967021728515625,8.130000114440918,6.0319504737854,0.0990000069141388
1750555358524627000,7.976626953125,8.079000473022461,5.91795015335083,0.15900000929832458
1750555358534231800,7.986231689453125,7.924050331115723,5.91795015335083,0.30000001192092896
1750555358543837000,7.9958369140625,7.900050163269043,5.944050312042236,0.4050000309944153
1750555358553442000,8.005442138671874,7.966950416564941,5.914950370788574,0.41700002551078796
1750555358563047000,8.015046875,7.930950164794922,6.013050079345703,0.34800001978874207
1750555358572651800,8.02465185546875,7.963950157165527,6.073050498962402,0.22995001077651978
1750555358582257000,8.0342568359375,8.010000228881836,6.0420002937316895,0.17505000531673431
1750555358591862000,8.043862060546875,7.981050491333008,5.989050388336182,0.17100000381469727
1750555358601467100,8.053467041015624,8.058000564575195,5.893950462341309,0.20400001108646393
1750555358611072300,8.063072265625,8.227950096130371,5.896050453186035,0.24495001137256622
1750555358620677000,8.072677001953124,8.292000770568848,5.910000324249268,0.24705001711845398
1750555358630282000,8.082281982421875,8.266050338745117,5.938950061798096,0.3240000009536743
1750555358639887400,8.091887451171875,8.161050796508789,5.925000190734863,0.36000001430511475
1750555358649492000,8.101491943359376,7.924050331115723,5.914950370788574,0.39795002341270447
1750555358659097000,8.11109716796875,7.684050559997559,5.821950435638428,0.45795002579689026
1750555358668702200,8.1207021484375,7.320000171661377,5.910000324249268,0.4459500312805176
1750555358678307000,8.13030712890625,7.129050254821777,5.913000106811523,0.5059500336647034
1750555358687912200,8.139912109375,7.146000385284424,5.914950370788574,0.48405003547668457
1750555358697517000,8.14951708984375,7.384950160980225,5.968050479888916,0.37605002522468567
1750555358707122200,8.1591220703125,7.5360002517700195,5.986950397491455,0.2760000228881836
1750555358716727300,8.168727294921876,7.572000503540039,6.049050331115723,0.16305001080036163
1750555358726332200,8.178332275390625,7.701000213623047,6.055950164794922,0.07500000298023224
1750555358735937300,8.187937255859374,7.713000297546387,5.982000350952148,0.07500000298023224
1750555358745542400,8.19754248046875,7.681950569152832,5.962950229644775,0.1680000126361847
1750555358755147300,8.207147216796875,7.70805025100708,5.913000106811523,0.3430500030517578
1750555358764752100,8.216752197265626,7.749000549316406,5.857950210571289,0.3859500288963318
1750555358774357200,8.226357177734375,7.845000267028809,5.8909502029418945,0.3570000231266022
1750555358783962400,8.23596240234375,7.8160505294799805,5.934000492095947,0.3049500286579132
1750555358793567200,8.245567138671875,7.792050361633301,5.985000133514404,0.25394999980926514
1750555358803172400,8.25517236328125,7.762950420379639,6.01800012588501,0.2850000262260437
1750555358812777200,8.264777099609375,7.864050388336182,5.946000099182129,0.3330000042915344
1750555358822382300,8.27438232421875,8.161050796508789,5.908050060272217,0.30000001192092896
1750555358831987200,8.2839873046875,8.315999984741211,5.869950294494629,0.2659500241279602
1750555358841592300,8.29359228515625,8.247000694274902,5.85105037689209,0.24495001137256622
1750555358851197400,8.303197509765624,8.12700080871582,5.842950344085693,0.22995001077651978
1750555358860802300,8.31280224609375,8.010000228881836,5.889000415802002,0.24000000953674316
1750555358870407400,8.322407470703125,7.951950550079346,6.004050254821777,0.24705001711845398
1750555358880012500,8.332012451171876,7.914000511169434,6.0319504737854,0.2689500153064728
1750555358889617400,8.341617431640625,7.881000518798828,6.067950248718262,0.2970000207424164
1750555358899222500,8.351222412109376,8.010000228881836,6.067950248718262,0.36000001430511475
1750555358908827400,8.360827392578125,8.038949966430664,6.0010504722595215,0.38100001215934753
1750555358918432500,8.3704326171875,7.864050388336182,6.013050079345703,0.4120500087738037
1750555358928037400,8.380037353515625,7.641000270843506,6.055950164794922,0.4510500133037567
1750555358937642500,8.389642578125,7.564950466156006,6.12600040435791,0.5779500007629395
1750555358947247400,8.399247314453126,7.521000385284424,6.159000396728516,0.703950047492981
1750555358956852500,8.4088525390625,7.63200044631958,6.198000431060791,0.8029500246047974
1750555358966457600,8.41845751953125,8.110050201416016,6.151950359344482,0.8629500269889832
1750555358976062500,8.4280625,9.253050804138184,6.1710004806518555,0.4720500111579895
1750555358985667300,8.437667236328124,11.890950202941895,6.265050411224365,-0.14205001294612885
1750555358995272400,8.4472724609375,14.178000450134277,5.862000465393066,-0.325950026512146
1750555359004877600,8.456877685546875,16.68195152282715,5.544000148773193,-0.6499500274658203
1750555359014482400,8.466482421875,20.142000198364258,4.408950328826904,-0.62295001745224
1750555359024087600,8.476087646484375,21.00105094909668,3.576000213623047,-0.820050060749054
1750555359033692700,8.485692626953124,20.424001693725586,3.973050117492676,-1.9950001239776611
1750555359043297500,8.495297607421875,18.42300033569336,3.5329501628875732,-2.0789999961853027
1750555359052902700,8.504902587890625,14.13705062866211,3.157050132751465,-2.007000207901001
1750555359062507500,8.514507568359376,10.327950477600098,2.937000036239624,-1.4329500198364258
1750555359072112600,8.524112548828125,6.232950210571289,3.574050188064575,-1.228950023651123
1750555359081717800,8.5337177734375,2.3020501136779785,5.218050479888916,-1.516050100326538
1750555359091322600,8.543322509765625,-0.6799500584602356,6.363000392913818,-1.4490001201629639
1750555359100927700,8.552927734375,-3.6130502223968506,7.507050514221191,-1.1860500574111938
1750555359110532600,8.56253271484375,-4.866000175476074,8.793000221252441,-0.5490000247955322
1750555359120137700,8.5721376953125,-4.456050395965576,8.941950798034668,0.36900001764297485
1750555359129742600,8.58174267578125,-4.281000137329102,8.796000480651855,0.8149500489234924
1750555359139347700,8.59134765625,-3.3160500526428223,8.740050315856934,1.0350000858306885
1750555359148952800,8.600952880859374,-2.344050168991089,8.587050437927246,1.1710500717163086
1750555359158557700,8.6105576171875,-1.549950122833252,8.395950317382812,1.1160000562667847
1750555359168162600,8.62016259765625,-1.01295006275177,8.14905071258545,1.3489500284194946
1750555359177767700,8.629767578125,-0.7740000486373901,7.926000595092773,1.5280500650405884
1750555359187372800,8.639372802734375,-0.6370500326156616,7.728000164031982,1.7010000944137573
1750555359196977700,8.648977783203126,-0.6180000305175781,7.677000522613525,1.9060500860214233
1750555359206582800,8.658582763671875,-0.7140000462532043,7.704000473022461,1.7749500274658203
1750555359216187600,8.668187744140624,-1.1329500675201416,8.08395004272461,1.3270500898361206
1750555359225792800,8.677792724609375,-2.104950189590454,8.772000312805176,0.9130500555038452
1750555359235397600,8.687397705078125,-2.8350000381469727,9.142950057983398,0.5580000281333923
1750555359245002800,8.697002685546876,-2.9410500526428223,9.331950187683105,0.1870500147342682
1750555359254608000,8.70660791015625,-2.7780001163482666,9.339000701904297,-0.07695000618696213
1750555359264212700,8.716212646484376,-2.281949996948242,9.16200065612793,-0.15600000321865082
1750555359273817900,8.72581787109375,-2.0190000534057617,8.857950210571289,0.13005000352859497
1750555359283422700,8.735422607421874,-1.7869501113891602,8.419950485229492,0.38100001215934753
1750555359293027800,8.74502783203125,-1.6189501285552979,8.017050743103027,0.6930000185966492
1750555359302632700,8.7546328125,-1.5780000686645508,7.689000129699707,0.7690500617027283
1750555359312238000,8.764238037109376,-1.128000020980835,7.336950302124023,0.736050009727478
1750555359321843000,8.773843017578125,-0.5680500268936157,6.918000221252441,0.609000027179718
1750555359331448000,8.783447998046874,-0.22800001502037048,6.432000160217285,0.47700002789497375
1750555359341053000,8.793052978515625,0.4320000112056732,5.527050495147705,0.7480500340461731
1750555359350657800,8.80265771484375,1.651050090789795,4.918950080871582,0.30705001950263977
1750555359360263000,8.812262939453126,4.51200008392334,3.9090001583099365,-0.15405000746250153
1750555359369868000,8.821867919921875,8.93595027923584,3.412950277328491,-0.6019500494003296
1750555359379472600,8.83147265625,13.806000709533691,3.7320001125335693,-1.1880000829696655
1750555359389078000,8.841078125,17.743051528930664,4.368000030517578,-1.4850000143051147
1750555359398683000,8.850682861328124,19.68195152282715,4.537950038909912,-1.075950026512146
1750555359408287700,8.860287841796875,18.897001266479492,4.303950309753418,-0.208950012922287
1750555359417892900,8.869892822265625,16.147951126098633,4.471050262451172,0.44805002212524414
1750555359427497700,8.879497802734376,12.930000305175781,4.73205041885376,0.7620000243186951
1750555359437102800,8.889102783203125,10.207950592041016,5.161050319671631,0.5869500041007996
1750555359446708000,8.8987080078125,8.67495059967041,5.782950401306152,0.015000000596046448
1750555359456312800,8.908312744140625,8.236949920654297,6.2410502433776855,-0.47700002789497375
1750555359465918000,8.91791796875,8.63700008392334,6.4710001945495605,-0.7980000376701355
1750555359475522800,8.927522705078125,9.730950355529785,6.598050117492676,-1.3150500059127808
1750555359485128000,8.9371279296875,10.966950416564941,6.601950168609619,-1.366050124168396
1750555359494732800,8.94673291015625,11.211000442504883,6.376950263977051,-1.0969500541687012
1750555359504337700,8.956337646484375,10.975950241088867,6.175950527191162,-0.5749500393867493
1750555359513943000,8.965943115234374,10.440000534057617,5.938950061798096,0.040950000286102295
1750555359523548000,8.9755478515625,9.693000793457031,5.74500036239624,0.4240500330924988
1750555359533153000,8.985153076171875,9.030000686645508,5.673000335693359,0.609000027179718
1750555359542758100,8.994758056640626,8.632050514221191,5.782950401306152,0.5700000524520874
1750555359552363000,9.004363037109375,8.601000785827637,5.914950370788574,0.31200000643730164
1750555359561967900,9.0139677734375,8.605950355529785,6.006000518798828,0.08205000311136246
1750555359571573000,9.023572998046875,8.623050689697266,6.1210503578186035,-0.0990000069141388
1750555359581178000,9.03317822265625,8.599050521850586,6.133050441741943,-0.2070000171661377
1750555359590783000,9.042782958984375,8.290050506591797,6.186000347137451,-0.17295001447200775
1750555359600387800,9.052387939453125,8.0149507522583,6.277050495147705,-0.30705001950263977
1750555359609993200,9.0619931640625,7.828050136566162,6.289050102233887,-0.40095001459121704
1750555359619598000,9.07159814453125,7.5859503746032715,6.22605037689209,-0.46800002455711365
1750555359629203000,9.081202880859376,7.2960004806518555,6.334050178527832,-0.5560500025749207
1750555359638808000,9.09080810546875,7.189050197601318,6.29295015335083,-0.5610000491142273
1750555359648413200,9.1004130859375,7.272000312805176,6.223950386047363,-0.5490000247955322
1750555359658018000,9.11001806640625,7.291950225830078,6.211950302124023,-0.5419500470161438
1750555359667623000,9.119622802734375,7.504950523376465,6.195000171661377,-0.5110500454902649
1750555359677227800,9.129227783203126,7.749000549316406,6.118950366973877,-0.4650000333786011
1750555359686833200,9.138833251953125,7.9170002937316895,5.998950481414795,-0.41700002551078796
1750555359696438000,9.14843798828125,7.890000343322754,5.878950119018555,-0.322050005197525
1750555359706043000,9.15804296875,7.7059502601623535,5.877000331878662,-0.3430500030517578
1750555359715648000,9.16764794921875,7.390050411224365,5.922000408172607,-0.37005001306533813
1750555359725253000,9.177253173828126,7.087950229644775,5.962950229644775,-0.22800001502037048
1750555359734858000,9.18685791015625,6.958950519561768,5.9920501708984375,-0.17805001139640808
1750555359744462800,9.196462890625,7.04295015335083,5.9920501708984375,-0.14205001294612885
1750555359754068200,9.206068115234375,7.165050506591797,5.998950481414795,-0.17100000381469727
1750555359763673000,9.215673095703124,7.492950439453125,5.956050395965576,-0.286050021648407
1750555359773278000,9.22527783203125,7.768050193786621,5.94195032119751,-0.3379500210285187
1750555359782883000,9.234883056640625,7.821000576019287,5.908050060272217,-0.31905001401901245
1750555359792488000,9.244488037109376,7.82295036315918,5.878950119018555,-0.25905001163482666
1750555359802093000,9.254093017578125,7.69605016708374,5.889000415802002,-0.24300001561641693
1750555359811698200,9.2636982421875,7.543050289154053,5.94195032119751,-0.28095000982284546
1750555359821303300,9.27330322265625,7.408950328826904,5.985000133514404,-0.30300000309944153
1750555359830908200,9.282908203125,7.35105037689209,5.997000217437744,-0.28095000982284546
1750555359840513000,9.292512939453125,7.392000198364258,5.956050395965576,-0.30000001192092896
1750555359850118100,9.3021181640625,7.483050346374512,5.970000267028809,-0.34995001554489136
1750555359859723300,9.31172314453125,7.651050567626953,5.9920501708984375,-0.39795002341270447
1750555359869328100,9.321328125,7.912050247192383,6.040050506591797,-0.49605002999305725
1750555359878933200,9.330933349609374,8.06505012512207,5.982000350952148,-0.4440000355243683
1750555359888538000,9.3405380859375,8.043000221252441,5.926950454711914,-0.23805001378059387
1750555359898143000,9.35014306640625,7.960050582885742,5.862000465393066,-0.04605000093579292
1750555359907748000,9.359748046875,7.828050136566162,5.83905029296875,0.00795000046491623
1750555359917353200,9.369353271484375,7.651050567626953,5.920050144195557,-0.07304999977350235
1750555359926958000,9.3789580078125,7.444950580596924,5.986950397491455,-0.2070000171661377
1750555359936563200,9.388563232421875,7.3060503005981445,6.040050506591797,-0.2950500249862671
1750555359946168000,9.39816796875,7.264950275421143,6.088050365447998,-0.3049500286579132
1750555359955773200,9.407773193359375,7.414050579071045,6.135000228881836,-0.3240000009536743
1750555359965378000,9.4173779296875,7.849050521850586,6.100050449371338,-0.3460500240325928
1750555359974983200,9.426983154296876,8.079000473022461,6.073050498962402,-0.31905001401901245
1750555359984588300,9.43658837890625,8.019000053405762,6.049050331115723,-0.24705001711845398
1750555359994193200,9.446193115234376,7.974000453948975,6.040050506591797,-0.18300001323223114
1750555360003798000,9.455798095703125,7.861050605773926,6.0319504737854,-0.23100000619888306
1750555360013403100,9.465403076171874,7.675050258636475,6.097050189971924,-0.2880000174045563
1750555360023008300,9.47500830078125,7.621950149536133,6.079950332641602,-0.2569500207901001
1750555360032613000,9.484613037109375,7.629000186920166,6.064050197601318,-0.25005000829696655
1750555360042218000,9.494218017578126,7.693950176239014,6.159000396728516,-0.34995001554489136
1750555360051823400,9.5038232421875,7.768050193786621,6.174000263214111,-0.41505002975463867
1750555360061428200,9.51342822265625,7.761000156402588,6.157050132751465,-0.35805001854896545
1750555360071033000,9.523033203125,7.858950138092041,6.082950115203857,-0.27900001406669617
1750555360080638200,9.53263818359375,7.9960503578186035,5.968050479888916,-0.15195000171661377
1750555360090243300,9.542243408203126,8.118000030517578,5.949000358581543,-0.10095000267028809
1750555360099848200,9.55184814453125,8.12505054473877,5.922000408172607,0.027000000700354576
1750555360109453000,9.561453125,8.107950210571289,5.878950119018555,0.13500000536441803
1750555360119058200,9.57105810546875,7.984050273895264,5.925000190734863,0.1489500105381012
1750555360128663000,9.5806630859375,7.912050247192383,5.922000408172607,0.036000002175569534
1750555360138268200,9.59026806640625,7.8949503898620605,5.962950229644775,-0.07500000298023224
1750555360147873000,9.599873046875,7.761000156402588,5.989050388336182,-0.1489500105381012
1750555360157478100,9.60947802734375,7.663050174713135,6.049050331115723,-0.3049500286579132
1750555360167083000,9.6190830078125,7.648050308227539,6.076050281524658,-0.31005001068115234
1750555360176688000,9.628688232421876,7.735050201416016,6.022950172424316,-0.24000000953674316
1750555360186293200,9.638293212890625,7.866000175476074,5.977050304412842,-0.18495000898838043
1750555360195898400,9.6478984375,7.881000518798828,5.998950481414795,-0.11595000326633453
1750555360205503200,9.657503173828125,7.9360504150390625,5.898000240325928,-0.05100000277161598
1750555360215108000,9.667108154296875,7.945050239562988,5.853000164031982,-0.022050000727176666
1750555360224713200,9.676713134765626,7.864050388336182,5.893950462341309,0.013050000183284283
1750555360234318000,9.686318115234375,7.8160505294799805,5.926950454711914,0.0010500000789761543
1750555360243923200,9.695923095703124,7.8349504470825195,5.965050220489502,-0.10905000567436218
1750555360253528300,9.7055283203125,7.869000434875488,6.021000385284424,-0.24495001137256622
1750555360263133200,9.71513330078125,7.786950588226318,6.049050331115723,-0.2740500271320343
1750555360272738000,9.724738037109375,7.729950428009033,6.064050197601318,-0.32895001769065857
1750555360282343200,9.73434326171875,7.761000156402588,6.066000461578369,-0.38895002007484436
1750555360291948300,9.7439482421875,7.8349504470825195,6.010950088500977,-0.35295000672340393
1750555360301553200,9.75355322265625,7.861050605773926,5.9920501708984375,-0.286050021648407
1750555360311158300,9.763158203125,7.8949503898620605,5.944050312042236,-0.2160000056028366
1750555360320763100,9.77276318359375,7.854000568389893,5.920050144195557,-0.16395001113414764
1750555360330368000,9.782367919921874,7.758000373840332,5.962950229644775,-0.15195000171661377
1750555360339973000,9.79197314453125,7.737000465393066,5.961000442504883,-0.17595000565052032
1750555360349578200,9.801578125,7.72005033493042,5.962950229644775,-0.20205001533031464
1750555360359183400,9.811183349609376,7.633950233459473,5.962950229644775,-0.21900001168251038
1750555360368788200,9.820788330078125,7.557000160217285,5.977050304412842,-0.20205001533031464
1750555360378393000,9.83039306640625,7.477950572967529,6.010950088500977,-0.1879500150680542
1750555360387998200,9.839998291015625,7.483050346374512,6.0010504722595215,-0.1680000126361847
1750555360397603000,9.84960302734375,7.609950542449951,5.956050395965576,-0.1399500072002411
1750555360407208200,9.859208251953126,7.639050483703613,5.982000350952148,-0.1680000126361847
1750555360416813300,9.868813232421875,7.651050567626953,5.997000217437744,-0.20205001533031464
1750555360426418400,9.87841845703125,7.717950344085693,6.025050163269043,-0.26205000281333923
1750555360436023000,9.88802294921875,7.813950538635254,6.034950256347656,-0.322050005197525
1750555360445628200,9.897628173828124,7.900050163269043,6.037050247192383,-0.28095000982284546
1750555360455233300,9.9072333984375,7.957050323486328,5.961000442504883,-0.1680000126361847
1750555360464838100,9.916838134765625,7.869000434875488,5.914950370788574,-0.0990000069141388
1750555360474443000,9.926443115234376,7.857000350952148,5.869950294494629,-0.04905000329017639
1750555360484048100,9.936048095703125,7.9069504737854,5.848050117492676,-0.09405000507831573
1750555360493653000,9.945653076171874,7.8949503898620605,5.910000324249268,-0.23295001685619354
1750555360503258000,9.955258056640625,7.801950454711914,5.997000217437744,-0.27105000615119934
1750555360512863000,9.964863037109374,7.690950393676758,6.049050331115723,-0.3460500240325928
1750555360522467800,9.9744677734375,7.641000270843506,6.058950424194336,-0.29100000858306885
1750555360532073200,9.9840732421875,7.641000270843506,6.010950088500977,-0.1680000126361847
1750555360541678000,9.993677978515626,7.768050193786621,5.968050479888916,0.003000000026077032
1750555360551283000,10.003282958984375,7.933050155639648,5.848050117492676,0.05100000277161598
1750555360560888000,10.01288818359375,7.981050491333008,5.865000247955322,-0.006000000052154064
1750555360570493200,10.0224931640625,7.849050521850586,5.913000106811523,-0.09195000678300858
1750555360580098000,10.03209814453125,7.663050174713135,5.994000434875488,-0.208950012922287
1750555360589703000,10.041702880859376,7.468950271606445,6.016050338745117,-0.22605000436306
1750555360599308000,10.05130810546875,7.408950328826904,6.064050197601318,-0.17595000565052032
1750555360608913200,10.0609130859375,7.521000385284424,6.006000518798828,-0.12105000764131546
1750555360618518000,10.07051806640625,7.660050392150879,5.949000358581543,-0.06495000422000885
1750555360628123000,10.080122802734374,7.729950428009033,5.958000183105469,-0.030000001192092896
1750555360637728000,10.08972802734375,7.821000576019287,5.898000240325928,-0.0010500000789761543
1750555360647333000,10.0993330078125,7.866000175476074,5.913000106811523,0.004950000438839197
1750555360656938000,10.10893798828125,7.882950305938721,5.8909502029418945,-0.013050000183284283
1750555360666542800,10.11854296875,7.888050556182861,5.85105037689209,-0.027000000700354576
1750555360676148000,10.12814794921875,7.821000576019287,5.938950061798096,-0.17295001447200775
1750555360685752800,10.1377529296875,7.806000232696533,5.958000183105469,-0.208950012922287
1750555360695358000,10.14735791015625,7.761000156402588,5.956050395965576,-0.2070000171661377
1750555360704962800,10.156962890625,7.7059502601623535,5.9509501457214355,-0.18000000715255737
1750555360714568000,10.16656787109375,7.72005033493042,5.965050220489502,-0.12495000660419464
1750555360724172800,10.1761728515625,7.713000297546387,5.956050395965576,-0.05400000140070915
1750555360733777700,10.185777587890625,7.702950477600098,5.980050086975098,-0.039000000804662704
1750555360743382800,10.1953828125,7.792050361633301,5.9320502281188965,-0.07005000114440918
1750555360752988000,10.20498779296875,7.933050155639648,5.8909502029418945,-0.10605000704526901
1750555360762592800,10.2145927734375,8.029050827026367,5.853000164031982,-0.07695000618696213
1750555360772198000,10.224197998046876,7.972050189971924,5.842950344085693,-0.09405000507831573
1750555360781803000,10.233802978515625,7.840050220489502,5.8720502853393555,-0.08205000311136246
1750555360791407900,10.243407958984376,7.737000465393066,5.920050144195557,-0.12300000339746475
1750555360801013000,10.253012939453125,7.701000213623047,5.974950313568115,-0.1660500019788742
1750555360810618000,10.2626181640625,7.62000036239624,6.010950088500977,-0.13695000112056732
1750555360820223000,10.272222900390625,7.660050392150879,5.982000350952148,-0.08505000174045563
1750555360829827800,10.281827880859375,7.63200044631958,5.9730000495910645,-0.030000001192092896
1750555360839433000,10.291432861328126,7.593000411987305,5.989050388336182,-0.018000001087784767
1750555360849037800,10.301037841796875,7.73205041885376,5.9320502281188965,-0.00795000046491623
1750555360858643000,10.310642822265624,7.846950531005859,5.877000331878662,0.025050001218914986
1750555360868248000,10.320248046875,7.809000492095947,5.889000415802002,0.022050000727176666
1750555360877853000,10.32985302734375,7.7059502601623535,5.881950378417969,0.016950000077486038
1750555360887457800,10.339457763671875,7.581000328063965,5.910000324249268,-0.07005000114440918
1750555360897063000,10.34906298828125,7.528950214385986,6.046950340270996,-0.17295001447200775
1750555360906668000,10.35866796875,7.591050148010254,6.085050106048584,-0.2639999985694885
1750555360916273000,10.36827294921875,7.738950252532959,6.043950080871582,-0.27900001406669617
1750555360925877800,10.377877685546874,7.699050426483154,6.064050197601318,-0.18495000898838043
1750555360935483000,10.38748291015625,7.701000213623047,6.163950443267822,-0.0990000069141388
1750555360945088000,10.397087890625,7.846950531005859,6.229050159454346,-0.08205000311136246
1750555360954692900,10.40669287109375,8.460000038146973,6.394050121307373,-0.26205000281333923
1750555360964298000,10.416298095703125,9.802950859069824,6.39900016784668,-0.24300001561641693
1750555360973902800,10.42590283203125,11.178000450134277,6.1620001792907715,-0.17805001139640808
1750555360983508000,10.435508056640625,11.922000885009766,6.006000518798828,-0.006000000052154064
1750555360993112800,10.44511279296875,12.303000450134277,5.817000389099121,0.19200000166893005
1750555361002718000,10.454718017578125,12.688050270080566,5.91795015335083,0.1870500147342682
1750555361012322800,10.46432275390625,14.25195026397705,6.0610504150390625,-0.5059500336647034
1750555361021927700,10.473927734375,16.603050231933594,5.874000072479248,-1.396950125694275
1750555361031533000,10.483532958984375,18.37200164794922,5.57295036315918,-2.725950241088867
1750555361041138000,10.493137939453124,19.141050338745117,4.725000381469727,-3.451050281524658
1750555361050742800,10.50274267578125,16.474050521850586,3.9900002479553223,-3.0730502605438232
1750555361060347600,10.51234765625,11.94105052947998,3.4830002784729004,-1.842000126838684
1750555361069952800,10.521952880859375,8.458050727844238,3.1879501342773438,-0.5629500150680542
1750555361079558000,10.531557861328125,5.841000080108643,3.4780502319335938,-0.3720000088214874
1750555361089162800,10.541162841796876,2.5530002117156982,4.684950351715088,-1.1020500659942627
1750555361098767600,10.550767578125,-0.38100001215934753,6.468000411987305,-1.7509500980377197
1750555361108372500,10.56037255859375,-2.557950019836426,8.178000450134277,-1.8349500894546509
1750555361117977900,10.569977783203125,-4.102050304412842,9.064050674438477,-1.3300501108169556
1750555361127582700,10.579582763671874,-4.308000087738037,9.241050720214844,-0.6040500402450562
1750555361137187600,10.5891875,-3.1680002212524414,8.886000633239746,-0.06300000101327896
1750555361146792400,10.59879248046875,-1.2600001096725464,8.32395076751709,0.13005000352859497
1750555361156397600,10.6083974609375,-0.3430500030517578,8.059950828552246,0.3169500231742859
1750555361166002700,10.618002685546875,0.11805000901222229,8.010000228881836,0.17100000381469727
1750555361175607600,10.627607666015624,0.527999997138977,8.020050048828125,0.16095000505447388
1750555361185212700,10.637212646484375,0.3340500295162201,8.0149507522583,0.07695000618696213
1750555361194817800,10.64681787109375,0.28395000100135803,8.161050796508789,0.11295000463724136
1750555361204422700,10.656422607421876,0.40095001459121704,8.131950378417969,0.31200000643730164
1750555361214027500,10.666027587890625,0.1570500135421753,8.355000495910645,0.21105000376701355
1750555361223632600,10.675632568359376,-0.43905001878738403,8.683050155639648,0.16095000505447388
1750555361233237500,10.685237548828125,-1.2910500764846802,8.925000190734863,0.20205001533031464
1750555361242842400,10.69484228515625,-2.0400002002716064,9.142950057983398,0.23295001685619354
1750555361252447500,10.704447509765625,-2.320050001144409,9.12405014038086,0.2160000056028366
1750555361262052600,10.714052490234375,-2.2890000343322754,8.998950004577637,0.2179500162601471
1750555361271657500,10.723657470703126,-1.7080501317977905,8.878950119018555,0.12495000660419464
1750555361281262300,10.733262451171875,-0.9529500603675842,8.829000473022461,-0.06105000153183937
1750555361290867700,10.74286767578125,-0.5700000524520874,9.004050254821777,-0.4459500312805176
1750555361300472600,10.75247265625,-0.42705002427101135,9.157050132751465,-0.8220000267028809
1750555361310077400,10.762077392578124,-0.48900002241134644,9.207000732421875,-0.7930500507354736
1750555361319682300,10.771682373046875,-1.0039499998092651,9.054000854492188,-0.48000001907348633
1750555361329287400,10.781287353515625,-1.699950098991394,8.752050399780273,0.004950000438839197
1750555361338892500,10.790892578125,-1.7170500755310059,8.259000778198242,0.003000000026077032
1750555361348497400,10.800497314453125,0.06300000101327896,7.737000465393066,-0.453000009059906
1750555361358102300,10.810102294921874,2.814000129699707,6.589950084686279,-0.5440500378608704
1750555361367707400,10.819707275390625,5.287950038909912,6.436950206756592,-1.7010000944137573
1750555361377312300,10.829312255859374,7.411050319671631,6.159000396728516,-1.9810501337051392
1750555361386917400,10.83891748046875,7.597950458526611,5.578050136566162,-1.284000039100647
1750555361396522500,10.8485224609375,7.150050163269043,5.059950351715088,0.039000000804662704
1750555361406127400,10.85812744140625,6.95205020904541,4.507050037384033,1.3150500059127808
1750555361415732200,10.867732177734375,7.4160003662109375,4.203000068664551,1.533000111579895
1750555361425337300,10.87733740234375,9.982950210571289,4.000050067901611,0.9130500555038452
1750555361434942500,10.8869423828125,14.110950469970703,3.8149502277374268,0.47895002365112305
1750555361444547300,10.89654736328125,17.632951736450195,3.444000244140625,0.4030500054359436
1750555361454152200,10.906152099609375,18.652050018310547,3.123000144958496,1.0780500173568726
1750555361463757300,10.91575732421875,17.41200065612793,3.2220001220703125,2.224950075149536
1750555361473362400,10.925362548828126,15.031950950622559,3.4590001106262207,2.863950252532959
1750555361482967300,10.93496728515625,13.071001052856445,3.733950138092041,2.545950174331665
1750555361492572200,10.944572265625,11.73495101928711,4.189050197601318,1.7839500904083252
1750555361502177300,10.95417724609375,10.189050674438477,4.692000389099121,0.9940500259399414
1750555361511782400,10.963782470703125,8.866950035095215,5.278050422668457,0.364950031042099
1750555361521387300,10.97338720703125,8.284950256347656,5.673000335693359,0.043950002640485764
1750555361530992000,10.9829921875,8.242050170898438,5.869950294494629,0.08895000070333481
1750555361540597200,10.99259716796875,8.629950523376465,5.75700044631958,0.31905001401901245
1750555361550202000,11.0022021484375,8.982000350952148,5.602050304412842,0.5440500378608704
1750555361559807200,11.01180712890625,9.379050254821777,5.542050361633301,0.6019500494003296
1750555361569412000,11.021412109375,9.742950439453125,5.4120001792907715,0.6469500064849854
1750555361579017200,11.031017333984375,9.577950477600098,5.3620500564575195,0.7000500559806824
1750555361588622000,11.0406220703125,9.10200023651123,5.383950233459473,0.736050009727478
1750555361598227000,11.05022705078125,8.52495002746582,5.431950092315674,0.690000057220459
1750555361607832300,11.059832275390624,8.023950576782227,5.556000232696533,0.62295001745224
1750555361617437200,11.069437255859375,7.768050193786621,5.692950248718262,0.47505003213882446
1750555361627042000,11.0790419921875,7.738950252532959,5.818950176239014,0.26205000281333923
1750555361636647200,11.088647216796875,7.785000324249268,5.922000408172607,0.12495000660419464
1750555361646252000,11.098251953125,7.852050304412842,5.946000099182129,0.06000000238418579
1750555361655857200,11.107857177734376,7.897050380706787,5.9730000495910645,0.00795000046491623
1750555361665462000,11.1174619140625,7.948050498962402,5.986950397491455,-0.0799500048160553
1750555361675067000,11.12706689453125,7.809000492095947,5.970000267028809,-0.16095000505447388
1750555361684672000,11.136672119140625,7.656000137329102,5.946000099182129,-0.04200000315904617
1750555361694276900,11.14627685546875,7.543050289154053,5.886000156402588,0.04800000041723251
1750555361703881700,11.1558818359375,7.299000263214111,5.908050060272217,0.08205000311136246
1750555361713487000,11.165487060546875,7.162050247192383,5.9730000495910645,0.08205000311136246
1750555361723092000,11.175092041015626,7.083000183105469,5.998950481414795,0.06495000422000885
1750555361732696800,11.18469677734375,7.158000469207764,6.03000020980835,-0.07695000618696213
1750555361742302000,11.194302001953124,7.440000534057617,5.989050388336182,-0.12105000764131546
1750555361751907000,11.203906982421875,7.813950538635254,5.865000247955322,-0.06300000101327896
1750555361761512000,11.213511962890625,8.118000030517578,5.760000228881836,0.004950000438839197
1750555361771116800,11.22311669921875,8.254050254821777,5.613000392913818,0.043950002640485764
1750555361780722000,11.232721923828125,8.223000526428223,5.566050052642822,0.08700000494718552
1750555361790327000,11.2423271484375,8.055000305175781,5.554050445556641,0.15900000929832458
1750555361799932000,11.251931884765625,7.902000427246094,5.592000484466553,0.18300001323223114
1750555361809536800,11.261536865234374,7.7749505043029785,5.628000259399414,0.22095000743865967
1750555361819141600,11.2711416015625,7.773000240325928,5.647050380706787,0.14205001294612885
1750555361828746800,11.280746826171875,7.857000350952148,5.677950382232666,0.040950000286102295
1750555361838352000,11.290351806640626,7.909050464630127,5.725950241088867,-0.0799500048160553
1750555361847956700,11.299956787109375,7.974000453948975,5.736000061035156,-0.15600000321865082
1750555361857561600,11.3095615234375,8.010000228881836,5.74500036239624,-0.20400001108646393
1750555361867166700,11.319166748046875,8.107950210571289,5.749950408935547,-0.1489500105381012
1750555361876771600,11.328771484375,8.08905029296875,5.74500036239624,-0.06795000284910202
1750555361886376400,11.33837646484375,8.12505054473877,5.728050231933594,-0.022050000727176666
1750555361895981600,11.347981689453125,8.163000106811523,5.593950271606445,0.11505000293254852
1750555361905586700,11.357586669921876,8.146050453186035,5.53695011138916,0.22605000436306
1750555361915191600,11.367191650390625,8.12505054473877,5.5320000648498535,0.25394999980926514
1750555361924796400,11.37679638671875,8.002950668334961,5.5489501953125,0.22605000436306
1750555361934401500,11.386401611328125,7.942950248718262,5.668950080871582,0.15405000746250153
1750555361944006400,11.39600634765625,8.005050659179688,5.767050266265869,-0.04200000315904617
1750555361953611500,11.405611572265625,8.182050704956055,5.779050350189209,-0.0990000069141388
1750555361963216400,11.41521630859375,8.146050453186035,5.736000061035156,-0.07005000114440918
1750555361972821500,11.424821533203126,8.059950828552246,5.664000034332275,0.031950000673532486
1750555361982426400,11.43442626953125,7.9960503578186035,5.596950054168701,0.13005000352859497
1750555361992031500,11.444031494140624,7.897050380706787,5.6419501304626465,0.1870500147342682
1750555362001636400,11.45363623046875,7.81095027923584,5.683050155639648,0.19200000166893005
1750555362011241500,11.463241455078125,7.804050445556641,5.769000053405762,0.20205001533031464
1750555362020846300,11.472846435546876,7.7659502029418945,5.749950408935547,0.23805001378059387
1750555362030451200,11.482451171875,7.780050277709961,5.740050315856934,0.2760000228881836
1750555362040056300,11.492056396484376,7.869000434875488,5.725950241088867,0.2659500241279602
1750555362049661400,11.501661376953125,7.857000350952148,5.6610002517700195,0.1870500147342682
1750555362059266300,11.511266357421874,7.741950511932373,5.692950248718262,0.15405000746250153
1750555362068871200,11.52087109375,7.653000354766846,5.731050491333008,0.0799500048160553
1750555362078476300,11.530476318359375,7.693950176239014,5.82705020904541,-0.04200000315904617
1750555362088081400,11.540081298828126,7.7749505043029785,5.8720502853393555,-0.11295000463724136
1750555362097686300,11.549686279296875,7.885050296783447,5.902950286865234,-0.14205001294612885
1750555362107291100,11.559291015625,7.9860005378723145,5.833950042724609,-0.022050000727176666
1750555362116896000,11.56889599609375,7.990950584411621,5.752050399780273,0.0799500048160553
1750555362126501000,11.578501220703124,8.046000480651855,5.740050315856934,0.08895000070333481
1750555362136106000,11.58810595703125,8.08905029296875,5.7330002784729,0.016950000077486038
1750555362145711000,11.597711181640625,7.942950248718262,5.740050315856934,-0.006000000052154064
1750555362155316200,11.607316162109376,7.869000434875488,5.7330002784729,0.015000000596046448
1750555362164921000,11.616921142578125,7.7470502853393555,5.788050174713135,0.036000002175569534
1750555362174526000,11.62652587890625,7.651050567626953,5.821950435638428,0.043950002640485764
1750555362184131000,11.636131103515625,7.6080002784729,5.794950485229492,-0.031950000673532486
1750555362193736000,11.64573583984375,7.69605016708374,5.821950435638428,-0.16395001113414764
1750555362203341000,11.655341064453125,7.663050174713135,5.740050315856934,-0.16395001113414764
1750555362212946000,11.66494580078125,7.681950569152832,5.632950305938721,-0.05595000088214874
1750555362222551000,11.674551025390626,7.678950309753418,5.599050045013428,0.0799500048160553
1750555362232156000,11.684156005859375,7.768050193786621,5.673000335693359,0.10395000129938126
1750555362241760800,11.6937607421875,7.869000434875488,5.75700044631958,0.04605000093579292
1750555362251366000,11.703365966796875,7.963950157165527,5.805000305175781,0.043950002640485764
1750555362260971000,11.712970947265624,8.022000312805176,5.800050258636475,0.06795000284910202
1750555362270575900,11.722575927734376,8.002950668334961,5.737950325012207,0.08700000494718552
1750555362280180700,11.7321806640625,8.035950660705566,5.731050491333008,0.06795000284910202
1750555362289786000,11.7417861328125,8.070000648498535,5.737950325012207,0.06795000284910202
1750555362299390700,11.751390625,8.098050117492676,5.713950157165527,0.1080000028014183
1750555362308995800,11.760995849609374,8.0910005569458,5.689950466156006,0.17295001447200775
1750555362318600700,11.7706005859375,8.04104995727539,5.6569504737854,0.21405000984668732
1750555362328205600,11.78020556640625,8.022000312805176,5.677950382232666,0.19905000925064087
1750555362337810700,11.789810791015626,8.002950668334961,5.713950157165527,0.07695000618696213
1750555362347415600,11.79941552734375,7.966950416564941,5.748000144958496,-0.05100000277161598
1750555362357021000,11.80902099609375,8.005050659179688,5.836050510406494,-0.13500000536441803
1750555362366625800,11.818625732421875,8.011950492858887,5.8309502601623535,-0.1279500126838684
1750555362376230700,11.828230712890624,7.960050582885742,5.8120503425598145,-0.015000000596046448
1750555362385835500,11.83783544921875,8.023950576782227,5.773950099945068,0.07695000618696213
1750555362395440600,11.847440673828125,8.13705062866211,5.781000137329102,0.10095000267028809
1750555362405045800,11.857045654296876,8.254050254821777,5.781000137329102,0.043950002640485764
1750555362414650600,11.866650634765625,8.284950256347656,5.707050323486328,0.07500000298023224
1750555362424255500,11.87625537109375,8.191950798034668,5.689950466156006,0.08205000311136246
1750555362433860600,11.885860595703125,8.086950302124023,5.707050323486328,0.0799500048160553
1750555362443465500,11.895465576171874,8.017050743103027,5.725950241088867,0.036000002175569534
1750555362453070300,11.9050703125,8.04104995727539,5.719050407409668,0.040950000286102295
1750555362462675500,11.914675537109375,8.062950134277344,5.700000286102295,0.015000000596046448
1750555362472280300,11.9242802734375,8.029050827026367,5.695050239562988,-0.013050000183284283
1750555362481885400,11.933885498046875,7.933050155639648,5.688000202178955,-0.043950002640485764
1750555362491490300,11.943490234375,7.888050556182861,5.692950248718262,-0.04905000329017639
1750555362501095400,11.953095458984375,7.809000492095947,5.680950164794922,-0.031950000673532486
1750555362510700300,11.9627001953125,7.878000259399414,5.697000503540039,-0.003000000026077032
1750555362520305400,11.972305419921875,7.993050575256348,5.676000118255615,-0.0010500000789761543
1750555362529910300,11.98191015625,8.038949966430664,5.652000427246094,0.031950000673532486
1750555362539515100,11.99151513671875,8.06505012512207,5.605950355529785,0.13500000536441803
1750555362549120300,12.001120361328125,8.05305004119873,5.593950271606445,0.16095000505447388
1750555362558725400,12.010725341796874,8.029050827026367,5.629950046539307,0.08400000631809235
1750555362568330200,12.020330322265625,8.055000305175781,5.652000427246094,-0.034050002694129944
1750555362577935000,12.02993505859375,7.9170002937316895,5.683050155639648,-0.11100000888109207
1750555362587540200,12.039540283203126,7.7560505867004395,5.688000202178955,-0.10605000704526901
1750555362597145000,12.04914501953125,7.669950485229492,5.683050155639648,-0.04905000329017639
1750555362606750200,12.058750244140626,7.639050483703613,5.697000503540039,-0.013050000183284283
1750555362616355300,12.068355224609375,7.699050426483154,5.653950214385986,-0.013050000183284283
1750555362625960200,12.077960205078124,7.869000434875488,5.6610002517700195,-0.04200000315904617
1750555362635565000,12.08756494140625,7.993050575256348,5.620950222015381,-0.07500000298023224
1750555362645170200,12.097170166015625,8.067000389099121,5.620950222015381,-0.11100000888109207
1750555362654775000,12.106775146484376,7.957050323486328,5.653950214385986,-0.0970500037074089
1750555362664380000,12.1163798828125,7.900050163269043,5.652000427246094,-0.04905000329017639
1750555362673985000,12.125985107421876,7.858950138092041,5.683050155639648,-0.006000000052154064
1750555362683590000,12.13558984375,7.900050163269043,5.695050239562988,-0.039000000804662704
1750555362693195000,12.145195068359374,8.06505012512207,5.724000453948975,-0.04200000315904617
1750555362702800000,12.1547998046875,8.131950378417969,5.664000034332275,-0.006000000052154064
1750555362712405000,12.164405029296875,8.130000114440918,5.596950054168701,0.09195000678300858
1750555362722010000,12.174010009765626,8.10105037689209,5.57295036315918,0.1660500019788742
1750555362731615000,12.183614990234375,7.984050273895264,5.587050437927246,0.16095000505447388
1750555362741219800,12.1932197265625,7.984050273895264,5.640000343322754,0.1489500105381012
1750555362750825000,12.202824951171875,8.006999969482422,5.593950271606445,0.1660500019788742
1750555362760430000,12.21243017578125,7.921050548553467,5.590050220489502,0.18300001323223114
1750555362770035000,12.222034912109375,7.858950138092041,5.5849504470825195,0.20595000684261322
1750555362779639800,12.231639892578125,7.846950531005859,5.5819501876831055,0.15600000321865082
1750555362789245000,12.241244873046876,7.858950138092041,5.653950214385986,-0.08895000070333481
1750555362798849800,12.250849853515625,7.8349504470825195,5.773950099945068,-0.208950012922287
1750555362808454700,12.26045458984375,7.869000434875488,5.869950294494629,-0.34995001554489136
1750555362818059800,12.270059814453125,7.957050323486328,5.817000389099121,-0.29805001616477966
1750555362827665000,12.279664794921874,8.023950576782227,5.752050399780273,-0.15600000321865082
1750555362837269800,12.289269775390625,8.314050674438477,5.620950222015381,0.09600000083446503
1750555362846874600,12.29887451171875,8.515049934387207,5.436000347137451,0.2740500271320343
1750555362856479700,12.308479736328126,8.544000625610352,5.353050231933594,0.40800002217292786
1750555362866084600,12.318084716796875,8.455050468444824,5.422050476074219,0.3930000066757202
1750555362875689500,12.327689453125,8.33595085144043,5.520000457763672,0.3550500273704529
1750555362885294600,12.337294677734375,8.170050621032715,5.575050354003906,0.29295000433921814
1750555362894899700,12.346899658203125,8.211000442504883,5.608950138092041,0.25394999980926514
1750555362904504600,12.356504638671876,8.623050689697266,5.499000072479248,0.22800001502037048
1750555362914109400,12.366109375,9.25005054473877,5.545950412750244,-0.013050000183284283
1750555362923714600,12.375714599609376,10.620000839233398,5.620950222015381,-0.28095000982284546
1750555362933319700,12.385319580078125,13.37505054473877,5.866950511932373,-0.6040500402450562
1750555362942924500,12.394924560546874,18.226051330566406,5.673000335693359,-1.0950000286102295
1750555362952529400,12.404529296875,22.525951385498047,3.9880502223968506,-1.1640000343322754
1750555362962134500,12.414134521484375,23.40795135498047,1.9890000820159912,-0.20205001533031464
1750555362971739400,12.423739501953126,21.511051177978516,1.5670500993728638,0.2880000174045563
1750555362981344500,12.433344482421875,17.058000564575195,1.921950101852417,0.520050048828125
1750555362990949400,12.442949462890626,13.569000244140625,2.725950241088867,-0.05400000140070915
1750555363000554500,12.452554443359375,11.212950706481934,2.556000232696533,-1.072950005531311
