time,seconds_elapsed,z,y,x
1750506128114528800,0.11352880859375,9.583050727844238,2.926950216293335,0.6930000185966492
1750506128124133400,0.12313330078125,9.516000747680664,2.9629502296447754,0.6690000295639038
1750506128133737700,0.13273779296875,9.42495059967041,2.968050241470337,0.6780000329017639
1750506128143342300,0.14234228515625,9.375,2.956050157546997,0.6880500316619873
1750506128152946700,0.15194677734375,9.26205062866211,2.926950216293335,0.7500000596046448
1750506128162551300,0.16155126953125,9.145050048828125,2.9100000858306885,0.8670000433921814
1750506128172156000,0.171156005859375,9.121050834655762,2.8500001430511475,0.9079500436782837
1750506128181760500,0.180760498046875,9.10200023651123,2.845950126647949,0.9270000457763672
1750506128191365000,0.190365234375,8.962950706481934,2.848050117492676,0.9370500445365906
1750506128200969700,0.1999697265625,8.766000747680664,2.836050033569336,0.9270000457763672
1750506128210574300,0.20957421875,8.802000045776367,3.0319502353668213,0.8580000400543213
1750506128220179000,0.219178955078125,8.944050788879395,3.1020002365112305,0.8149500489234924
1750506128229783600,0.228783447265625,8.980050086975098,2.8500001430511475,0.7000500559806824
1750506128239388200,0.23838818359375,9.241050720214844,2.794950246810913,0.7620000243186951
1750506128248992500,0.247992431640625,9.56100082397461,2.9730000495910645,0.8190000653266907
1750506128258597000,0.25759716796875,9.648000717163086,2.9440500736236572,0.7260000109672546
1750506128268202000,0.267201904296875,9.705000877380371,2.806950092315674,0.5869500041007996
1750506128277806300,0.276806396484375,9.552000045776367,2.7360000610351562,0.5820000171661377
1750506128287411000,0.286410888671875,9.38700008392334,2.7019500732421875,0.6570000052452087
1750506128297015600,0.296015625,9.25005054473877,2.745000123977661,0.7930500507354736
1750506128306620200,0.3056201171875,9.159000396728516,2.77905011177063,0.8910000324249268
1750506128316224800,0.315224853515625,9.111000061035156,2.854950189590454,0.7429500222206116
1750506128325829400,0.324829345703125,9.043950080871582,2.9850001335144043,0.6060000061988831
1750506128335433700,0.334433837890625,9.018000602722168,2.9800500869750977,0.5130000114440918
1750506128345038600,0.34403857421875,8.9170503616333,3.037050247192383,0.4909500181674957
1750506128354643200,0.353643310546875,8.838000297546387,3.058950185775757,0.47700002789497375
1750506128364247800,0.363247802734375,9.079950332641602,3.097050189971924,0.4240500330924988
1750506128373852200,0.37285205078125,9.41295051574707,3.046950101852417,0.4410000145435333
1750506128383456800,0.382456787109375,9.645000457763672,2.926950216293335,0.5490000247955322
1750506128393061400,0.392061279296875,9.636000633239746,2.836050033569336,0.6589500308036804
1750506128402666000,0.401666015625,9.547050476074219,2.82705020904541,0.6880500316619873
1750506128412270600,0.4112705078125,9.553950309753418,2.866950035095215,0.6139500141143799
1750506128421875200,0.420875244140625,9.496950149536133,2.9100000858306885,0.37605002522468567
1750506128431479800,0.430479736328125,9.43005084991455,3.00600004196167,0.22800001502037048
1750506128441084400,0.44008447265625,9.343950271606445,3.1519501209259033,0.22800001502037048
1750506128450689000,0.44968896484375,9.12600040435791,3.198000192642212,0.3139500021934509
1750506128460293600,0.459293701171875,8.901000022888184,3.1500000953674316,0.3840000033378601
1750506128469898200,0.468898193359375,8.88900089263916,2.9730000495910645,0.42195001244544983
1750506128479502600,0.478502685546875,9.15000057220459,2.806950092315674,0.5110500454902649
1750506128489107200,0.488107177734375,9.468000411987305,2.6899502277374268,0.5299500226974487
1750506128498711800,0.4977119140625,9.49905014038086,2.5489501953125,0.5800500512123108
1750506128508316400,0.50731640625,9.391050338745117,2.5660500526428223,0.6160500049591064
1750506128517921000,0.516921142578125,9.255000114440918,2.6710500717163086,0.6400500535964966
1750506128527525600,0.526525634765625,9.195000648498535,2.719050168991089,0.5460000038146973
1750506128537130000,0.5361298828125,9.631050109863281,2.7709500789642334,0.36900001764297485
1750506128546734800,0.54573486328125,10.083000183105469,2.7829501628875732,0.40995001792907715
1750506128556339500,0.55533935546875,10.143000602722168,2.6539502143859863,0.49605002999305725
1750506128565944000,0.564944091796875,10.12605094909668,2.5660500526428223,0.5899500250816345
1750506128575548700,0.574548583984375,9.904050827026367,2.4529500007629395,0.7240500450134277
1750506128585153300,0.5841533203125,9.757950782775879,2.4120001792907715,0.7480500340461731
1750506128594758000,0.5937578125,9.492000579833984,2.3550000190734863,0.8050500154495239
1750506128604362500,0.603362548828125,9.22095012664795,2.4150002002716064,0.8580000400543213
1750506128613966800,0.612966796875,9.085050582885742,2.5249500274658203,0.8530500531196594
1750506128623571500,0.622571533203125,9.030000686645508,2.6920502185821533,0.8190000653266907
1750506128633176000,0.632176025390625,8.922000885009766,2.719050168991089,0.7399500608444214
1750506128642781000,0.641781005859375,8.731050491333008,2.668950080871582,0.6970500349998474
1750506128652385300,0.65138525390625,8.794950485229492,2.6610000133514404,0.6060000061988831
1750506128661990000,0.660989990234375,9.159000396728516,2.5920000076293945,0.775950014591217
1750506128671594500,0.670594482421875,9.316950798034668,2.3959500789642334,1.0399500131607056
1750506128681199000,0.68019921875,9.406050682067871,2.2450501918792725,1.0969500541687012
1750506128690803700,0.6898037109375,9.56100082397461,2.190000057220459,1.2960000038146973
1750506128700408300,0.699408203125,9.609000205993652,2.11995005607605,1.300950050354004
1750506128710013000,0.709012939453125,9.544950485229492,1.998000144958496,1.13100004196167
1750506128719617500,0.718617431640625,9.130050659179688,2.038950204849243,0.9460500478744507
1750506128729222100,0.72822216796875,9.41100025177002,2.455050230026245,1.0279500484466553
1750506128738826800,0.73782666015625,9.532950401306152,2.7690000534057617,0.9100500345230103
1750506128748431000,0.74743115234375,9.508950233459473,2.7910501956939697,0.7549500465393066
1750506128758036000,0.757035888671875,9.672000885009766,2.748000144958496,0.597000002861023
1750506128767640300,0.766640380859375,9.754950523376465,2.7400500774383545,0.6660000085830688
1750506128777245200,0.7762451171875,9.70995044708252,2.590050220489502,0.6019500494003296
1750506128786849800,0.785849853515625,9.286050796508789,2.5489501953125,0.25005000829696655
1750506128796454400,0.795454345703125,9.19005012512207,2.499000072479248,1.2139500379562378
1750506128806059000,0.80505908203125,8.83395004272461,2.2519500255584717,1.76295006275177
1750506128815663600,0.81466357421875,8.332950592041016,1.9530000686645508,1.7749500274658203
1750506128825268000,0.82426806640625,8.371050834655762,1.8520500659942627,1.7680500745773315
1750506128834872800,0.833872802734375,8.761950492858887,1.9840500354766846,1.7050501108169556
1750506128844477400,0.8434775390625,9.043950080871582,2.107950210571289,1.495050072669983
1750506128854082000,0.85308203125,9.348000526428223,2.1610500812530518,1.2820500135421753
1750506128863686700,0.862686767578125,9.484950065612793,2.1660001277923584,1.1670000553131104
1750506128873291300,0.872291259765625,9.592950820922852,2.0629501342773438,1.4470500946044922
1750506128882896000,0.881895751953125,9.846000671386719,1.9549500942230225,1.5949500799179077
1750506128892500500,0.89150048828125,10.155000686645508,1.821000099182129,1.746000051498413
1750506128902104800,0.901104736328125,10.476000785827637,1.7320500612258911,1.7170500755310059
1750506128911709400,0.91070947265625,10.344000816345215,1.6219500303268433,1.437000036239624
1750506128921314000,0.92031396484375,9.904050827026367,1.6530001163482666,1.2000000476837158
1750506128930918700,0.929918701171875,9.415050506591797,1.7950501441955566,1.1710500717163086
1750506128940523300,0.939523193359375,9.298050880432129,2.0149500370025635,1.3680000305175781
1750506128950127900,0.9491279296875,9.43005084991455,2.0269501209259033,1.3720500469207764
1750506128959732500,0.958732421875,9.637950897216797,1.90500009059906,1.3270500898361206
1750506128969337000,0.968337158203125,9.718950271606445,1.7370001077651978,1.4899500608444214
1750506128978941700,0.977941650390625,9.463050842285156,1.6770000457763672,1.3579500913619995
1750506128988546300,0.98754638671875,9.20895004272461,1.8859500885009766,1.339050054550171
1750506128998151000,0.99715087890625,9.223950386047363,2.11995005607605,1.2580500841140747
1750506129007755500,1.006755615234375,9.379050254821777,2.281050205230713,1.0369499921798706
1750506129017360100,1.016360107421875,9.601950645446777,2.319000005722046,0.7690500617027283
1750506129026964500,1.025964599609375,9.480000495910645,2.311950206756592,0.4650000333786011
1750506129036569000,1.035569091796875,9.26400089263916,2.341050148010254,0.6139500141143799
1750506129046173700,1.045173583984375,8.914950370788574,2.209050178527832,0.8650500178337097
1750506129055778600,1.054778564453125,8.761950492858887,2.089050054550171,1.0369499921798706
1750506129065383000,1.0643828125,8.980050086975098,2.0629501342773438,1.15500009059906
1750506129074987500,1.073987548828125,9.516000747680664,2.047950029373169,1.1980500221252441
1750506129084592000,1.083592041015625,10.11405086517334,1.8930001258850098,1.1759999990463257
1750506129094196700,1.09319677734375,10.52400016784668,1.6489500999450684,1.3440001010894775
1750506129103801300,1.10280126953125,10.26300048828125,1.593000054359436,1.0999500751495361
1750506129113406000,1.112406005859375,9.564000129699707,1.7920501232147217,0.9940500259399414
1750506129123010600,1.122010498046875,8.905050277709961,1.9170000553131104,0.999000072479248
1750506129132615200,1.131615234375,8.557950019836426,1.8880500793457031,1.1569499969482422
1750506129142219800,1.1412197265625,8.506050109863281,1.8660000562667847,1.1980500221252441
1750506129151824400,1.150824462890625,8.709000587463379,1.8880500793457031,1.1759999990463257
1750506129161428700,1.1604287109375,9.391050338745117,1.9170000553131104,1.1880000829696655
1750506129171033300,1.170033447265625,10.090950012207031,1.8229501247406006,1.2169500589370728
1750506129180638000,1.179637939453125,10.58595085144043,1.6290000677108765,1.3050000667572021
1750506129190242800,1.189242919921875,10.713000297546387,1.4880000352859497,1.4110500812530518
1750506129199847200,1.19884716796875,10.516950607299805,1.426050066947937,1.432050108909607
1750506129209451800,1.20845166015625,10.026000022888184,1.5049500465393066,1.3560000658035278
1750506129219056400,1.218056396484375,9.375,1.6440000534057617,1.1230500936508179
1750506129228661000,1.227660888671875,8.802000045776367,1.8349500894546509,0.9679500460624695
1750506129238265600,1.237265625,8.6850004196167,1.9290001392364502,0.9559500217437744
1750506129247870200,1.2468701171875,8.872050285339355,1.9099501371383667,1.0330500602722168
1750506129257474800,1.256474853515625,9.142050743103027,1.8760501146316528,1.0489500761032104
1750506129267079400,1.266079345703125,9.468000411987305,1.8619500398635864,1.0920000076293945
1750506129276684000,1.27568408203125,9.873000144958496,1.8619500398635864,1.0969500541687012
1750506129286288600,1.28528857421875,10.033050537109375,1.765950083732605,1.0249500274658203
1750506129295893200,1.294893310546875,10.059000015258789,1.735050082206726,0.9850500226020813
1750506129305497900,1.304497802734375,10.138050079345703,1.7920501232147217,0.9559500217437744
1750506129315102500,1.3141025390625,10.047000885009766,1.7419500350952148,1.015950083732605
1750506129324706800,1.323706787109375,9.829950332641602,1.5580500364303589,1.1119500398635864
1750506129334311400,1.3333115234375,9.765000343322754,1.4689500331878662,1.1590501070022583
1750506129343916000,1.342916015625,9.466050148010254,1.4830501079559326,0.9079500436782837
1750506129353520600,1.352520751953125,9.195000648498535,1.7470500469207764,0.7669500112533569
1750506129363125200,1.362125244140625,8.994000434875488,1.8900001049041748,0.7399500608444214
1750506129372729900,1.371729736328125,9.391050338745117,1.960050106048584,0.843000054359436
1750506129382334500,1.38133447265625,10.099950790405273,1.8259501457214355,1.114050030708313
1750506129391939000,1.39093896484375,10.26300048828125,1.555050015449524,0.8670000433921814
1750506129401543700,1.400543701171875,10.603050231933594,1.6800000667572021,0.6019500494003296
1750506129411148300,1.410148193359375,10.720050811767578,1.974000096321106,0.24705001711845398
1750506129420753000,1.4197529296875,10.440000534057617,2.2519500255584717,0.26205000281333923
1750506129430357200,1.429357177734375,10.093050003051758,2.247000217437744,0.5940000414848328
1750506129439962000,1.438962158203125,9.934950828552246,2.047950029373169,0.7450500130653381
1750506129449566700,1.448566650390625,9.808050155639648,2.1319501399993896,0.5440500378608704
1750506129459171000,1.458171142578125,9.942000389099121,2.5249500274658203,0.036000002175569534
1750506129468775700,1.467775634765625,10.37505054473877,3.05400013923645,-0.2689500153064728
1750506129478380300,1.47738037109375,10.86405086517334,2.974950075149536,-0.037050001323223114
1750506129487985000,1.48698486328125,11.1510009765625,1.9410001039505005,0.8509500622749329
1750506129497589500,1.496589599609375,11.247000694274902,1.828050136566162,1.4350500106811523
1750506129507194000,1.506194091796875,11.082000732421875,1.9669500589370728,1.2930001020431519
1750506129516798700,1.515798828125,10.713000297546387,2.4460501670837402,0.31200000643730164
1750506129526403300,1.5254033203125,10.621950149536133,3.496950149536133,-1.4490001201629639
1750506129536008000,1.535008056640625,13.228950500488281,4.335000038146973,-2.757000207901001
1750506129545612500,1.544612548828125,15.832050323486328,4.43595027923584,-3.5710501670837402
1750506129555217200,1.554217041015625,16.240951538085938,4.210050106048584,-3.7290000915527344
1750506129564821500,1.563821533203125,15.918001174926758,3.805950164794922,-2.851950168609619
1750506129574426400,1.57342626953125,15.040050506591797,3.118950128555298,-2.137050151824951
1750506129584030700,1.58303076171875,15.16395092010498,2.8620002269744873,-1.6270500421524048
1750506129593635600,1.592635498046875,15.063000679016113,2.8429501056671143,-1.579050064086914
1750506129603240200,1.602240234375,14.568000793457031,2.6830501556396484,-1.9519500732421875
1750506129612844800,1.6118447265625,14.451000213623047,3.0109500885009766,-1.6309500932693481
1750506129622449400,1.621449462890625,14.422050476074219,4.870950222015381,-2.674950122833252
1750506129632054000,1.631053955078125,13.945050239562988,4.621950149536133,-2.527050018310547
1750506129641658600,1.64065869140625,12.850950241088867,4.0980000495910645,-1.9500000476837158
1750506129651263200,1.65026318359375,11.982000350952148,3.865950107574463,-1.224000096321106
1750506129660867600,1.65986767578125,10.857000350952148,3.454050064086914,-0.609000027179718
1750506129670472200,1.66947216796875,9.103950500488281,3.5500502586364746,-0.6660000085830688
1750506129680076800,1.679076904296875,8.280000686645508,4.093050003051758,-0.6379500031471252
1750506129689681700,1.688681640625,7.713000297546387,4.561950206756592,-1.3030500411987305
1750506129699286300,1.698286376953125,6.724050521850586,4.5169501304626465,-0.89205002784729
1750506129708891000,1.707890869140625,6.57105016708374,4.174950122833252,-0.47505003213882446
1750506129718495500,1.71749560546875,5.704050064086914,4.414050102233887,-0.08895000070333481
1750506129728100000,1.72710009765625,4.4760003089904785,4.615050315856934,0.04605000093579292
1750506129737704400,1.736704345703125,2.8620002269744873,5.238000392913818,0.04605000093579292
1750506129747309000,1.74630908203125,0.7000500559806824,5.596950054168701,-0.015000000596046448
1750506129756913700,1.75591357421875,-0.283050000667572,5.878950119018555,-0.05100000277161598
1750506129766518300,1.765518310546875,-0.31905001401901245,6.025050163269043,-0.2070000171661377
1750506129776123000,1.775122802734375,0.0799500048160553,6.250050067901611,-0.25200000405311584
1750506129785727500,1.7847275390625,-0.0580500029027462,6.073050498962402,0.015000000596046448
1750506129795332000,1.79433203125,-1.2430500984191895,5.865000247955322,0.30705001950263977
1750506129804936700,1.803936767578125,-2.0590500831604004,5.908050060272217,0.3379500210285187
1750506129814541300,1.813541259765625,-2.1100502014160156,6.1810503005981445,0.15900000929832458
1750506129824146000,1.82314599609375,-2.325000047683716,6.49500036239624,0.039000000804662704
1750506129833750500,1.83275048828125,-3.2470500469207764,6.928050518035889,-0.0970500037074089
1750506129843355100,1.842355224609375,-4.153950214385986,7.273050308227539,-0.17295001447200775
1750506129852959700,1.851959716796875,-4.783950328826904,7.186950206756592,0.06795000284910202
1750506129862564000,1.861564208984375,-5.361000061035156,6.669000148773193,0.6469500064849854
1750506129872168700,1.871168701171875,-5.380050182342529,6.009000301361084,1.1880000829696655
1750506129881773300,1.880773193359375,-4.521000385284424,5.455050468444824,1.4730000495910645
1750506129891378000,1.8903779296875,-2.763000249862671,5.308950424194336,1.055999994277954
1750506129900982500,1.899982421875,-0.6160500049591064,5.06505012512207,1.1260499954223633
1750506129910587100,1.909587158203125,0.4510500133037567,4.588950157165527,1.741050124168396
1750506129920191700,1.919191650390625,-0.1489500105381012,4.69605016708374,1.858950138092041
1750506129929796400,1.92879638671875,-0.9820500612258911,4.692000389099121,2.203050136566162
1750506129939401000,1.93840087890625,-1.516050100326538,4.479000091552734,2.524050235748291
1750506129949005600,1.948005615234375,-1.7749500274658203,4.254000186920166,1.8900001049041748
1750506129958610200,1.957610107421875,-1.606950044631958,3.9850502014160156,-0.3379500210285187
1750506129968214800,1.96721484375,1.8060001134872437,4.32105016708374,-2.259000062942505
1750506129977819400,1.9768193359375,6.916050434112549,3.1740002632141113,-0.8479500412940979
1750506129987424000,1.986424072265625,8.878950119018555,1.5670500993728638,1.0800000429153442
1750506129997028600,1.996028564453125,8.368950843811035,0.9690000414848328,2.731950044631958
1750506130006633000,2.005633056640625,7.243950366973877,0.7890000343322754,3.063000202178955
1750506130016237800,2.01523779296875,7.237050533294678,1.3440001010894775,1.741050124168396
1750506130025842400,2.024842529296875,7.987950325012207,1.8499500751495361,0.25200000405311584
1750506130035446800,2.03444677734375,9.829950332641602,2.247000217437744,-1.477950096130371
1750506130045051400,2.044051513671875,14.079000473022461,1.7419500350952148,-1.3339500427246094
1750506130054656000,2.053656005859375,18.283950805664062,0.6289500594139099,0.8740500211715698
1750506130064260600,2.063260498046875,20.12700080871582,-0.0499500036239624,1.7989500761032104
1750506130073865200,2.072865234375,19.608001708984375,-0.45000001788139343,2.91195011138916
1750506130083469800,2.0824697265625,17.36400032043457,-0.5509500503540039,3.3670501708984375
1750506130093074400,2.092074462890625,16.081050872802734,-0.034050002694129944,2.593950033187866
1750506130112283600,2.11128369140625,14.938950538635254,1.3060500621795654,0.7159500122070312
1750506130121888300,2.12088818359375,14.689950942993164,1.9500000476837158,0.1680000126361847
1750506130131492900,2.130492919921875,14.874000549316406,2.0220000743865967,0.3720000088214874
1750506130141097500,2.140097412109375,14.611050605773926,1.752000093460083,1.0969500541687012
1750506130150701800,2.149701904296875,13.917000770568848,1.582050085067749,1.7890501022338867
1750506130160306700,2.159306640625,13.099950790405273,1.555050015449524,2.0910000801086426
1750506130169911000,2.1689111328125,12.576000213623047,1.7539501190185547,2.0119500160217285
1750506130179515600,2.178515625,12.042000770568848,1.9890000820159912,1.6360501050949097
1750506130189120500,2.18812060546875,11.527050971984863,2.202000141143799,1.207050085067749
1750506130198724900,2.197724853515625,10.87605094909668,2.4240000247955322,0.7240500450134277
1750506130208329700,2.207329833984375,10.342050552368164,2.5920000076293945,0.3550500273704529
1750506130217934300,2.216934326171875,10.069050788879395,2.6040000915527344,0.3739500045776367
1750506130227538700,2.22653857421875,10.071000099182129,2.6230502128601074,0.2569500207901001
1750506130237143600,2.2361435546875,10.00005054473877,2.545950174331665,0.38805001974105835
1750506130246748000,2.245747802734375,9.729000091552734,2.3839499950408936,0.5730000138282776
1750506130256352500,2.2553525390625,9.597000122070312,2.329050064086914,0.5509500503540039
1750506130265957400,2.264957275390625,9.636000633239746,2.2159500122070312,0.6280500292778015
1750506130275561700,2.274561767578125,9.517950057983398,2.190000057220459,0.5560500025749207
1750506130285166000,2.284166015625,9.616050720214844,2.2230000495910645,0.38100001215934753
1750506130294770700,2.293770751953125,9.544950485229492,2.190000057220459,0.3049500286579132
1750506130304375600,2.30337548828125,9.358050346374512,2.2039501667022705,0.2569500207901001
1750506130313980200,2.312980224609375,9.20895004272461,2.2420501708984375,0.2350500077009201
1750506130323584800,2.322584716796875,9.52500057220459,2.3310000896453857,0.043950002640485764
1750506130333189400,2.332189453125,10.030950546264648,2.3519999980926514,0.0010500000789761543
1750506130342794000,2.3417939453125,10.071000099182129,2.2380001544952393,0.14400000870227814
1750506130352398600,2.351398681640625,9.765000343322754,2.058000087738037,0.4440000355243683
1750506130362003200,2.361003173828125,9.420000076293945,1.9530000686645508,0.6540000438690186
1750506130371607600,2.370607666015625,9.26205062866211,1.9930500984191895,0.6690000295639038
1750506130381212400,2.38021240234375,9.229050636291504,2.1060001850128174,0.5179499983787537
1750506130390816800,2.389816650390625,9.312000274658203,2.2139999866485596,0.4120500087738037
1750506130400421400,2.39942138671875,9.504000663757324,2.2540500164031982,0.30900001525878906
1750506130410026000,2.40902587890625,9.789000511169434,2.2159500122070312,0.3739500045776367
1750506130419630800,2.418630859375,9.681000709533691,2.1540000438690186,0.47505003213882446
1750506130429235500,2.4282353515625,9.445950508117676,2.179949998855591,0.5820000171661377
1750506130438840000,2.437840087890625,9.145050048828125,2.197050094604492,0.6370500326156616
1750506130448444400,2.4474443359375,8.878950119018555,2.206050157546997,0.609000027179718
1750506130458049000,2.457049072265625,8.92905044555664,2.368950128555298,0.42900002002716064
1750506130467653600,2.466653564453125,9.253050804138184,2.448000192642212,0.2659500241279602
1750506130477258200,2.47625830078125,9.432000160217285,2.458050012588501,0.2740500271320343
1750506130486862800,2.48586279296875,9.324000358581543,2.439000129699707,0.27105000615119934
1750506130496467500,2.495467529296875,9.232950210571289,2.419950008392334,0.30195000767707825
1750506130506072000,2.505072021484375,9.055950164794922,2.4049501419067383,0.36705002188682556
1750506130515676700,2.5146767578125,9.085050582885742,2.436000108718872,0.37905001640319824
1750506130525281300,2.52428125,9.346050262451172,2.3929500579833984,0.3930000066757202
1750506130534886000,2.533885986328125,9.624000549316406,2.2759501934051514,0.4459500312805176
1750506130544490500,2.543490478515625,9.772050857543945,2.2039501667022705,0.47895002365112305
1750506130554095000,2.55309521484375,9.765000343322754,2.1820499897003174,0.5010000467300415
1750506130563699500,2.562699462890625,9.621000289916992,2.149049997329712,0.5080500245094299
1750506130573304000,2.572303955078125,9.40095043182373,2.1850500106811523,0.4650000333786011
1750506130582908700,2.58190869140625,9.256950378417969,2.257050037384033,0.3720000088214874
1750506130592513300,2.59151318359375,9.379050254821777,2.3050501346588135,0.28095000982284546
1750506130602118000,2.601117919921875,9.597000122070312,2.3170502185821533,0.2760000228881836
1750506130611722500,2.610722412109375,9.73905086517334,2.2300500869750977,0.4050000309944153
1750506130621327000,2.6203271484375,9.664050102233887,2.1229500770568848,0.5560500025749207
1750506130630931700,2.629931640625,9.490050315856934,2.095950126647949,0.609000027179718
1750506130640536300,2.639536376953125,9.396000862121582,2.1510000228881836,0.5659500360488892
1750506130650141000,2.649140869140625,9.406050682067871,2.218050003051758,0.5080500245094299
1750506130659745500,2.65874560546875,9.564000129699707,2.269050121307373,0.3840000033378601
1750506130669350100,2.66835009765625,9.660000801086426,2.269050121307373,0.3739500045776367
1750506130678954800,2.677954833984375,9.484950065612793,2.269050121307373,0.32100000977516174
1750506130688559400,2.687559326171875,9.307950019836426,2.3449501991271973,0.2569500207901001
1750506130698164000,2.6971640625,9.13800048828125,2.3929500579833984,0.15900000929832458
1750506130707768300,2.706768310546875,9.166050910949707,2.4790501594543457,0.09195000678300858
1750506130717373000,2.716373046875,9.41295051574707,2.439000129699707,0.14400000870227814
1750506130726977500,2.7259775390625,9.601950645446777,2.3430001735687256,0.29295000433921814
1750506130736582100,2.73558203125,9.73905086517334,2.2930500507354736,0.40800002217292786
1750506130746186800,2.745186767578125,9.834000587463379,2.1940500736236572,0.4990500211715698
1750506130755791400,2.754791259765625,9.70305061340332,2.158950090408325,0.5059500336647034
1750506130765396000,2.76439599609375,9.612000465393066,2.2300500869750977,0.4510500133037567
1750506130775000600,2.77400048828125,9.427050590515137,2.227950096130371,0.325950026512146
1750506130784605200,2.783605224609375,9.229050636291504,2.3239500522613525,0.208950012922287
1750506130794209800,2.793209716796875,9.130050659179688,2.39805006980896,0.15900000929832458
1750506130803814400,2.802814453125,9.17805004119873,2.515050172805786,0.015000000596046448
1750506130813419000,2.8124189453125,9.439050674438477,2.5420501232147217,0.06000000238418579
1750506130823023600,2.822023681640625,9.559050559997559,2.4150002002716064,0.2160000056028366
1750506130832628000,2.8316279296875,9.502050399780273,2.3170502185821533,0.40800002217292786
1750506130842232800,2.84123291015625,9.480000495910645,2.2330501079559326,0.5110500454902649
1750506130851837200,2.850837158203125,9.348000526428223,2.239950180053711,0.5299500226974487
1750506130861441800,2.86044189453125,9.20895004272461,2.367000102996826,0.40800002217292786
1750506130871046700,2.870046630859375,9.231000900268555,2.448000192642212,0.283050000667572
1750506130880651300,2.8796513671875,9.52500057220459,2.455050230026245,0.19200000166893005
1750506130890256000,2.889255859375,9.897000312805176,2.3449501991271973,0.26205000281333923
1750506130899860200,2.898860107421875,9.973050117492676,2.197050094604492,0.46695002913475037
1750506130909464800,2.90846484375,9.901050567626953,2.0869500637054443,0.6469500064849854
1750506130919069400,2.9180693359375,9.766950607299805,2.07705020904541,0.7519500255584717
1750506130928674000,2.927674072265625,9.71505069732666,2.1559500694274902,0.6210000514984131
1750506130938278700,2.937278564453125,9.8100004196167,2.2829999923706055,0.46695002913475037
1750506130947883500,2.946883544921875,9.894000053405762,2.2900500297546387,0.36900001764297485
1750506130957488000,2.956488037109375,9.925050735473633,2.206050157546997,0.34995001554489136
1750506130967092700,2.9660927734375,9.817950248718262,2.149049997329712,0.42705002427101135
1750506130976697300,2.975697265625,9.553950309753418,2.1130499839782715,0.46995002031326294
1750506130986302000,2.985302001953125,9.48705005645752,2.170950174331665,0.4240500330924988
1750506130995906300,2.99490625,9.496950149536133,2.2110002040863037,0.41505002975463867
1750506131005511000,3.004510986328125,9.592950820922852,2.218050003051758,0.32895001769065857
1750506131015115500,3.014115478515625,9.595050811767578,2.199000120162964,0.40995001792907715
1750506131024720100,3.02372021484375,9.528000831604004,2.0820000171661377,0.4630500078201294
1750506131034324700,3.03332470703125,9.532950401306152,2.0220000743865967,0.47700002789497375
1750506131043929300,3.042929443359375,9.481950759887695,2.047950029373169,0.47700002789497375
1750506131053534000,3.052533935546875,9.303000450134277,2.142000198364258,0.34995001554489136
1750506131063138600,3.062138671875,9.26205062866211,2.257050037384033,0.2950500249862671
1750506131072743200,3.0717431640625,9.367050170898438,2.3359501361846924,0.22995001077651978
1750506131082347800,3.08134765625,9.42495059967041,2.3050501346588135,0.23295001685619354
1750506131091952000,3.0909521484375,9.331950187683105,2.2330501079559326,0.34995001554489136
1750506131101556700,3.100556640625,9.133049964904785,2.25,0.3049500286579132
1750506131111161300,3.110161376953125,9.094050407409668,2.266050100326538,0.28095000982284546
1750506131120766000,3.119765869140625,9.130050659179688,2.2930500507354736,0.28095000982284546
1750506131130370600,3.12937060546875,9.291000366210938,2.307000160217285,0.30900001525878906
1750506131139975200,3.13897509765625,9.351000785827637,2.2729501724243164,0.3720000088214874
1750506131149579800,3.148579833984375,9.39900016784668,2.2540500164031982,0.3360000252723694
1750506131159184400,3.158184326171875,9.48705005645752,2.2420501708984375,0.3930000066757202
1750506131168789000,3.1677890625,9.529950141906738,2.190000057220459,0.38100001215934753
1750506131178393600,3.1773935546875,9.454050064086914,2.1730501651763916,0.3840000033378601
1750506131187998200,3.186998291015625,9.292950630187988,2.206050157546997,0.35295000672340393
1750506131197602800,3.196602783203125,9.253050804138184,2.239950180053711,0.2779500186443329
1750506131207207200,3.206207275390625,9.286050796508789,2.278050184249878,0.2569500207901001
1750506131216811800,3.215811767578125,9.41100025177002,2.2729501724243164,0.2740500271320343
1750506131226416600,3.225416748046875,9.475050926208496,2.247000217437744,0.2950500249862671
1750506131236021200,3.235021240234375,9.475050926208496,2.2210500240325928,0.36195001006126404
1750506131245625900,3.2446259765625,9.463050842285156,2.1540000438690186,0.3930000066757202
1750506131255230200,3.254230224609375,9.43005084991455,2.1469500064849854,0.3049500286579132
1750506131264834800,3.263834716796875,9.384000778198242,2.1940500736236572,0.22095000743865967
1750506131274439400,3.273439453125,9.322050094604492,2.2230000495910645,0.283050000667572
1750506131284044000,3.2830439453125,9.255000114440918,2.2210500240325928,0.3139500021934509
1750506131293648600,3.292648681640625,9.303000450134277,2.218050003051758,0.36705002188682556
1750506131303253200,3.302253173828125,9.540000915527344,2.199000120162964,0.41505002975463867
1750506131312857900,3.31185791015625,9.652050018310547,2.202000141143799,0.36000001430511475
1750506131322462500,3.32146240234375,9.70305061340332,2.2159500122070312,0.3570000231266022
1750506131332067000,3.331067138671875,9.873000144958496,2.139000177383423,0.34995001554489136
1750506131341671400,3.34067138671875,9.97605037689209,2.110949993133545,0.4240500330924988
1750506131351276300,3.3502763671875,10.033050537109375,2.1730501651763916,0.34095001220703125
1750506131360881000,3.359880859375,9.892050743103027,2.1559500694274902,0.3720000088214874
1750506131370485200,3.3694853515625,9.556950569152832,2.1510000228881836,0.3570000231266022
1750506131380089900,3.37908984375,9.310050010681152,2.187000036239624,0.32895001769065857
1750506131389694700,3.38869482421875,9.211950302124023,2.227950096130371,0.2760000228881836
1750506131399299300,3.39829931640625,9.370050430297852,2.299950122833252,0.19905000925064087
1750506131408904000,3.407904052734375,9.672000885009766,2.247000217437744,0.2569500207901001
1750506131418508500,3.417508544921875,9.865050315856934,2.1319501399993896,0.42195001244544983
1750506131428113000,3.42711279296875,9.841950416564941,2.047950029373169,0.5370000004768372
1750506131437717500,3.436717529296875,9.625950813293457,1.990950107574463,0.6139500141143799
1750506131447322000,3.446322021484375,9.523050308227539,2.0239500999450684,0.5299500226974487
1750506131456926500,3.455926513671875,9.505950927734375,2.0820000171661377,0.43905001878738403
1750506131466531300,3.46553125,9.463050842285156,2.142000198364258,0.35295000672340393
1750506131476136000,3.475135986328125,9.372000694274902,2.1559500694274902,0.30195000767707825
1750506131485740500,3.484740478515625,9.300000190734863,2.190000057220459,0.3240000009536743
1750506131495345200,3.49434521484375,9.532950401306152,2.2039501667022705,0.3049500286579132
1750506131504949800,3.50394970703125,9.873000144958496,2.1229500770568848,0.39795002341270447
1750506131514554400,3.513554443359375,10.030950546264648,2.0820000171661377,0.4990500211715698
1750506131524159000,3.523158935546875,10.198050498962402,2.058000087738037,0.6109500527381897
1750506131533763600,3.532763671875,10.303950309753418,2.170950174331665,0.7399500608444214
1750506131543368000,3.542367919921875,10.984050750732422,2.3020501136779785,0.8029500246047974
1750506131552972500,3.55197265625,11.604000091552734,2.371950149536133,0.6280500292778015
1750506131562577200,3.5615771484375,12.502050399780273,2.4240000247955322,0.2760000228881836
1750506131572182000,3.57118212890625,13.351950645446777,2.386050224304199,0.13199999928474426
1750506131581786600,3.58078662109375,14.12505054473877,2.2159500122070312,-0.1399500072002411
1750506131591391200,3.59039111328125,15.916050910949707,1.9789501428604126,-0.28095000982284546
1750506131600995600,3.59999560546875,17.641950607299805,1.38795006275177,-0.09405000507831573
1750506131610600200,3.60960009765625,19.135950088500977,0.9520500302314758,-0.6660000085830688
1750506131620204800,3.619204833984375,21.004051208496094,0.739050030708313,-1.144950032234192
1750506131629809400,3.628809326171875,22.16295051574707,0.5689499974250793,-2.0620501041412354
1750506131639414000,3.6384140625,22.431001663208008,-0.13695000112056732,-2.0119500160217285
1750506131649018400,3.648018310546875,20.203950881958008,-0.8260500431060791,-0.9370500445365906
1750506131658623000,3.657623046875,17.04104995727539,-0.49605002999305725,-1.5139501094818115
1750506131668227600,3.6672275390625,15.526050567626953,0.004050000105053186,-1.7680500745773315
1750506131677832400,3.67683251953125,13.179000854492188,0.609000027179718,-2.851950168609619
1750506131687437000,3.68643701171875,11.58495044708252,1.7059500217437744,-3.690000057220459
1750506131697041700,3.696041748046875,8.994000434875488,1.752000093460083,-2.7900002002716064
1750506131706646300,3.705646240234375,4.404000282287598,2.0269501209259033,-1.4760000705718994
1750506131716251000,3.7152509765625,0.04605000093579292,2.994000196456909,-0.07500000298023224
1750506131725855200,3.724855224609375,-3.3640501499176025,4.090950012207031,0.5440500378608704
1750506131735460000,3.734460205078125,-5.1739501953125,5.697000503540039,-0.019950000569224358
1750506131745064400,3.744064453125,-5.622000217437744,6.966000556945801,-0.17100000381469727
1750506131754669000,3.7536689453125,-6.0199503898620605,7.158000469207764,0.0580500029027462
1750506131764273700,3.763273681640625,-6.490950107574463,7.098000526428223,0.26205000281333923
1750506131773878300,3.772878173828125,-6.718950271606445,7.123950481414795,0.25905001163482666
1750506131783483000,3.78248291015625,-6.771000385284424,7.318050384521484,0.07695000618696213
1750506131793087500,3.79208740234375,-6.498000144958496,7.440000534057617,-0.11805000901222229
1750506131802692000,3.801692138671875,-6.289950370788574,7.452000141143799,0.07500000298023224
1750506131812296700,3.811296630859375,-6.220950126647949,7.300950527191162,0.28095000982284546
1750506131821901000,3.820901123046875,-6.106050491333008,7.375950336456299,0.36900001764297485
1750506131831505700,3.830505615234375,-5.9239501953125,7.4569501876831055,0.2179500162601471
1750506131841110500,3.840110595703125,-4.807950019836426,7.512000560760498,0.04800000041723251
1750506131850715100,3.849715087890625,-2.704050064086914,7.105050563812256,0.13905000686645508
1750506131860319500,3.859319580078125,-0.9130500555038452,6.424950122833252,0.22800001502037048
1750506131869924000,3.868924072265625,0.24000000953674316,6.118950366973877,0.29295000433921814
1750506131879528700,3.87852880859375,0.7549500465393066,6.049050331115723,0.5149500370025635
1750506131889133300,3.88813330078125,1.0740000009536743,6.079950332641602,0.5629500150680542
1750506131898738000,3.897738037109375,2.0239500999450684,5.986950397491455,0.40995001792907715
1750506131908342500,3.907342529296875,3.283950090408325,5.776050090789795,0.27105000615119934
1750506131917947100,3.916947021484375,5.247000217437744,5.38800048828125,0.4549500346183777
1750506131927551700,3.9265517578125,7.204950332641602,4.6870503425598145,1.0210500955581665
1750506131937156000,3.936156005859375,8.191950798034668,4.420950412750244,1.576050043106079
1750506131946761000,3.945760986328125,8.532000541687012,4.555050373077393,1.7149500846862793
1750506131956365600,3.955365478515625,8.167950630187988,4.5769500732421875,1.4899500608444214
1750506131965970200,3.96497021484375,8.233050346374512,5.035950183868408,0.6570000052452087
1750506131975574500,3.974574462890625,9.870000839233398,4.945050239562988,0.6330000162124634
1750506131985179100,3.98417919921875,10.629000663757324,4.383000373840332,1.2000000476837158
1750506131994783700,3.99378369140625,10.416000366210938,4.102950096130371,1.7989500761032104
1750506132004388400,4.003388427734375,9.822000503540039,3.8179502487182617,2.5600500106811523
1750506132013993000,4.012992919921875,8.776050567626953,3.712050199508667,2.7679500579833984
1750506132023597600,4.02259765625,8.85300064086914,3.7080001831054688,2.470950126647949
1750506132033202200,4.0322021484375,10.741950035095215,3.3289501667022705,2.5099501609802246
1750506132042806800,4.041806884765625,12.444000244140625,2.937000036239624,2.30400013923645
1750506132052411100,4.0514111328125,13.53795051574707,2.926950216293335,2.313000202178955
1750506132062016000,4.06101611328125,13.351950645446777,2.806950092315674,2.6290500164031982
1750506132071620600,4.07062060546875,11.776050567626953,2.737950086593628,3.022050142288208
1750506132081225200,4.08022509765625,9.925050735473633,2.9509501457214355,3.0390000343322754
1750506132090829600,4.08982958984375,9.013050079345703,3.3319501876831055,2.5500001907348633
1750506132100434200,4.09943408203125,9.585000038146973,3.853950262069702,1.5540000200271606
1750506132110038800,4.109038818359375,11.641950607299805,4.026000022888184,1.054050087928772
1750506132119643400,4.118643310546875,13.22700023651123,3.586050271987915,1.2790501117706299
1750506132129248000,4.128248046875,13.189050674438477,3.217050075531006,1.9999500513076782
1750506132138852600,4.1378525390625,12.055950164794922,3.1020002365112305,2.6080501079559326
1750506132148457200,4.147457275390625,11.11305046081543,3.058950185775757,2.6389501094818115
1750506132158061800,4.157061767578125,10.86405086517334,3.2410502433776855,2.11995005607605
1750506132167666200,4.166666259765625,10.428000450134277,3.4560000896453857,1.5619500875473022
1750506132177271000,4.17627099609375,9.985050201416016,3.6289501190185547,1.1400001049041748
1750506132186875600,4.185875732421875,9.517950057983398,3.5809502601623535,0.9850500226020813
1750506132196480000,4.19547998046875,8.910000801086426,3.6000001430511475,0.7069500088691711
1750506132206084900,4.2050849609375,8.508000373840332,3.6720001697540283,0.4320000112056732
1750506132215689500,4.214689453125,8.41200065612793,3.7480502128601074,-0.17295001447200775
1750506132225293800,4.2242939453125,9.745950698852539,3.8269500732421875,-0.6690000295639038
1750506132234898700,4.233898681640625,10.404000282287598,3.507000207901001,-0.5350500345230103
1750506132244503300,4.24350341796875,9.636000633239746,3.2809500694274902,-0.10395000129938126
1750506132254107600,4.253107666015625,9.286050796508789,3.2340002059936523,0.22605000436306
1750506132263712300,4.262712158203125,9.529950141906738,3.2689502239227295,0.24195000529289246
1750506132273316900,4.27231689453125,9.985050201416016,3.4009501934051514,0.05100000277161598
1750506132282921500,4.28192138671875,10.371000289916992,3.4780502319335938,-0.025050001218914986
1750506132292526000,4.291526123046875,10.404000282287598,3.38700008392334,0.0580500029027462
1750506132302130700,4.301130615234375,10.009050369262695,3.2980501651763916,0.22800001502037048
1750506132311735300,4.3107353515625,9.588000297546387,3.3990001678466797,0.07500000298023224
1750506132321340000,4.32033984375,9.669000625610352,3.516000270843506,-0.04605000093579292
1750506132330944500,4.329944580078125,9.643050193786621,3.4390501976013184,-0.05400000140070915
1750506132340549400,4.33954931640625,9.420000076293945,3.367950201034546,0.2160000056028366
1750506132350153500,4.349153564453125,9.19005012512207,3.205050230026245,0.453000009059906
1750506132359758300,4.35875830078125,9.145050048828125,3.145050048828125,0.5299500226974487
1750506132369363000,4.368363037109375,9.16200065612793,3.195000171661377,0.5149500370025635
1750506132378967600,4.377967529296875,9.229050636291504,3.123000144958496,0.4939500093460083
1750506132388572200,4.387572265625,9.520950317382812,3.1090500354766846,0.42195001244544983
1750506132398176800,4.3971767578125,9.772050857543945,3.009000062942505,0.4630500078201294
1750506132407781400,4.406781494140625,9.849000930786133,2.8600502014160156,0.6570000052452087
1750506132417386000,4.416385986328125,9.72195053100586,2.824050188064575,0.8340000510215759
1750506132426990300,4.425990234375,9.49905014038086,2.8429501056671143,0.89805006980896
1750506132436595000,4.435594970703125,9.418050765991211,2.946000099182129,0.8239500522613525
1750506132446199600,4.445199462890625,9.271950721740723,2.9850001335144043,0.6709500551223755
1750506132455804400,4.454804443359375,9.109050750732422,3.05400013923645,0.6180000305175781
1750506132465408800,4.46440869140625,8.93595027923584,3.078000068664551,0.6300000548362732
1750506132475013400,4.474013427734375,8.848050117492676,3.0709500312805176,0.7159500122070312
1750506132484618000,4.483617919921875,8.913000106811523,3.135000228881836,0.6139500141143799
1750506132494222600,4.49322265625,8.908050537109375,3.235950231552124,0.5110500454902649
1750506132503827200,4.5028271484375,8.874000549316406,3.337050199508667,0.2350500077009201
1750506132513431800,4.512431884765625,8.962950706481934,3.436950206756592,0.13695000112056732
1750506132523036200,4.5220361328125,8.9839506149292,3.444000244140625,0.16095000505447388
1750506132532641000,4.53164111328125,9.030000686645508,3.367950201034546,0.3379500210285187
1750506132542245400,4.541245361328125,9.360000610351562,3.2190001010894775,0.4819500148296356
1750506132551850000,4.55085009765625,9.57300090789795,3.1690502166748047,0.5110500454902649
1750506132561454600,4.56045458984375,9.64995002746582,3.198000192642212,0.49605002999305725
1750506132571059200,4.57005908203125,9.600000381469727,3.262050151824951,0.4510500133037567
1750506132580663800,4.579663818359375,9.382050514221191,3.337050199508667,0.34995001554489136
1750506132590268400,4.589268310546875,9.267000198364258,3.3820502758026123,0.2850000262260437
1750506132599873000,4.598873046875,9.087000846862793,3.376950263977051,0.2689500153064728
1750506132609477600,4.6084775390625,8.994000434875488,3.412950277328491,0.22995001077651978
1750506132619082200,4.618082275390625,9.043950080871582,3.3510000705718994,0.24495001137256622
1750506132628686800,4.627686767578125,9.067950248718262,3.337050199508667,0.34800001978874207
1750506132638291500,4.63729150390625,9.030000686645508,3.255000114440918,0.42900002002716064
1750506132647895800,4.646895751953125,9.019950866699219,3.1999502182006836,0.5299500226974487
1750506132657500400,4.65650048828125,8.950950622558594,3.255000114440918,0.48705002665519714
1750506132667105000,4.66610498046875,8.986950874328613,3.258000135421753,0.44805002212524414
1750506132676709600,4.675709716796875,9.073050498962402,3.235950231552124,0.40800002217292786
1750506132686314200,4.685314208984375,9.23805046081543,3.235950231552124,0.3049500286579132
1750506132695918800,4.6949189453125,9.300000190734863,3.178950071334839,0.31905001401901245
1750506132705523500,4.7045234375,9.286050796508789,3.138000249862671,0.4050000309944153
1750506132715128000,4.714128173828125,9.327000617980957,3.115950107574463,0.4650000333786011
1750506132724732700,4.723732666015625,9.304950714111328,3.0949501991271973,0.5059500336647034
1750506132734337300,4.733337158203125,9.279000282287598,3.1470000743865967,0.5110500454902649
1750506132743942000,4.74294189453125,9.38895034790039,3.1330502033233643,0.4549500346183777
1750506132753546500,4.75254638671875,9.46095085144043,3.1500000953674316,0.40005001425743103
1750506132763151000,4.762151123046875,9.496950149536133,3.1470000743865967,0.30000001192092896
1750506132772755500,4.77175537109375,9.457950592041016,3.1090500354766846,0.3720000088214874
1750506132782360000,4.781360107421875,9.27405071258545,3.106950044631958,0.37905001640319824
1750506132791964700,4.790964599609375,9.171000480651855,3.1429500579833984,0.4410000145435333
1750506132801569300,4.8005693359375,9.085050582885742,3.1710002422332764,0.3930000066757202
1750506132811174000,4.810173828125,9.067950248718262,3.262050151824951,0.34800001978874207
1750506132820778500,4.819778564453125,9.147000312805176,3.3030002117156982,0.26205000281333923
1750506132830383000,4.829383056640625,9.310050010681152,3.29295015335083,0.28995001316070557
1750506132839987700,4.83898779296875,9.352950096130371,3.2340002059936523,0.3739500045776367
1750506132849592300,4.84859228515625,9.327000617980957,3.178950071334839,0.44805002212524414
1750506132859197000,4.858197021484375,9.207000732421875,3.1690502166748047,0.3739500045776367
1750506132868801500,4.867801513671875,9.103950500488281,3.2100000381469727,0.283050000667572
1750506132878406100,4.87740625,9.043950080871582,3.2500500679016113,0.1680000126361847
1750506132888010800,4.8870107421875,8.982000350952148,3.255000114440918,0.19905000925064087
1750506132897615000,4.896614990234375,8.926950454711914,3.2530500888824463,0.2639999985694885
1750506132907219700,4.9062197265625,9.063000679016113,3.235950231552124,0.3379500210285187
1750506132916824300,4.91582421875,9.17805004119873,3.2220001220703125,0.42000001668930054
1750506132926429000,4.925428955078125,9.207000732421875,3.2530500888824463,0.4120500087738037
1750506132936033500,4.935033447265625,9.352950096130371,3.2719502449035645,0.36705002188682556
1750506132945638100,4.94463818359375,9.370050430297852,3.2340002059936523,0.3550500273704529
1750506132955242800,4.95424267578125,9.396000862121582,3.175950050354004,0.41505002975463867
1750506132964847400,4.963847412109375,9.504000663757324,3.1519501209259033,0.36705002188682556
1750506132974452000,4.973451904296875,9.54900074005127,3.135000228881836,0.3739500045776367
1750506132984056600,4.983056640625,9.451050758361816,3.145050048828125,0.38100001215934753
1750506132993661200,4.9926611328125,9.315000534057617,3.118950128555298,0.47700002789497375
1750506133003265800,5.002265869140625,9.187950134277344,3.1620001792907715,0.5059500336647034
1750506133012870100,5.0118701171875,9.042000770568848,3.2290501594543457,0.4720500111579895
1750506133022474800,5.021474853515625,8.980050086975098,3.2500500679016113,0.4320000112056732
1750506133032079400,5.031079345703125,9.025050163269043,3.246000051498413,0.3960000276565552
1750506133041684000,5.04068408203125,9.098999977111816,3.207000255584717,0.4120500087738037
1750506133051288600,5.05028857421875,9.279000282287598,3.175950050354004,0.38805001974105835
1750506133060893200,5.05989306640625,9.336000442504883,3.1500000953674316,0.4030500054359436
1750506133070497800,5.069497802734375,9.283950805664062,3.1690502166748047,0.42705002427101135
1750506133080102400,5.079102294921875,9.288000106811523,3.166950225830078,0.4459500312805176
1750506133089707300,5.088707275390625,9.091950416564941,3.20205020904541,0.41505002975463867
1750506133099311600,5.0983115234375,8.994000434875488,3.246000051498413,0.4459500312805176
1750506133108916200,5.107916259765625,9.031949996948242,3.186000108718872,0.4650000333786011
1750506133118520600,5.1175205078125,9.159000396728516,3.1710002422332764,0.4650000333786011
1750506133128125400,5.12712548828125,9.217050552368164,3.1879501342773438,0.42900002002716064
1750506133137730000,5.13672998046875,9.382050514221191,3.2119500637054443,0.31905001401901245
1750506133147334700,5.146334716796875,9.43005084991455,3.262050151824951,0.28995001316070557
1750506133156939300,5.155939208984375,9.384000778198242,3.3030002117156982,0.3330000042915344
1750506133166544000,5.1655439453125,9.328950881958008,3.295950174331665,0.36000001430511475
1750506133176148500,5.1751484375,9.217050552368164,3.2500500679016113,0.38805001974105835
1750506133185753000,5.184753173828125,9.247950553894043,3.1810500621795654,0.453000009059906
1750506133195357400,5.194357421875,9.15195083618164,3.1309502124786377,0.41700002551078796
1750506133204962000,5.203962158203125,9.22605037689209,3.1879501342773438,0.36900001764297485
1750506133214566700,5.213566650390625,9.268950462341309,3.1429500579833984,0.38100001215934753
1750506133224171300,5.223171142578125,9.211950302124023,3.1690502166748047,0.4240500330924988
1750506133233775900,5.23277587890625,9.247950553894043,3.1470000743865967,0.4410000145435333
1750506133243380500,5.24238037109375,9.217050552368164,3.1020002365112305,0.48705002665519714
1750506133252985000,5.251985107421875,9.135000228881836,3.0640501976013184,0.4549500346183777
1750506133262589700,5.261589599609375,9.007950782775879,3.046950101852417,0.42705002427101135
1750506133272194300,5.2711943359375,8.970000267028809,3.0400500297546387,0.3960000276565552
1750506133281799000,5.280798828125,8.938950538635254,3.0420000553131104,0.4120500087738037
1750506133291403500,5.290403564453125,9.037050247192383,3.0400500297546387,0.3720000088214874
1750506133301008100,5.300008056640625,9.231000900268555,3.0319502353668213,0.3570000231266022
1750506133310612700,5.30961279296875,9.295950889587402,3.0300002098083496,0.38100001215934753
1750506133320217300,5.31921728515625,9.247950553894043,2.9730000495910645,0.3859500288963318
1750506133329822000,5.328822021484375,9.157050132751465,3.0010502338409424,0.41700002551078796
1750506133339426600,5.338426513671875,8.98905086517334,3.0319502353668213,0.46995002031326294
1750506133349031200,5.34803125,8.8410005569458,3.0349502563476562,0.4990500211715698
1750506133358635800,5.3576357421875,8.713950157165527,3.103950262069702,0.5580000281333923
1750506133368240000,5.367240234375,8.611050605773926,3.175950050354004,0.5700000524520874
1750506133377844700,5.3768447265625,8.43600082397461,3.223950147628784,0.5320500135421753
1750506133387449300,5.386449462890625,8.230050086975098,3.2119500637054443,0.5460000038146973
1750506133397054000,5.396053955078125,7.960050582885742,3.138000249862671,0.690000057220459
1750506133406658600,5.405658447265625,8.173049926757812,3.126000165939331,0.6780000329017639
1750506133416263200,5.41526318359375,9.391050338745117,3.126000165939331,0.8629500269889832
1750506133425867800,5.42486767578125,10.581000328063965,3.1620001792907715,0.8650500178337097
1750506133435472400,5.434472412109375,12.006000518798828,3.277050256729126,0.5440500378608704
1750506133445077000,5.444076904296875,12.766950607299805,3.4560000896453857,0.40800002217292786
1750506133454681600,5.453681640625,13.102951049804688,3.454050064086914,0.21405000984668732
1750506133464286000,5.463285888671875,14.010000228881836,3.4110002517700195,0.0799500048160553
1750506133473890600,5.472890625,15.736050605773926,3.1740002632141113,0.010050000622868538
1750506133483495200,5.4824951171875,19.04505157470703,2.5320000648498535,-0.37005001306533813
1750506133493099800,5.492099853515625,22.878000259399414,1.6840500831604004,-0.7600500583648682
1750506133502704400,5.501704345703125,25.009050369262695,0.6330000162124634,-1.0380001068115234
1750506133512309000,5.51130908203125,24.61695098876953,-0.22800001502037048,-1.3510500192642212
1750506133521913600,5.52091357421875,20.632951736450195,-0.3540000021457672,-0.45600003004074097
1750506133531518200,5.530518310546875,16.404001235961914,-0.13905000686645508,0.21105000376701355
1750506133541122800,5.540122802734375,13.608000755310059,0.6379500031471252,-0.05595000088214874
1750506133550727400,5.5497275390625,11.29995059967041,2.371950149536133,-1.4659500122070312
1750506133560332000,5.55933203125,11.197050094604492,3.2340002059936523,-2.0839500427246094
1750506133569936600,5.5689365234375,10.270050048828125,3.1999502182006836,-2.0929501056671143
1750506133579541000,5.578541015625,8.677950859069824,3.5020501613616943,-2.0380501747131348
1750506133589145600,5.5881455078125,7.999950408935547,3.195000171661377,-1.3900500535964966
1750506133598750200,5.597750244140625,6.157050132751465,3.1210501194000244,-0.9079500436782837
1750506133608354800,5.607354736328125,3.1399500370025635,3.52305006980896,-0.49605002999305725
1750506133617959400,5.61695947265625,-0.027000000700354576,4.129050254821777,-0.25905001163482666
1750506133627564000,5.62656396484375,-2.5260000228881836,5.305050373077393,-0.3820500075817108
1750506133637168600,5.636168701171875,-3.988950252532959,6.475050449371338,-0.5350500345230103
1750506133646773200,5.645773193359375,-4.413000106811523,6.88200044631958,-0.7890000343322754
1750506133656377600,5.655377685546875,-3.553950071334839,6.877950191497803,-0.7380000352859497
1750506133665982200,5.664982177734375,-2.512050151824951,6.343950271606445,-0.43695002794265747
1750506133675587000,5.674587158203125,-2.4760501384735107,6.147000312805176,-0.5160000324249268
1750506133685191700,5.684191650390625,-2.9569501876831055,6.334050178527832,-0.5370000004768372
1750506133694796000,5.693796142578125,-3.7830002307891846,6.637950420379639,-0.5490000247955322
1750506133704400600,5.703400634765625,-4.558950424194336,7.051950454711914,-0.6070500016212463
1750506133714005200,5.713005126953125,-4.813050270080566,7.25100040435791,-0.5350500345230103
1750506133723609900,5.72260986328125,-4.972950458526611,7.315950393676758,-0.30300000309944153
1750506133733214500,5.73221435546875,-5.167050361633301,7.432950496673584,-0.06105000153183937
1750506133742819000,5.741819091796875,-5.296950340270996,7.5360002517700195,0.034050002694129944
1750506133752423400,5.75142333984375,-5.19795036315918,7.534050464630127,0.0010500000789761543
1750506133762028300,5.7610283203125,-4.504050254821777,7.486050128936768,-0.22095000743865967
1750506133771632600,5.770632568359375,-3.169950246810913,7.285050392150879,-0.5010000467300415
1750506133781237200,5.7802373046875,-2.215050220489502,7.174950122833252,-0.6349500417709351
1750506133790841900,5.789841796875,-1.8889501094818115,7.402050495147705,-0.7840500473976135
1750506133800446500,5.799446533203125,-1.9609501361846924,7.90500020980835,-1.141050100326538
1750506133810051000,5.809051025390625,-1.576050043106079,8.008049964904785,-1.4089500904083252
1750506133819655700,5.81865576171875,-0.534000039100647,7.717950344085693,-1.2480000257492065
1750506133829260300,5.82826025390625,0.40605002641677856,7.062000274658203,-0.9079500436782837
1750506133838865000,5.837864990234375,1.64805006980896,6.028050422668457,-0.24495001137256622
1750506133848469500,5.847469482421875,2.991000175476074,4.89300012588501,0.46995002031326294
1750506133858073900,5.857073974609375,4.371000289916992,4.390050411224365,0.15600000321865082
1750506133867678500,5.866678466796875,6.250050067901611,4.165050029754639,0.05595000088214874
1750506133877283000,5.876282958984375,8.194050788879395,3.9160501956939697,-0.7960500121116638
1750506133886887700,5.8858876953125,10.58595085144043,4.123950004577637,-1.5310500860214233
1750506133896492300,5.8954921875,12.370050430297852,3.7080001831054688,-1.0279500484466553
1750506133906097000,5.905096923828125,12.553950309753418,3.44700026512146,-0.4339500069618225
1750506133915701500,5.914701416015625,12.207000732421875,3.106950044631958,0.5419500470161438
1750506133925306000,5.92430615234375,12.265050888061523,2.496000051498413,1.4659500122070312
1750506133934910700,5.93391064453125,13.170001029968262,2.2380001544952393,1.8439500331878662
1750506133944515300,5.943515380859375,14.473950386047363,1.8979500532150269,2.3010001182556152
1750506133954119700,5.95311962890625,14.805000305175781,2.0080502033233643,2.02905011177063
1750506133963724300,5.962724365234375,14.623050689697266,2.7910501956939697,1.144950032234192
1750506133973329000,5.972328857421875,14.653950691223145,3.1879501342773438,0.34995001554489136
1750506133982933800,5.981933837890625,14.764050483703613,3.126000165939331,0.17100000381469727
1750506133992538000,5.9915380859375,14.215950965881348,2.7520501613616943,0.6349500417709351
1750506134002143000,6.00114306640625,13.320000648498535,2.4870002269744873,1.270050048828125
1750506134011747300,6.010747314453125,12.372000694274902,2.4079501628875732,1.5210000276565552
1750506134021352000,6.02035205078125,11.665950775146484,2.737950086593628,1.228950023651123
1750506134030956500,6.02995654296875,11.707050323486328,3.2100000381469727,0.8389500379562378
1750506134040561200,6.03956103515625,12.004050254821777,3.412950277328491,0.47505003213882446
1750506134050165800,6.049165771484375,11.878950119018555,3.444000244140625,0.43905001878738403
1750506134059770400,6.058770263671875,11.368950843811035,3.4420502185821533,0.5779500007629395
1750506134069375000,6.068375,10.696050643920898,3.3510000705718994,0.7669500112533569
1750506134078979300,6.077979248046875,9.898950576782227,3.424950122833252,0.7309500575065613
1750506134088584200,6.087584228515625,9.276000022888184,3.6289501190185547,0.3960000276565552
1750506134098188500,6.0971884765625,9.031949996948242,3.9090001583099365,-0.019950000569224358
1750506134107793200,6.106793212890625,9.147000312805176,4.033050060272217,-0.1660500019788742
1750506134117397800,6.116397705078125,9.331950187683105,3.949050188064575,-0.003000000026077032
1750506134127002400,6.12600244140625,9.463050842285156,3.7219502925872803,0.27105000615119934
1750506134136607000,6.13560693359375,9.40095043182373,3.574050188064575,0.5250000357627869
1750506134146211600,6.145211669921875,9.027000427246094,3.5329501628875732,0.6370500326156616
1750506134155816200,6.154816162109375,8.653950691223145,3.5809502601623535,0.48900002241134644
1750506134165420800,6.1644208984375,8.616000175476074,3.7270500659942627,0.30705001950263977
1750506134175025200,6.174025146484375,8.68005084991455,3.7770001888275146,0.13905000686645508
1750506134184630000,6.183630126953125,8.704050064086914,3.7890002727508545,0.05100000277161598
1750506134194234400,6.193234375,8.789999961853027,3.8269500732421875,-0.04200000315904617
1750506134203839000,6.2028388671875,8.805000305175781,3.7219502925872803,0.07695000618696213
1750506134213443300,6.212443359375,8.902950286865234,3.6259500980377197,0.21105000376701355
1750506134223048200,6.222048095703125,9.027000427246094,3.5590500831604004,0.28995001316070557
1750506134232652800,6.23165283203125,9.241050720214844,3.574050188064575,0.25200000405311584
1750506134242257400,6.24125732421875,9.38700008392334,3.5880000591278076,0.25200000405311584
1750506134251862000,6.250862060546875,9.43695068359375,3.5689501762390137,0.18000000715255737
1750506134261466400,6.26046630859375,9.352950096130371,3.624000072479248,0.10605000704526901
1750506134271071000,6.270071044921875,9.123000144958496,3.616950273513794,0.1469999998807907
1750506134280675600,6.279675537109375,8.968050003051758,3.5880000591278076,0.2160000056028366
1750506134290280200,6.2892802734375,8.896050453186035,3.574050188064575,0.28095000982284546
1750506134299884500,6.298884521484375,8.994000434875488,3.5899500846862793,0.22995001077651978
1750506134309489400,6.308489501953125,9.219000816345215,3.556950092315674,0.27105000615119934
1750506134319094000,6.318093994140625,9.472949981689453,3.5209500789642334,0.3450000286102295
1750506134328698400,6.327698486328125,9.643050193786621,3.432000160217285,0.42195001244544983
1750506134338303200,6.33730322265625,9.621000289916992,3.372000217437744,0.47895002365112305
1750506134347907800,6.346907958984375,9.360000610351562,3.3799500465393066,0.47700002789497375
1750506134357512400,6.356512451171875,9.042000770568848,3.4900500774383545,0.3360000252723694
1750506134367116800,6.36611669921875,8.842950820922852,3.624000072479248,0.2659500241279602
1750506134376721400,6.375721435546875,8.728050231933594,3.7200002670288086,0.23805001378059387
1750506134386326000,6.385325927734375,8.752050399780273,3.744000196456909,0.1969500035047531
1750506134395930600,6.3949306640625,8.925000190734863,3.7200002670288086,0.2569500207901001
1750506134405535500,6.404535400390625,8.96505069732666,3.66195011138916,0.39795002341270447
1750506134415139800,6.414139892578125,8.785950660705566,3.564000129699707,0.5149500370025635
1750506134424744400,6.423744384765625,8.695050239562988,3.4990501403808594,0.5509500503540039
1750506134434349000,6.43334912109375,8.557950019836426,3.516000270843506,0.5080500245094299
1750506134443953700,6.44295361328125,8.565000534057617,3.5689501762390137,0.34800001978874207
1750506134453558300,6.452558349609375,8.68005084991455,3.6690001487731934,0.13905000686645508
1750506134463162600,6.46216259765625,8.644050598144531,3.765000104904175,0.0990000069141388
1750506134472767500,6.471767578125,8.665950775146484,3.765000104904175,0.1469999998807907
1750506134482371800,6.481371826171875,8.725950241088867,3.7390501499176025,0.16095000505447388
1750506134491976400,6.4909765625,8.860050201416016,3.700050115585327,0.14400000870227814
1750506134501581000,6.5005810546875,9.195000648498535,3.676950216293335,0.17295001447200775
1750506134511185700,6.510185546875,9.502050399780273,3.6000001430511475,0.25905001163482666
1750506134520790300,6.519790283203125,9.609000205993652,3.595050096511841,0.2950500249862671
1750506134530395000,6.529394775390625,9.535050392150879,3.6000001430511475,0.325950026512146
1750506134539999500,6.53899951171875,9.577950477600098,3.6450002193450928,0.28995001316070557
1750506134549604000,6.54860400390625,9.624000549316406,3.6739501953125,0.2760000228881836
1750506134559208700,6.558208740234375,9.601950645446777,3.6790502071380615,0.22095000743865967
1750506134568813000,6.56781298828125,9.577950477600098,3.681000232696533,0.17805001139640808
1750506134578417700,6.577417724609375,9.41100025177002,3.696000099182129,0.17100000381469727
1750506134588022300,6.587022216796875,9.276000022888184,3.6739501953125,0.30195000767707825
1750506134597627000,6.596626953125,9.253050804138184,3.6690001487731934,0.3330000042915344
1750506134607231500,6.6062314453125,9.231000900268555,3.693000078201294,0.3169500231742859
1750506134616835800,6.6158359375,9.159000396728516,3.705000162124634,0.35295000672340393
1750506134626440700,6.625440673828125,8.860050201416016,3.6310501098632812,0.41505002975463867
1750506134636045300,6.63504541015625,8.68005084991455,3.6670501232147217,0.3960000276565552
1750506134645650000,6.64464990234375,8.794950485229492,3.6000001430511475,0.31905001401901245
1750506134655254300,6.654254150390625,9.055950164794922,3.5880000591278076,0.2569500207901001
1750506134664859000,6.66385888671875,9.169050216674805,3.5689501762390137,0.24000000953674316
1750506134674463500,6.67346337890625,9.042000770568848,3.5689501762390137,0.32895001769065857
1750506134684068000,6.683068115234375,8.842950820922852,3.5659501552581787,0.364950031042099
1750506134693672700,6.692672607421875,8.769000053405762,3.6090002059936523,0.38100001215934753
1750506134703277300,6.70227734375,8.898000717163086,3.6379501819610596,0.31905001401901245
1750506134712881700,6.711881591796875,9.054000854492188,3.6289501190185547,0.2850000262260437
1750506134722486300,6.721486328125,9.157050132751465,3.5470502376556396,0.36195001006126404
1750506134732091000,6.7310908203125,9.181050300598145,3.4590001106262207,0.4819500148296356
1750506134741695500,6.740695556640625,9.217050552368164,3.424950122833252,0.5419500470161438
1750506134751300000,6.750300048828125,9.279000282287598,3.4680001735687256,0.4459500312805176
1750506134760904700,6.75990478515625,9.23805046081543,3.4830002784729004,0.3840000033378601
1750506134770509000,6.769509033203125,9.10200023651123,3.553950071334839,0.3360000252723694
1750506134780114000,6.779114013671875,9.067950248718262,3.5620501041412354,0.27105000615119934
1750506134789718500,6.788718505859375,8.970000267028809,3.5470502376556396,0.3139500021934509
1750506134799323000,6.798322998046875,8.94795036315918,3.5880000591278076,0.41505002975463867
1750506134808927500,6.807927490234375,9.061050415039062,3.541950225830078,0.5059500336647034
1750506134818532000,6.817531982421875,9.087000846862793,3.5470502376556396,0.4990500211715698
1750506134828136400,6.827136474609375,9.103950500488281,3.5689501762390137,0.48405003547668457
1750506134837741000,6.836740966796875,9.082950592041016,3.5929501056671143,0.3840000033378601
1750506134847345700,6.846345703125,8.98905086517334,3.6409502029418945,0.2880000174045563
1750506134856950500,6.855950439453125,8.9170503616333,3.724050283432007,0.1489500105381012
1750506134866555000,6.865554931640625,8.958000183105469,3.693000078201294,0.0990000069141388
1750506134876159700,6.87515966796875,9.022950172424316,3.664950132369995,0.19200000166893005
1750506134885764000,6.88476416015625,9.118050575256348,3.58305025100708,0.25394999980926514
1750506134895368700,6.89436865234375,9.244950294494629,3.576000213623047,0.31200000643730164
1750506134904973300,6.903973388671875,9.231000900268555,3.574050188064575,0.325950026512146
1750506134914578000,6.913577880859375,9.17400074005127,3.5500502586364746,0.38805001974105835
1750506134924182300,6.923182373046875,9.082950592041016,3.495000123977661,0.41700002551078796
1750506134933787100,6.932787109375,9.055950164794922,3.4230000972747803,0.4120500087738037
1750506134943391500,6.9423916015625,9.079950332641602,3.492000102996826,0.2779500186443329
1750506134952996000,6.95199609375,9.046950340270996,3.5380501747131348,0.21405000984668732
1750506134962600700,6.9616005859375,9.015000343322754,3.495000123977661,0.22305001318454742
1750506134972205300,6.971205322265625,8.970000267028809,3.475050210952759,0.2659500241279602
1750506134981810000,6.980809814453125,8.995950698852539,3.4900500774383545,0.3330000042915344
1750506134991414500,6.99041455078125,8.97705078125,3.526050090789795,0.35295000672340393
1750506135001019100,7.00001904296875,8.95995044708252,3.564000129699707,0.34995001554489136
1750506135010623700,7.009623779296875,9.010950088500977,3.5929501056671143,0.3360000252723694
1750506135020228000,7.01922802734375,9.097050666809082,3.5689501762390137,0.25905001163482666
1750506135029832700,7.028832763671875,9.17400074005127,3.576000213623047,0.2569500207901001
1750506135039437300,7.038437255859375,9.319950103759766,3.511050224304199,0.25200000405311584
1750506135049042000,7.0480419921875,9.442049980163574,3.5020501613616943,0.2689500153064728
1750506135058646500,7.057646484375,9.43695068359375,3.507000207901001,0.31200000643730164
1750506135068251100,7.067251220703125,9.291000366210938,3.5089502334594727,0.36900001764297485
1750506135077855700,7.076855712890625,9.082950592041016,3.52305006980896,0.42900002002716064
1750506135087460000,7.086460205078125,8.998950004577637,3.5689501762390137,0.47700002789497375
1750506135097064700,7.096064697265625,8.998950004577637,3.553950071334839,0.453000009059906
1750506135106669300,7.10566943359375,9.025050163269043,3.5380501747131348,0.4410000145435333
1750506135116274000,7.11527392578125,9.034950256347656,3.5209500789642334,0.4939500093460083
1750506135125878500,7.12487841796875,9.042000770568848,3.4609501361846924,0.4120500087738037
1750506135135483100,7.134483154296875,9.015000343322754,3.4489500522613525,0.3739500045776367
1750506135145087500,7.14408740234375,8.850000381469727,3.544950246810913,0.23805001378059387
1750506135154692400,7.1536923828125,8.6850004196167,3.5899500846862793,0.19500000774860382
1750506135164296700,7.163296630859375,8.656050682067871,3.616950273513794,0.19500000774860382
1750506135173901300,7.1729013671875,8.782950401306152,3.595050096511841,0.23295001685619354
1750506135183506000,7.182505859375,8.986950874328613,3.5209500789642334,0.2950500249862671
1750506135193110500,7.192110595703125,9.051000595092773,3.454050064086914,0.38100001215934753
1750506135202715100,7.201715087890625,8.860050201416016,3.3990001678466797,0.40995001792907715
1750506135212319700,7.21131982421875,8.802000045776367,3.4870500564575195,0.3049500286579132
1750506135221924400,7.22092431640625,8.704050064086914,3.553950071334839,0.18300001323223114
1750506135231528700,7.23052880859375,8.743050575256348,3.553950071334839,0.15105000138282776
1750506135241133300,7.24013330078125,8.92905044555664,3.5590500831604004,0.2179500162601471
1750506135250738000,7.249738037109375,9.288000106811523,3.4800002574920654,0.3570000231266022
1750506135260342500,7.259342529296875,9.621000289916992,3.406050205230713,0.5539500117301941
1750506135269947100,7.268947021484375,9.613950729370117,3.4200000762939453,0.703950047492981
1750506135279551700,7.2785517578125,9.42495059967041,3.427950143814087,0.7999500632286072
1750506135289156400,7.28815625,9.331950187683105,3.4780502319335938,0.9460500478744507
1750506135298760700,7.2977607421875,9.523050308227539,3.6739501953125,0.7999500632286072
1750506135308365300,7.307365234375,11.11305046081543,3.873000144958496,-0.07304999977350235
1750506135317970000,7.316969970703125,14.995950698852539,3.9400501251220703,-0.8800500631332397
1750506135327574500,7.326574462890625,20.75895118713379,2.877000093460083,-1.075950026512146
1750506135337179100,7.33617919921875,26.24505043029785,1.456950068473816,-0.2670000195503235
1750506135346783500,7.345783447265625,27.48495101928711,-0.5680500268936157,0.5779500007629395
1750506135356388400,7.355388427734375,25.483051300048828,-0.8479500412940979,1.0999500751495361
1750506135365993000,7.364992919921875,22.644001007080078,-0.5440500378608704,0.3360000252723694
1750506135375597300,7.374597412109375,22.468950271606445,0.18300001323223114,-1.3729500770568848
1750506135385202000,7.384201904296875,21.091951370239258,0.45900002121925354,-2.3110501766204834
1750506135394806500,7.393806640625,17.402999877929688,1.057050108909607,-3.1680002212524414
1750506135404411100,7.4034111328125,14.17500114440918,1.8660000562667847,-2.955000162124634
1750506135414015700,7.413015625,10.192950248718262,2.047950029373169,-2.115000009536743
1750506135423620000,7.4226201171875,6.418050289154053,2.7910501956939697,-1.0900501012802124
1750506135433225000,7.432224853515625,3.6000001430511475,3.0229501724243164,0.14400000870227814
1750506135442829300,7.441829345703125,0.11805000901222229,3.5179500579833984,0.931950032711029
1750506135452434000,7.451433837890625,-2.4780001640319824,4.363950252532959,1.2049500942230225
1750506135462038500,7.46103857421875,-3.6130502223968506,4.8259501457214355,1.1190000772476196
1750506135471643000,7.470642822265625,-3.5080502033233643,5.194050312042236,0.8820000290870667
1750506135481247700,7.480247802734375,-2.9980502128601074,4.969050407409668,0.89805006980896
1750506135490852400,7.489852294921875,-3.7549502849578857,5.008050441741943,0.6520500183105469
1750506135500456700,7.499456787109375,-4.690950393676758,5.428950309753418,0.453000009059906
1750506135510061300,7.509061279296875,-5.347050189971924,5.800050258636475,0.2689500153064728
1750506135519666000,7.518666015625,-6.127050399780273,6.298050403594971,0.07005000114440918
1750506135529270500,7.5282705078125,-6.718950271606445,6.621000289916992,0.039000000804662704
1750506135538875100,7.537875244140625,-6.673050403594971,6.906000137329102,-0.4650000333786011
1750506135548479500,7.5474794921875,-6.135000228881836,7.2870001792907715,-1.1239500045776367
1750506135558084400,7.55708447265625,-5.584050178527832,7.543050289154053,-1.453950047492981
1750506135567688700,7.566688720703125,-5.289000034332275,7.486050128936768,-1.3339500427246094
1750506135577293300,7.576293212890625,-5.46405029296875,7.603050231933594,-1.270050048828125
1750506135586898000,7.58589794921875,-5.814000129699707,7.780050277709961,-1.1569499969482422
1750506135596502500,7.59550244140625,-5.799000263214111,7.761000156402588,-1.0470000505447388
1750506135606107100,7.605107177734375,-5.742000102996826,7.752000331878662,-0.9079500436782837
1750506135615711700,7.614711669921875,-5.538000106811523,7.576950550079346,-0.7219500541687012
1750506135625316000,7.624316162109375,-4.942050457000732,7.522050380706787,-0.609000027179718
1750506135634920700,7.633920654296875,-4.011000156402588,7.507050514221191,-0.62295001745224
1750506135644525300,7.643525390625,-3.223050117492676,7.600950241088867,-0.9300000667572021
1750506135654130000,7.6531298828125,-1.686000108718872,7.444950580596924,-0.7860000133514404
1750506135663734500,7.662734619140625,0.0799500048160553,6.565950393676758,-0.19200000166893005
1750506135673339100,7.672339111328125,1.609950065612793,5.764050483703613,0.534000039100647
1750506135682943500,7.681943603515625,2.617950201034546,5.500950336456299,0.5080500245094299
1750506135692548000,7.691548095703125,2.493000030517578,5.772000312805176,0.283050000667572
1750506135702152700,7.701152587890625,2.31600022315979,6.423000335693359,-0.6739500164985657
1750506135711757300,7.71075732421875,3.4870500564575195,6.235950469970703,-1.1640000343322754
1750506135721362000,7.72036181640625,5.047950267791748,5.127000331878662,-0.3460500240325928
1750506135730966500,7.729966552734375,5.6010003089904785,4.114950180053711,0.41505002975463867
1750506135740571100,7.739571044921875,5.665950298309326,3.372000217437744,1.1329500675201416
1750506135750175500,7.749175537109375,6.504000186920166,2.7930002212524414,-0.013050000183284283
1750506135759780000,7.758780029296875,10.540950775146484,3.2500500679016113,-1.665000081062317
1750506135769384700,7.768384765625,15.289051055908203,2.4940500259399414,-1.0969500541687012
1750506135778989300,7.7779892578125,17.652000427246094,1.6390501260757446,0.5080500245094299
1750506135788594000,7.787593994140625,17.49795150756836,1.2220500707626343,2.485950231552124
1750506135798198500,7.797198486328125,14.755050659179688,1.2370500564575195,3.312000274658203
1750506135807803000,7.806802978515625,11.920050621032715,2.0820000171661377,2.4310500621795654
1750506135817407500,7.816407470703125,12.016050338745117,2.998950242996216,0.6330000162124634
1750506135827012000,7.82601220703125,15.019950866699219,3.3169500827789307,-0.8080500364303589
1750506135836616700,7.83561669921875,18.075000762939453,2.806950092315674,-0.6160500049591064
1750506135846221300,7.84522119140625,19.189050674438477,2.0340001583099365,0.7860000133514404
1750506135855826000,7.854825927734375,17.713951110839844,1.596000075340271,2.203050136566162
1750506135865430500,7.864430419921875,15.15195083618164,1.7010000944137573,2.7559502124786377
1750506135875035100,7.87403515625,13.474050521850586,2.427000045776367,1.9729501008987427
1750506135884639500,7.883639404296875,12.12600040435791,3.283950090408325,0.9030000567436218
1750506135894244000,7.893244140625,10.82295036315918,4.000050067901611,0.10095000267028809
1750506135903848700,7.9028486328125,9.934950828552246,4.438050270080566,-0.1680000126361847
1750506135913453300,7.912453369140625,9.20205020904541,4.546050071716309,-0.031950000673532486
1750506135923057700,7.9220576171875,8.860050201416016,4.5169501304626465,0.2160000056028366
1750506135932662300,7.931662353515625,9.121050834655762,4.404000282287598,0.49605002999305725
1750506135942267000,7.941266845703125,9.442049980163574,4.189050197601318,0.6660000085830688
1750506135951871500,7.95087158203125,9.69105052947998,4.096050262451172,0.6420000195503235
1750506135961476000,7.96047607421875,9.766950607299805,3.9160501956939697,0.6400500535964966
1750506135971080700,7.970080810546875,9.52500057220459,3.8749501705169678,0.6540000438690186
1750506135980685300,7.979685302734375,8.998950004577637,3.9880502223968506,0.5110500454902649
1750506135990290000,7.9892900390625,8.596050262451172,4.11899995803833,0.28095000982284546
1750506135999894300,7.998894287109375,8.32395076751709,4.330049991607666,-0.11100000888109207
1750506136009499000,8.008498779296875,8.520000457763672,4.447050094604492,-0.29805001616477966
1750506136019103500,8.018103515625,8.794950485229492,4.261050224304199,-0.22095000743865967
1750506136028708000,8.0277080078125,8.902950286865234,4.05495023727417,0.0010500000789761543
1750506136038312700,8.037312744140625,9.030000686645508,3.8560502529144287,0.31200000643730164
1750506136047917000,8.0469169921875,8.932050704956055,3.7699501514434814,0.4819500148296356
1750506136057521700,8.056521728515625,8.8410005569458,3.8419501781463623,0.364950031042099
1750506136067126300,8.066126220703126,8.755050659179688,4.024050235748291,0.1969500035047531
1750506136076731000,8.07573095703125,8.665950775146484,4.134000301361084,0.010050000622868538
1750506136086335500,8.08533544921875,8.85300064086914,4.267950057983398,-0.23805001378059387
1750506136095940000,8.094940185546875,8.872050285339355,4.261050224304199,-0.23295001685619354
1750506136105544700,8.104544677734374,8.85300064086914,4.07895040512085,0.031950000673532486
1750506136115149000,8.114149169921875,8.958000183105469,3.8389501571655273,0.2850000262260437
1750506136124753700,8.123753662109374,9.027000427246094,3.753000259399414,0.4410000145435333
1750506136134358300,8.133358154296875,9.031949996948242,3.772050142288208,0.41505002975463867
1750506136143963000,8.142962890625,9.013050079345703,3.8419501781463623,0.34095001220703125
1750506136153567200,8.152567138671875,8.88900089263916,3.9160501956939697,0.2689500153064728
1750506136163171800,8.162171875,8.87700080871582,3.9210002422332764,0.1469999998807907
1750506136172776400,8.1717763671875,8.970000267028809,3.949050188064575,0.1080000028014183
1750506136182381000,8.181381103515625,9.067950248718262,3.850950241088867,0.17295001447200775
1750506136191985700,8.190985595703125,9.154050827026367,3.7200002670288086,0.33105000853538513
1750506136201590000,8.200590087890625,9.118050575256348,3.6690001487731934,0.42900002002716064
1750506136211194600,8.210194580078126,9.058950424194336,3.765000104904175,0.48405003547668457
1750506136220799200,8.21979931640625,9.067950248718262,3.705000162124634,0.5250000357627869
1750506136230403800,8.22940380859375,9.15195083618164,3.6690001487731934,0.5539500117301941
1750506136240008400,8.239008544921875,9.147000312805176,3.6289501190185547,0.5299500226974487
1750506136249613000,8.248613037109376,9.027000427246094,3.613950252532959,0.4909500181674957
1750506136259217700,8.2582177734375,8.836050033569336,3.6979501247406006,0.41505002975463867
1750506136268822000,8.267822021484376,8.800050735473633,3.703050136566162,0.38100001215934753
1750506136278426600,8.277426513671875,8.845050811767578,3.793950080871582,0.34800001978874207
1750506136288031200,8.28703125,8.938950538635254,3.7600502967834473,0.40005001425743103
1750506136297635600,8.296635498046875,8.94795036315918,3.712050199508667,0.46995002031326294
1750506136307240200,8.306240234375,8.968050003051758,3.705000162124634,0.5460000038146973
1750506136316844800,8.3158447265625,9.079950332641602,3.6570000648498535,0.5659500360488892
1750506136326449700,8.32544970703125,9.22095012664795,3.6379501819610596,0.5680500268936157
1750506136336054000,8.335053955078125,9.407999992370605,3.6979501247406006,0.5850000381469727
1750506136345658400,8.344658447265624,9.53700065612793,3.6670501232147217,0.5059500336647034
1750506136355263000,8.354262939453125,9.672000885009766,3.8419501781463623,0.36705002188682556
1750506136364867300,8.363867431640625,9.636000633239746,3.933000087738037,0.34095001220703125
1750506136374472200,8.37347216796875,9.44895076751709,3.9060001373291016,0.3840000033378601
1750506136384076800,8.383076904296875,9.157050132751465,3.8970000743865967,0.43605002760887146
1750506136393681400,8.392681396484376,8.886000633239746,3.949050188064575,0.4030500054359436
1750506136403285800,8.40228564453125,8.63700008392334,4.021049976348877,0.31905001401901245
1750506136412890400,8.411890380859376,8.479050636291504,4.084050178527832,0.30000001192092896
1750506136422495000,8.421494873046875,8.37405014038086,4.0570502281188965,0.22305001318454742
1750506136432099600,8.431099609375,8.42400074005127,4.096050262451172,0.23295001685619354
1750506136441704200,8.4407041015625,8.431050300598145,4.06695032119751,0.2779500186443329
1750506136451308500,8.45030859375,8.482049942016602,4.014000415802002,0.24705001711845398
1750506136460913200,8.4599130859375,8.592000007629395,4.04295015335083,0.22995001077651978
1750506136470517800,8.469517822265624,8.733000755310059,4.027950286865234,0.2179500162601471
1750506136480122000,8.4791220703125,8.842950820922852,3.973050117492676,0.2160000056028366
1750506136489726700,8.488726806640624,8.944050788879395,3.90405011177063,0.32100000977516174
1750506136499331300,8.498331298828125,9.111000061035156,3.885000228881836,0.3379500210285187
1750506136508936000,8.50793603515625,9.27405071258545,3.8179502487182617,0.3930000066757202
1750506136518540500,8.51754052734375,9.303000450134277,3.787050247192383,0.4600500166416168
1750506136528145000,8.527144775390624,9.207000732421875,3.733950138092041,0.5179499983787537
1750506136537749500,8.53674951171875,9.157050132751465,3.7510502338409424,0.5580000281333923
1750506136547354400,8.546354248046875,9.091950416564941,3.790950298309326,0.4990500211715698
1750506136556958700,8.555958740234376,9.07800006866455,3.802950143814087,0.43905001878738403
1750506136566563300,8.565563232421875,9.091950416564941,3.8370001316070557,0.3859500288963318
1750506136576168000,8.57516796875,9.15195083618164,3.8389501571655273,0.38100001215934753
1750506136585772500,8.5847724609375,9.109050750732422,3.8230502605438232,0.4819500148296356
1750506136595377000,8.594376953125,8.932050704956055,3.703050136566162,0.597000002861023
1750506136604981500,8.6039814453125,8.731050491333008,3.6880502700805664,0.6280500292778015
1750506136614586000,8.613586181640626,8.68005084991455,3.715050220489502,0.5659500360488892
1750506136624190700,8.623190673828125,8.668050765991211,3.8230502605438232,0.42705002427101135
1750506136633795300,8.63279541015625,8.64900016784668,3.9210002422332764,0.31200000643730164
1750506136643399700,8.642399658203125,8.746950149536133,3.945000171661377,0.3240000009536743
1750506136653004300,8.65200439453125,8.845050811767578,3.8899502754211426,0.4030500054359436
1750506136662609000,8.66160888671875,8.998950004577637,3.8299500942230225,0.43905001878738403
1750506136672213500,8.671213623046874,9.103950500488281,3.7579500675201416,0.5250000357627869
1750506136681818000,8.680818115234375,9.17400074005127,3.7320001125335693,0.5629500150680542
1750506136691422500,8.69042236328125,9.22605037689209,3.7770001888275146,0.48900002241134644
1750506136701027000,8.700027099609375,9.268950462341309,3.832050085067749,0.36000001430511475
1750506136710631700,8.709631591796875,9.223950386047363,3.882000207901001,0.2689500153064728
1750506136720236300,8.719236328125,9.181050300598145,3.95205020904541,0.2569500207901001
1750506136729841000,8.7288408203125,9.065999984741211,3.882000207901001,0.3570000231266022
1750506136739445500,8.738445556640626,8.92905044555664,3.8869502544403076,0.42900002002716064
1750506136749049900,8.7480498046875,8.781000137329102,3.8179502487182617,0.44805002212524414
1750506136758654500,8.757654541015626,8.789999961853027,3.862950086593628,0.4120500087738037
1750506136768259000,8.767259033203125,8.707050323486328,3.892050266265869,0.3960000276565552
1750506136777863400,8.776863525390626,8.709000587463379,3.925950288772583,0.364950031042099
1750506136787468300,8.78646826171875,8.794950485229492,3.9930002689361572,0.3430500030517578
1750506136797072600,8.79607275390625,8.896050453186035,3.9810001850128174,0.2850000262260437
1750506136806677200,8.80567724609375,9.001049995422363,3.9589502811431885,0.2779500186443329
1750506136816281900,8.81528173828125,9.043950080871582,3.913950204849243,0.3360000252723694
1750506136825886500,8.824886474609375,8.96505069732666,3.8370001316070557,0.4510500133037567
1750506136835490800,8.83449072265625,8.998950004577637,3.7990500926971436,0.5299500226974487
1750506136845095400,8.844095458984375,8.992050170898438,3.802950143814087,0.49605002999305725
1750506136854700000,8.853699951171874,9.070950508117676,3.8419501781463623,0.4339500069618225
1750506136864304600,8.8633046875,9.087000846862793,3.892050266265869,0.36900001764297485
1750506136873909200,8.8729091796875,9.075000762939453,3.894000291824341,0.3739500045776367
1750506136883513600,8.882513671875,8.995950698852539,3.8800501823425293,0.42195001244544983
1750506136893118200,8.8921181640625,8.982000350952148,3.832050085067749,0.43905001878738403
1750506136902722800,8.901722900390626,8.938950538635254,3.805950164794922,0.4510500133037567
1750506136912327400,8.911327392578125,8.826000213623047,3.8230502605438232,0.44805002212524414
1750506136921932000,8.92093212890625,8.862000465393066,3.825000286102295,0.42705002427101135
1750506136931536600,8.93053662109375,8.773950576782227,3.853950262069702,0.364950031042099
1750506136941141200,8.940141357421876,8.806950569152832,3.8779501914978027,0.36195001006126404
1750506136950745600,8.94974560546875,8.893050193786621,3.8179502487182617,0.4050000309944153
1750506136960350200,8.95935009765625,8.913000106811523,3.813000202178955,0.4510500133037567
1750506136969954800,8.968954833984375,9.015000343322754,3.7669501304626465,0.4549500346183777
1750506136979559400,8.978559326171874,9.127950668334961,3.763050079345703,0.3840000033378601
1750506136989164000,8.9881640625,9.196950912475586,3.765000104904175,0.3739500045776367
1750506136998768400,8.997768310546874,9.187950134277344,3.7579500675201416,0.36900001764297485
1750506137008373000,9.007373046875,9.111000061035156,3.765000104904175,0.36900001764297485
1750506137017977600,9.0169775390625,9.082950592041016,3.8299500942230225,0.32895001769065857
1750506137027582200,9.026582275390625,9.087000846862793,3.8080501556396484,0.38100001215934753
1750506137037186600,9.0361865234375,9.051000595092773,3.775050163269043,0.43605002760887146
1750506137046791200,9.045791259765625,9.019950866699219,3.7390501499176025,0.4600500166416168
1750506137056395800,9.055395751953125,9.001049995422363,3.753000259399414,0.41505002975463867
1750506137066000400,9.06500048828125,8.980050086975098,3.7819502353668213,0.40995001792907715
1750506137075605000,9.07460498046875,8.92905044555664,3.8110501766204834,0.38805001974105835
1750506137085209300,9.084209228515626,8.93595027923584,3.7990500926971436,0.42000001668930054
1750506137094814000,9.09381396484375,8.920050621032715,3.7789502143859863,0.5059500336647034
1750506137104418600,9.10341845703125,8.890950202941895,3.784050226211548,0.5250000357627869
1750506137114023200,9.113023193359375,8.896050453186035,3.844050168991089,0.5370000004768372
1750506137123627500,9.12262744140625,8.86500072479248,3.894000291824341,0.5230500102043152
1750506137133232000,9.132232177734375,8.817000389099121,3.922950267791748,0.5460000038146973
1750506137142836500,9.14183642578125,8.64900016784668,3.9019501209259033,0.5940000414848328
1750506137152441300,9.15144140625,8.449950218200684,3.942000150680542,0.5989500284194946
1750506137162045700,9.161045654296874,8.359050750732422,4.060050010681152,0.5779500007629395
1750506137171650300,9.170650390625,8.766000747680664,4.276950359344482,0.20205001533031464
1750506137181255000,9.1802548828125,10.332000732421875,4.3969502449035645,-0.12300000339746475
1750506137190859500,9.189859619140625,12.775050163269043,3.9469501972198486,0.034050002694129944
1750506137200464000,9.1994638671875,14.640000343322754,3.495000123977661,0.31200000643730164
1750506137210068500,9.209068359375,15.997050285339355,2.635050058364868,0.7000500559806824
1750506137219672800,9.2186728515625,17.09895133972168,1.7320500612258911,0.597000002861023
1750506137229277700,9.228277587890625,18.643051147460938,2.001000165939331,0.015000000596046448
1750506137238882300,9.23788232421875,20.88195037841797,1.579050064086914,-0.9390000700950623
1750506137248486700,9.247486572265625,22.834951400756836,0.8059500455856323,-1.1910001039505005
1750506137258091300,9.25709130859375,22.699050903320312,0.6409500241279602,-1.3750500679016113
1750506137267695900,9.26669580078125,20.197050094604492,0.3679500222206116,-1.0609500408172607
1750506137277300200,9.27630029296875,16.687049865722656,0.7960500121116638,-1.4299501180648804
1750506137286904800,9.28590478515625,14.350050926208496,2.5030500888824463,-2.764050245285034
1750506137296509400,9.295509521484375,11.383050918579102,3.942000150680542,-3.561000108718872
1750506137306114300,9.3051142578125,9.492000579833984,4.870950222015381,-3.8650500774383545
1750506137315718700,9.31471875,8.850000381469727,4.315950393676758,-2.0789999961853027
1750506137325323000,9.324322998046876,5.7109503746032715,3.705000162124634,-0.10605000704526901
1750506137334927600,9.333927734375,2.0410501956939697,3.933000087738037,1.1230500936508179
1750506137344532200,9.3435322265625,-0.5940000414848328,4.6459503173828125,1.6960500478744507
1750506137354136800,9.35313671875,-2.9790000915527344,5.599050045013428,1.519050121307373
1750506137363741200,9.3627412109375,-4.497000217437744,6.565950393676758,1.0249500274658203
1750506137373345800,9.372345703125,-5.524050235748291,7.131000518798828,0.8239500522613525
1750506137382950400,9.381950439453124,-6.475050449371338,7.503000259399414,0.5299500226974487
1750506137392555000,9.391554931640625,-6.7860002517700195,7.618050575256348,0.3910500109195709
1750506137402159600,9.40115966796875,-6.232950210571289,7.420950412750244,0.13695000112056732
1750506137411764000,9.410763916015625,-5.4810004234313965,7.297050476074219,-0.09195000678300858
1750506137421368600,9.42036865234375,-5.0809502601623535,7.395000457763672,-0.5590500235557556
1750506137430973200,9.42997314453125,-4.762950420379639,7.692000389099121,-0.8650500178337097
1750506137440577800,9.439577880859375,-5.059950351715088,7.914000511169434,-1.0519500970840454
1750506137450182400,9.449182373046876,-5.6770501136779785,8.116050720214844,-0.8989500403404236
1750506137459786800,9.458786865234375,-6.3760504722595215,8.371950149536133,-0.8010000586509705
1750506137469391400,9.468391357421876,-7.059000492095947,8.680950164794922,-0.7810500264167786
1750506137478996000,9.477995849609375,-7.111050128936768,8.725950241088867,-0.8440500497817993
1750506137488600600,9.4876005859375,-6.355050086975098,8.403000831604004,-0.8050500154495239
1750506137498205200,9.497205078125,-5.179050445556641,7.941000461578369,-0.7219500541687012
1750506137507809500,9.5068095703125,-4.126049995422363,7.660950183868408,-1.002000093460083
1750506137517414100,9.5164140625,-3.5269501209259033,7.540950298309326,-1.1839500665664673
1750506137527018800,9.526018798828124,-3.034050226211548,7.549950122833252,-1.39395010471344
1750506137536623400,9.535623291015625,-2.5530002117156982,7.455000400543213,-1.5280500650405884
1750506137546228000,9.54522802734375,-1.5660001039505005,6.937950134277344,-1.437000036239624
1750506137555832300,9.554832275390625,-0.24495001137256622,6.423000335693359,-0.9300000667572021
1750506137565437000,9.56443701171875,0.8010000586509705,5.6449503898620605,-0.325950026512146
1750506137575041500,9.57404150390625,1.6410000324249268,4.503000259399414,0.6180000305175781
1750506137584646100,9.583646240234375,2.7229502201080322,3.3130502700805664,0.8740500211715698
1750506137594250500,9.59325048828125,5.674950122833252,1.9669500589370728,1.01295006275177
1750506137603855000,9.602855224609375,9.433950424194336,0.6649500131607056,1.5619500875473022
1750506137613459700,9.612459716796875,12.540000915527344,0.3960000276565552,0.8959500193595886
1750506137623064000,9.62206396484375,15.18600082397461,0.8610000610351562,0.8050500154495239
1750506137632668700,9.631668701171876,15.730950355529785,1.0999500751495361,0.9630000591278076
1750506137642273300,9.641273193359375,15.925050735473633,1.1770501136779785,0.6709500551223755
1750506137651878000,9.6508779296875,16.165050506591797,1.4710500240325928,0.8410500288009644
1750506137661482500,9.660482421875,15.585000991821289,1.894950032234192,0.8290500640869141
1750506137671087000,9.670087158203126,14.902950286865234,1.9690500497817993,1.1230500936508179
1750506137680691500,9.67969140625,13.975950241088867,1.807050108909607,1.5979501008987427
1750506137690296300,9.68929638671875,12.955950736999512,1.9549500942230225,1.477950096130371
1750506137699900700,9.698900634765625,11.872050285339355,2.6569502353668213,0.8410500288009644
1750506137709505300,9.70850537109375,10.335000038146973,4.351950168609619,-0.6310500502586365
1750506137719110000,9.71810986328125,20.46000099182129,4.254000186920166,0.1870500147342682
1750506137728714200,9.72771435546875,25.39695167541504,3.1710002422332764,-1.045050024986267
1750506137738318800,9.73731884765625,20.440950393676758,2.2930500507354736,0.41700002551078796
1750506137747923500,9.74692333984375,15.589950561523438,2.376000165939331,2.284950017929077
1750506137757528000,9.756528076171875,14.046000480651855,2.035950183868408,1.9590001106262207
1750506137767132700,9.766132568359374,10.849950790405273,2.5200002193450928,0.9610500335693359
1750506137776737000,9.775737060546875,7.44705057144165,3.621000289916992,-0.18000000715255737
1750506137786341600,9.785341552734375,5.889000415802002,4.360949993133545,-0.9559500217437744
1750506137795946200,9.7949462890625,5.17995023727417,4.503000259399414,-0.9589500427246094
1750506137805550800,9.80455078125,4.903950214385986,4.419000148773193,-0.46095001697540283
1750506137815155200,9.8141552734375,5.236950397491455,4.009050369262695,0.11295000463724136
1750506137824759800,9.823759765625,5.8309502601623535,3.6670501232147217,0.48405003547668457
1750506137834364400,9.833364501953126,6.195000171661377,3.703050136566162,0.45795002579689026
1750506137843968800,9.84296875,7.002000331878662,3.8800501823425293,0.3450000286102295
1750506137853573400,9.852573486328126,9.288000106811523,3.9090001583099365,0.17805001139640808
1750506137863178000,9.862177978515625,11.484000205993652,3.8299500942230225,-0.23805001378059387
1750506137872782300,9.8717822265625,11.980051040649414,3.772050142288208,-0.3240000009536743
1750506137882387000,9.881386962890625,11.934000968933105,3.5500502586364746,0.019950000569224358
1750506137891991600,9.890991455078124,11.884050369262695,3.262050151824951,0.20205001533031464
1750506137901596200,9.90059619140625,11.067000389099121,3.2430002689361572,0.15105000138282776
1750506137911200800,9.91020068359375,10.284000396728516,3.4039502143859863,0.04800000041723251
1750506137920805000,9.91980517578125,9.532950401306152,3.4390501976013184,0.028950002044439316
1750506137930409700,9.92940966796875,8.689949989318848,3.451050281524658,0.07005000114440918
1750506137940014000,9.93901416015625,8.082000732421875,3.406050205230713,0.14400000870227814
1750506137949619000,9.948618896484374,7.6650004386901855,3.4560000896453857,0.22605000436306
1750506137959223600,9.9582236328125,7.552950382232666,3.514050245285034,0.17505000531673431
1750506137968827600,9.96782763671875,7.749000549316406,3.5880000591278076,0.04800000041723251
1750506137978432500,9.9774326171875,8.029050827026367,3.621000289916992,-0.022050000727176666
1750506137988036900,9.987036865234375,8.53695011138916,3.655050277709961,-0.10395000129938126
1750506137997641500,9.996641357421876,9.26400089263916,3.624000072479248,-0.1279500126838684
1750506138007246000,10.00624609375,9.898950576782227,3.516000270843506,-0.039000000804662704
1750506138016850400,10.015850341796876,10.183950424194336,3.586050271987915,0.027000000700354576
1750506138026455000,10.025455078125,10.240950584411621,3.624000072479248,0.06300000101327896
1750506138036059600,10.0350595703125,9.856050491333008,3.604950189590454,0.0010500000789761543
1750506138045664300,10.044664306640625,9.327000617980957,3.604950189590454,-0.05595000088214874
1750506138055268900,10.054268798828126,9.022950172424316,3.5779502391815186,-0.034050002694129944
1750506138064873200,10.063873291015625,8.9170503616333,3.844050168991089,-0.25005000829696655
1750506138074477800,10.073477783203124,8.721000671386719,3.894000291824341,-0.39795002341270447
1750506138084082400,10.08308251953125,8.506050109863281,3.5880000591278076,-0.25905001163482666
1750506138093686800,10.092686767578124,8.671050071716309,3.412950277328491,-0.006000000052154064
1750506138103291400,10.10229150390625,8.764050483703613,3.406050205230713,0.0799500048160553
1750506138112896000,10.11189599609375,8.826000213623047,3.6289501190185547,-0.17295001447200775
1750506138122500600,10.12150048828125,8.925000190734863,3.745950222015381,-0.2689500153064728
1750506138132105200,10.131105224609374,8.901000022888184,3.5209500789642334,-0.06105000153183937
1750506138141709800,10.140709716796875,9.019950866699219,3.3480000495910645,0.1469999998807907
1750506138151314200,10.150314208984375,9.26205062866211,3.265050172805786,0.2179500162601471
1750506138160918800,10.159918701171875,9.391050338745117,3.267000198364258,0.2179500162601471
1750506138170523400,10.1695234375,9.664050102233887,3.367950201034546,0.13695000112056732
1750506138180127700,10.179127685546876,9.850950241088867,3.492000102996826,-0.039000000804662704
1750506138189732600,10.188732666015625,9.766950607299805,3.5779502391815186,-0.16095000505447388
1750506138199337000,10.1983369140625,9.583050727844238,3.576000213623047,-0.09405000507831573
1750506138208941600,10.207941650390625,9.279000282287598,3.604950189590454,0.036000002175569534
1750506138218546200,10.217546142578126,9.073050498962402,3.553950071334839,0.13005000352859497
1750506138228150500,10.227150634765625,8.97705078125,3.5710501670837402,0.08700000494718552
1750506138237755100,10.236755126953126,8.932050704956055,3.6720001697540283,-0.006000000052154064
1750506138247359700,10.24635986328125,8.866950035095215,3.7770001888275146,-0.1879500150680542
1750506138256964400,10.25596435546875,8.797950744628906,3.8490002155303955,-0.29805001616477966
1750506138266569000,10.26556884765625,8.878950119018555,3.9300003051757812,-0.31200000643730164
1750506138276173300,10.27517333984375,8.980050086975098,3.9019501209259033,-0.2350500077009201
1750506138285778000,10.28477783203125,9.16200065612793,3.813000202178955,-0.11100000888109207
1750506138295382500,10.294382568359374,9.26400089263916,3.753000259399414,-0.031950000673532486
1750506138304987000,10.30398681640625,9.307950019836426,3.6979501247406006,-0.018000001087784767
1750506138314591500,10.313591552734374,9.13800048828125,3.7200002670288086,-0.05595000088214874
1750506138324196000,10.323196044921875,8.914950370788574,3.7290000915527344,-0.10095000267028809
1750506138333800700,10.33280078125,8.740050315856934,3.7390501499176025,-0.11100000888109207
1750506138343405000,10.342405029296875,8.581950187683105,3.705000162124634,-0.07695000618696213
1750506138353009700,10.352009765625,8.665950775146484,3.753000259399414,-0.1660500019788742
1750506138362614300,10.3616142578125,8.824049949645996,3.741000175476074,-0.15405000746250153
1750506138372219000,10.371218994140625,8.845050811767578,3.6409502029418945,-0.07695000618696213
1750506138381823500,10.380823486328126,8.9170503616333,3.5520002841949463,0.06795000284910202
1750506138391427800,10.390427734375,8.95305061340332,3.5089502334594727,0.12300000339746475
1750506138401032400,10.400032470703126,8.97705078125,3.4680001735687256,0.17505000531673431
1750506138410636800,10.40963671875,9.065999984741211,3.475050210952759,0.15405000746250153
1750506138420241400,10.419241455078126,9.193050384521484,3.4609501361846924,0.09195000678300858
1750506138429846000,10.428845947265625,9.241050720214844,3.5179500579833984,-0.027000000700354576
1750506138439450600,10.43845068359375,9.232950210571289,3.541950225830078,-0.0580500029027462
1750506138449055000,10.448054931640625,9.159000396728516,3.4780502319335938,-0.04905000329017639
1750506138458659600,10.45765966796875,9.051000595092773,3.5020501613616943,-0.018000001087784767
1750506138468264200,10.46726416015625,8.914950370788574,3.44700026512146,0.09195000678300858
1750506138477868800,10.476868896484374,8.836050033569336,3.4420502185821533,0.14400000870227814
1750506138487473200,10.48647314453125,8.995950698852539,3.511050224304199,0.15105000138282776
1750506138497077500,10.496077392578124,9.195000648498535,3.544950246810913,0.08400000631809235
1750506138506682400,10.505682373046875,9.360000610351562,3.621000289916992,0.06795000284910202
1750506138516286700,10.51528662109375,9.394050598144531,3.6600000858306885,0.031950000673532486
1750506138525891300,10.524891357421875,9.445950508117676,3.616950273513794,0.019950000569224358
1750506138535496000,10.534495849609375,9.340950012207031,3.6259500980377197,-0.013050000183284283
1750506138545100300,10.544100341796875,9.183000564575195,3.616950273513794,0.004950000438839197
1750506138554705000,10.553704833984375,9.055950164794922,3.5500502586364746,0.08895000070333481
1750506138564309500,10.5633095703125,9.007950782775879,3.432000160217285,0.19500000774860382
1750506138573914000,10.5729140625,9.015000343322754,3.4729502201080322,0.25905001163482666
1750506138583518500,10.5825185546875,9.15000057220459,3.43500018119812,0.22305001318454742
1750506138593123000,10.592123046875,9.343950271606445,3.4680001735687256,0.24195000529289246
1750506138602727700,10.601727783203126,9.352950096130371,3.5280001163482666,0.23295001685619354
1750506138612332300,10.611332275390625,9.403050422668457,3.576000213623047,0.18000000715255737
1750506138621936600,10.6209365234375,9.439050674438477,3.58305025100708,0.08895000070333481
1750506138631541200,10.630541259765625,8.97705078125,3.427950143814087,0.0799500048160553
1750506138641145900,10.640145751953124,7.438050270080566,4.431000232696533,-0.7890000343322754
1750506138650750500,10.64975048828125,8.32800006866455,3.7360501289367676,-0.6019500494003296
1750506138660354800,10.659354736328124,10.069050788879395,3.58305025100708,-0.10605000704526901
1750506138669959400,10.66895947265625,9.276000022888184,3.2910001277923584,0.25394999980926514
1750506138679564000,10.67856396484375,9.664050102233887,3.2500500679016113,0.4120500087738037
1750506138689168600,10.688168701171875,9.523050308227539,3.3889501094818115,-0.006000000052154064
1750506138698773000,10.69777294921875,9.034950256347656,3.6190502643585205,-0.208950012922287
