time,seconds_elapsed,z,y,x
1750506128124133400,0.12313330078125,0.1648939996957779,0.08184999972581863,1.3139959573745728
1750506128133737700,0.13273779296875,0.07211299985647202,0.07661700248718262,1.248265027999878
1750506128143342300,0.14234228515625,0.020601000636816025,0.05508200079202652,1.184216022491455
1750506128152946700,0.15194677734375,-0.09284800291061401,0.017798999324440956,1.1737140417099
1750506128162551300,0.16155126953125,-0.21043699979782104,-0.00791999977082014,1.2168899774551392
1750506128172156000,0.171156005859375,-0.23434600234031677,-0.07528600096702576,1.1888929605484009
1750506128181760500,0.180760498046875,-0.2528750002384186,-0.08741699904203415,1.1451059579849243
1750506128191365000,0.190365234375,-0.3903599977493286,-0.09324999898672104,1.0948419570922852
1750506128200969700,0.1999697265625,-0.5847470164299011,-0.11393199861049652,1.0270299911499023
1750506128210574300,0.20957421875,-0.5454059839248657,0.07030200213193893,0.9075000286102295
1750506128220179000,0.219178955078125,-0.4008820056915283,0.1290619969367981,0.8189619779586792
1750506128229783600,0.228783447265625,-0.3670459985733032,-0.11559499800205231,0.6650069952011108
1750506128239388200,0.23838818359375,-0.11262399703264236,-0.14926399290561676,0.6905969977378845
1750506128248992500,0.247992431640625,0.2020609974861145,0.04874100163578987,0.7087299823760986
1750506128258597000,0.25759716796875,0.28282099962234497,0.039094001054763794,0.5787270069122314
1750506128268202000,0.267201904296875,0.33357301354408264,-0.07397200167179108,0.4100610017776489
1750506128277806300,0.276806396484375,0.17410999536514282,-0.1233920007944107,0.37447699904441833
1750506128287411000,0.286410888671875,0.003665999975055456,-0.1367740035057068,0.41230499744415283
1750506128297015600,0.296015625,-0.1362770050764084,-0.07833299785852432,0.5077610015869141
1750506128306620200,0.3056201171875,-0.22910499572753906,-0.03399299830198288,0.5630810260772705
1750506128316224800,0.315224853515625,-0.2774919867515564,0.048006001859903336,0.38431599736213684
1750506128325829400,0.324829345703125,-0.3423579931259155,0.17152999341487885,0.23630400002002716
1750506128335433700,0.334433837890625,-0.36528798937797546,0.15483400225639343,0.1472640037536621
1750506128345038600,0.34403857421875,-0.46027299761772156,0.1923220008611679,0.13775700330734253
1750506128354643200,0.353643310546875,-0.5317310094833374,0.1870959997177124,0.1399659961462021
1750506128364247800,0.363247802734375,-0.2826249897480011,0.19921599328517914,0.10979299992322922
1750506128373852200,0.37285205078125,0.053964998573064804,0.13418400287628174,0.15114599466323853
1750506128383456800,0.382456787109375,0.28606700897216797,0.01343000028282404,0.27432000637054443
1750506128393061400,0.392061279296875,0.2733530104160309,-0.06734699755907059,0.38332200050354004
1750506128402666000,0.401666015625,0.18064400553703308,-0.06242699921131134,0.3999980092048645
1750506128412270600,0.4112705078125,0.18356600403785706,-0.006118000019341707,0.3087100088596344
1750506128421875200,0.420875244140625,0.12206300348043442,0.05132000148296356,0.06122099980711937
1750506128431479800,0.430479736328125,0.052289001643657684,0.15669700503349304,-0.09278900176286697
1750506128441084400,0.44008447265625,-0.034115999937057495,0.3041380047798157,-0.09891100227832794
1750506128450689000,0.44968896484375,-0.24935999512672424,0.3421129882335663,-0.022582000121474266
1750506128460293600,0.459293701171875,-0.47045499086380005,0.2822420001029968,0.038378000259399414
1750506128469898200,0.468898193359375,-0.48040199279785156,0.0985419973731041,0.07600399851799011
1750506128479502600,0.478502685546875,-0.22119799256324768,-0.06138100102543831,0.16877900063991547
1750506128489107200,0.488107177734375,0.09233199805021286,-0.16324399411678314,0.19319599866867065
1750506128498711800,0.4977119140625,0.11664500087499619,-0.2814730107784271,0.23886699974536896
1750506128508316400,0.50731640625,0.002087000058963895,-0.23996299505233765,0.2582229971885681
1750506128517921000,0.516921142578125,-0.14006400108337402,-0.11194399744272232,0.2551969885826111
1750506128527525600,0.526525634765625,-0.20558799803256989,-0.04047499969601631,0.1315770000219345
1750506128537130000,0.5361298828125,0.22214500606060028,0.042479000985622406,-0.06355299800634384
1750506128546734800,0.54573486328125,0.665028989315033,0.09087900072336197,-0.041060999035835266
1750506128556339500,0.55533935546875,0.7155519723892212,-0.0008229999803006649,0.018136000260710716
1750506128565944000,0.564944091796875,0.6906120181083679,-0.05417000129818916,0.07953199744224548
1750506128575548700,0.574548583984375,0.4618929922580719,-0.13673800230026245,0.17412999272346497
1750506128585153300,0.5841533203125,0.31206798553466797,-0.15455399453639984,0.1570730060338974
1750506128594758000,0.5937578125,0.044780001044273376,-0.19649499654769897,0.17308199405670166
1750506128604362500,0.603362548828125,-0.22419999539852142,-0.13070200383663177,0.1799899935722351
1750506128613966800,0.612966796875,-0.357342004776001,-0.021438999101519585,0.13337500393390656
1750506128623571500,0.622571533203125,-0.4071429967880249,0.13648299872875214,0.0658940002322197
1750506128633176000,0.632176025390625,-0.510191023349762,0.1531739979982376,-0.03866200149059296
1750506128642781000,0.641781005859375,-0.6983489990234375,0.09744399785995483,-0.10442899912595749
1750506128652385300,0.65138525390625,-0.6328030228614807,0.0918940007686615,-0.21106800436973572
1750506128661990000,0.660989990234375,-0.27087000012397766,0.03436199948191643,-0.05521899834275246
1750506128671594500,0.670594482421875,-0.11708299815654755,-0.13597199320793152,0.17723199725151062
1750506128681199000,0.68019921875,-0.035016998648643494,-0.2502700090408325,0.20026299357414246
1750506128690803700,0.6898037109375,0.11347100138664246,-0.26460400223731995,0.3625209927558899
1750506128700408300,0.699408203125,0.1543239951133728,-0.2918210029602051,0.3292520046234131
1750506128710013000,0.709012939453125,0.08199899643659592,-0.3721520006656647,0.13157600164413452
1750506128719617500,0.718617431640625,-0.3400590121746063,-0.291720986366272,-0.07171200215816498
1750506128729222100,0.72822216796875,-0.06316299736499786,0.1461859941482544,-0.008574999868869781
1750506128738826800,0.73782666015625,0.059432998299598694,0.4613400101661682,-0.13368700444698334
1750506128748431000,0.74743115234375,0.03665899857878685,0.476485013961792,-0.28572800755500793
1750506128758036000,0.757035888671875,0.19896399974822998,0.42767399549484253,-0.42627501487731934
1750506128767640300,0.766640380859375,0.2829659879207611,0.41349199414253235,-0.34272998571395874
1750506128777245200,0.7762451171875,0.2381650060415268,0.25633201003074646,-0.39922600984573364
1750506128786849800,0.785849853515625,-0.18439799547195435,0.20672300457954407,-0.7419340014457703
1750506128796454400,0.795454345703125,-0.27496999502182007,0.1461849957704544,0.19793100655078888
1750506128806059000,0.80505908203125,-0.6245660185813904,-0.10083100199699402,0.6825929880142212
1750506128815663600,0.81466357421875,-1.1220860481262207,-0.39000800251960754,0.648343026638031
1750506128825268000,0.82426806640625,-1.0865750312805176,-0.4733870029449463,0.6291080117225647
1750506128834872800,0.833872802734375,-0.6994600296020508,-0.30392101407051086,0.5175909996032715
1750506128844477400,0.8434775390625,-0.42214900255203247,-0.14088700711727142,0.2752709984779358
1750506128854082000,0.85308203125,-0.125573992729187,-0.04889100044965744,0.04859999939799309
1750506128863686700,0.862686767578125,0.0024399999529123306,-0.00547999981790781,-0.06992699950933456
1750506128873291300,0.872291259765625,0.10268300026655197,-0.06881699711084366,0.19886599481105804
1750506128882896000,0.881895751953125,0.34876900911331177,-0.1357090026140213,0.33688199520111084
1750506128892500500,0.89150048828125,0.6492859721183777,-0.23037900030612946,0.48586300015449524
1750506128902104800,0.901104736328125,0.9616580009460449,-0.28652700781822205,0.4686430096626282
1750506128911709400,0.91070947265625,0.8219900131225586,-0.37407299876213074,0.2132750004529953
1750506128921314000,0.92031396484375,0.3759309947490692,-0.3323279917240143,0.002099999925121665
1750506128930918700,0.929918701171875,-0.11440200358629227,-0.19110900163650513,-0.011354000307619572
1750506128940523300,0.939523193359375,-0.23015399277210236,0.02452700026333332,0.1801539957523346
1750506128950127900,0.9491279296875,-0.09740299731492996,0.03831399977207184,0.1734129935503006
1750506128959732500,0.958732421875,0.10910200327634811,-0.07074800133705139,0.12065599858760834
1750506128969337000,0.968337158203125,0.1876630038022995,-0.21671800315380096,0.27077600359916687
1750506128978941700,0.977941650390625,-0.07091899961233139,-0.25596699118614197,0.12504200637340546
1750506128988546300,0.98754638671875,-0.32455700635910034,-0.0399789996445179,0.09271900355815887
1750506128998151000,0.99715087890625,-0.3083379864692688,0.1891860067844391,0.005625000223517418
1750506129007755500,1.006755615234375,-0.15190300345420837,0.33645099401474,-0.20035600662231445
1750506129017360100,1.016360107421875,0.0695979967713356,0.35858699679374695,-0.43352699279785156
1750506129026964500,1.025964599609375,-0.05499599874019623,0.33344900608062744,-0.6874570250511169
1750506129036569000,1.035569091796875,-0.27074700593948364,0.3399980068206787,-0.4977940022945404
1750506129046173700,1.045173583984375,-0.6183580160140991,0.19005799293518066,-0.23004700243473053
1750506129055778600,1.054778564453125,-0.7704089879989624,0.06544899940490723,-0.0589120015501976
1750506129065383000,1.0643828125,-0.5533909797668457,0.0483970008790493,0.04883300140500069
1750506129074987500,1.073987548828125,-0.020653000101447105,0.054499998688697815,0.0857430025935173
1750506129084592000,1.083592041015625,0.5713260173797607,-0.07002399861812592,0.06540100276470184
1750506129094196700,1.09319677734375,0.972877025604248,-0.2750140130519867,0.23201599717140198
1750506129103801300,1.10280126953125,0.7051950097084045,-0.29470500349998474,-0.015227999538183212
1750506129113406000,1.112406005859375,0.003309000050649047,-0.07937400043010712,-0.1249610036611557
1750506129123010600,1.122010498046875,-0.654013991355896,0.0443280003964901,-0.12824200093746185
1750506129132615200,1.131615234375,-0.9988669753074646,0.0129399998113513,0.014642000198364258
1750506129142219800,1.1412197265625,-1.0539159774780273,0.0038270000368356705,0.054864998906850815
1750506129151824400,1.150824462890625,-0.8506720066070557,0.02779199928045273,0.031651999801397324
1750506129161428700,1.1604287109375,-0.17135100066661835,0.0653809979557991,0.05478899925947189
1750506129171033300,1.170033447265625,0.5222160220146179,-0.009813000448048115,0.10104600340127945
1750506129180638000,1.179637939453125,1.0125080347061157,-0.18353299796581268,0.20235499739646912
1750506129190242800,1.189242919921875,1.1368119716644287,-0.313757985830307,0.3121269941329956
1750506129199847200,1.19884716796875,0.9375900030136108,-0.3541339933872223,0.3232490122318268
1750506129209451800,1.20845166015625,0.44447100162506104,-0.24988900125026703,0.22639399766921997
1750506129219056400,1.218056396484375,-0.20671099424362183,-0.10453099757432938,-0.016397999599575996
1750506129228661000,1.227660888671875,-0.7768679857254028,0.07387900352478027,-0.16926099359989166
1750506129238265600,1.237265625,-0.8914099931716919,0.14577199518680573,-0.1711069941520691
1750506129247870200,1.2468701171875,-0.7029110193252563,0.11164899915456772,-0.0854950025677681
1750506129257474800,1.256474853515625,-0.43261200189590454,0.07483100146055222,-0.06121499836444855
1750506129267079400,1.266079345703125,-0.10895100235939026,0.06624100357294083,-0.010532000102102757
1750506129276684000,1.27568408203125,0.29280799627304077,0.07595700025558472,0.003478999948129058
1750506129286288600,1.28528857421875,0.4493600130081177,-0.00817199982702732,-0.05333700031042099
1750506129295893200,1.294893310546875,0.47165098786354065,-0.028130000457167625,-0.07626199722290039
1750506129305497900,1.304497802734375,0.5474600195884705,0.035020001232624054,-0.0853089988231659
1750506129315102500,1.3141025390625,0.4542529881000519,-0.012934999540448189,-0.008754000067710876
1750506129324706800,1.323706787109375,0.23423700034618378,-0.19122500717639923,0.0966780036687851
1750506129334311400,1.3333115234375,0.16749300062656403,-0.2703860104084015,0.1482039988040924
1750506129343916000,1.342916015625,-0.1343040019273758,-0.2497909963130951,-0.08997199684381485
1750506129353520600,1.352520751953125,-0.4053820073604584,0.005700999870896339,-0.21230599284172058
1750506129363125200,1.362125244140625,-0.6053109765052795,0.13208000361919403,-0.21925799548625946
1750506129372729900,1.371729736328125,-0.20719000697135925,0.18574300408363342,-0.09370999783277512
1750506129382334500,1.38133447265625,0.5008909702301025,0.0446229986846447,0.19681699573993683
1750506129391939000,1.39093896484375,0.6591690182685852,-0.22183500230312347,-0.009387999773025513
1750506129401543700,1.400543701171875,0.9941089749336243,-0.10222700238227844,-0.2073100060224533
1750506129411148300,1.410148193359375,1.1119589805603027,0.16253699362277985,-0.499549001455307
1750506129420753000,1.4197529296875,0.8345789909362793,0.3962570130825043,-0.4085859954357147
1750506129430357200,1.429357177734375,0.4940040111541748,0.3330810070037842,-0.00203000009059906
1750506129439962000,1.438962158203125,0.3431589901447296,0.0818210020661354,0.20704899728298187
1750506129449566700,1.448566650390625,0.2248920053243637,0.10932400077581406,0.06396699696779251
1750506129459171000,1.458171142578125,0.37082499265670776,0.4298270046710968,-0.36403700709342957
1750506129468775700,1.467775634765625,0.8181530237197876,0.8814669847488403,-0.5810449719429016
1750506129478380300,1.47738037109375,1.321066975593567,0.7289280295372009,-0.2579230070114136
1750506129487985000,1.48698486328125,1.6291370391845703,-0.3998050093650818,0.7445889711380005
1750506129497589500,1.496589599609375,1.755452036857605,-0.6353309750556946,1.4686620235443115
1750506129507194000,1.506194091796875,1.6317789554595947,-0.6441640257835388,1.4894380569458008
1750506129516798700,1.515798828125,1.3153940439224243,-0.32770898938179016,0.6996049880981445
1750506129526403300,1.5254033203125,1.2869939804077148,0.5574859976768494,-0.8379459977149963
1750506129536008000,1.535008056640625,3.966176986694336,1.2335180044174194,-1.9019509553909302
1750506129545612500,1.544612548828125,6.644204139709473,1.176669955253601,-2.5119519233703613
1750506129555217200,1.554217041015625,7.125529766082764,0.7940700054168701,-2.551762104034424
1750506129564821500,1.563821533203125,6.870422840118408,0.2263839989900589,-1.6351319551467896
1750506129574426400,1.57342626953125,6.058548927307129,-0.6300129890441895,-0.9338780045509338
1750506129584030700,1.58303076171875,6.2512640953063965,-1.0580509901046753,-0.4651019871234894
1750506129593635600,1.592635498046875,6.2242560386657715,-1.2540290355682373,-0.46653300523757935
1750506129603240200,1.602240234375,5.815433979034424,-1.6067030429840088,-0.8792279958724976
1750506129612844800,1.6118447265625,5.807629108428955,-1.496791958808899,-0.5648419857025146
1750506129622449400,1.621449462890625,5.904600143432617,0.12826800346374512,-1.6180449724197388
1750506129632054000,1.631053955078125,5.566247940063477,-0.3668079972267151,-1.4989969730377197
1750506129641658600,1.64065869140625,4.629483222961426,-1.1549160480499268,-0.9657710194587708
1750506129651263200,1.65026318359375,3.9468719959259033,-1.6751450300216675,-0.2798610031604767
1750506129660867600,1.65986767578125,3.0353760719299316,-2.3909189701080322,0.29743799567222595
1750506129670472200,1.66947216796875,1.403251051902771,-2.463804006576538,0.16540899872779846
1750506129680076800,1.679076904296875,0.7115780115127563,-2.097270965576172,0.10211499780416489
1750506129689681700,1.688681640625,0.27608099579811096,-1.7963520288467407,-0.6594139933586121
1750506129699286300,1.698286376953125,-0.5309969782829285,-2.0614700317382812,-0.3977009952068329
1750506129708891000,1.707890869140625,-0.4938110113143921,-2.6164538860321045,-0.11656899750232697
1750506129718495500,1.71749560546875,-1.153573989868164,-2.5908710956573486,0.15526099503040314
1750506129728100000,1.72710009765625,-2.156609058380127,-2.6058530807495117,0.20267899334430695
1750506129737704400,1.736704345703125,-3.5309319496154785,-2.1972789764404297,0.13375599682331085
1750506129747309000,1.74630908203125,-5.452264785766602,-2.038973093032837,0.011606000363826752
1750506129756913700,1.75591357421875,-6.208773136138916,-1.9343470335006714,-0.07220599800348282
1750506129766518300,1.765518310546875,-6.03764009475708,-1.9408620595932007,-0.2674489915370941
1750506129776123000,1.775122802734375,-5.453185081481934,-1.8447209596633911,-0.35293900966644287
1750506129785727500,1.7847275390625,-5.426490783691406,-2.1319570541381836,-0.1290459930896759
1750506129795332000,1.79433203125,-6.461729049682617,-2.435439109802246,0.11501599848270416
1750506129804936700,1.803936767578125,-7.147654056549072,-2.4718270301818848,0.10129199922084808
1750506129814541300,1.813541259765625,-7.09099006652832,-2.2617390155792236,-0.11582700163125992
1750506129824146000,1.82314599609375,-7.224705219268799,-1.9945379495620728,-0.2719230055809021
1750506129833750500,1.83275048828125,-8.092876434326172,-1.5902880430221558,-0.4496000111103058
1750506129843355100,1.842355224609375,-8.979536056518555,-1.2552859783172607,-0.5718830227851868
1750506129852959700,1.851959716796875,-9.627190589904785,-1.3286490440368652,-0.38312798738479614
1750506129862564000,1.861564208984375,-10.265596389770508,-1.8070909976959229,0.13432499766349792
1750506129872168700,1.871168701171875,-10.392173767089844,-2.400697946548462,0.6112679839134216
1750506129881773300,1.880773193359375,-9.684852600097656,-2.8567910194396973,0.8361430168151855
1750506129891378000,1.8903779296875,-8.116893768310547,-2.8778529167175293,0.3667469918727875
1750506129900982500,1.899982421875,-6.182701110839844,-2.974034070968628,0.3864609897136688
1750506129910587100,1.909587158203125,-5.337645053863525,-3.286686897277832,0.9513580203056335
1750506129920191700,1.919191650390625,-6.166223049163818,-3.001357078552246,1.0204520225524902
1750506129929796400,1.92879638671875,-7.235788822174072,-2.8109540939331055,1.3261350393295288
1750506129939401000,1.93840087890625,-8.020245552062988,-2.805337905883789,1.6254990100860596
1750506129949005600,1.948005615234375,-8.547606468200684,-2.780951976776123,0.9890090227127075
1750506129958610200,1.957610107421875,-8.670352935791016,-2.758665084838867,-1.231793999671936
1750506129968214800,1.96721484375,-5.567652225494385,-2.082827091217041,-3.141232967376709
1750506129977819400,1.9768193359375,-0.772849977016449,-2.847486972808838,-1.7366700172424316
1750506129987424000,1.986424072265625,0.8277860283851624,-3.9518699645996094,0.1454250067472458
1750506129997028600,1.996028564453125,-0.0527460016310215,-3.9347259998321533,1.642786979675293
1750506130006633000,2.005633056640625,-1.3963340520858765,-3.7047600746154785,1.9175100326538086
1750506130016237800,2.01523779296875,-1.6010429859161377,-2.7397890090942383,0.5697180032730103
1750506130025842400,2.024842529296875,-1.0278970003128052,-1.8253719806671143,-0.9134299755096436
1750506130035446800,2.03444677734375,0.6130899786949158,-0.9451329708099365,-2.490786075592041
1750506130045051400,2.044051513671875,4.726346015930176,-1.0411070585250854,-2.301042079925537
1750506130054656000,2.053656005859375,8.820475578308105,-1.77224600315094,-0.04187300056219101
1750506130064260600,2.063260498046875,10.584213256835938,-2.129749059677124,0.9231770038604736
1750506130073865200,2.072865234375,10.011316299438477,-2.2832839488983154,2.0699679851531982
1750506130083469800,2.0824697265625,7.732798099517822,-2.2089390754699707,2.563699960708618
1750506130093074400,2.092074462890625,6.423699855804443,-1.5637340545654297,1.8476619720458984
1750506130112283600,2.11128369140625,5.245966911315918,-0.0409419983625412,0.0918779969215393
1750506130121888300,2.12088818359375,4.984621047973633,0.6758220195770264,-0.4161530137062073
1750506130131492900,2.130492919921875,5.15918493270874,0.8147749900817871,-0.19208499789237976
1750506130141097500,2.140097412109375,4.8887858390808105,0.5994859933853149,0.5388690233230591
1750506130150701800,2.149701904296875,4.190100193023682,0.46500900387763977,1.2342560291290283
1750506130160306700,2.159306640625,3.371428966522217,0.4525110125541687,1.5472760200500488
1750506130169911000,2.1689111328125,2.846376895904541,0.6477140188217163,1.488374948501587
1750506130179515600,2.178515625,2.313025951385498,0.8669520020484924,1.135025978088379
1750506130189120500,2.18812060546875,1.7998249530792236,1.058701992034912,0.724494993686676
1750506130198724900,2.197724853515625,1.1507400274276733,1.2588310241699219,0.2513439953327179
1750506130208329700,2.207329833984375,0.6231989860534668,1.3704489469528198,-0.10719799995422363
1750506130217934300,2.216934326171875,0.3612000048160553,1.2942689657211304,-0.07657600194215775
1750506130227538700,2.22653857421875,0.374224990606308,1.2319600582122803,-0.17834700644016266
1750506130237143600,2.2361435546875,0.3129749894142151,1.0807850360870361,-0.037370000034570694
1750506130246748000,2.245747802734375,0.05297800153493881,0.8509699702262878,0.14294299483299255
1750506130256352500,2.2553525390625,-0.06853300333023071,0.7342619895935059,0.11679700016975403
1750506130265957400,2.264957275390625,-0.02115900069475174,0.5686209797859192,0.19000400602817535
1750506130275561700,2.274561767578125,-0.12977999448776245,0.49127599596977234,0.12135999649763107
1750506130285166000,2.284166015625,-0.023593999445438385,0.47509101033210754,-0.03384000062942505
1750506130294770700,2.293770751953125,-0.08795599639415741,0.39520901441574097,-0.08521399646997452
1750506130304375600,2.30337548828125,-0.26770099997520447,0.36815598607063293,-0.11284299939870834
1750506130313980200,2.312980224609375,-0.4092870056629181,0.3684450089931488,-0.12191800028085709
1750506130323584800,2.322584716796875,-0.0875919982790947,0.42461299896240234,-0.2934179902076721
1750506130333189400,2.332189453125,0.42226800322532654,0.41867199540138245,-0.31208500266075134
1750506130342794000,2.3417939453125,0.46764299273490906,0.2776489853858948,-0.14888699352741241
1750506130352398600,2.351398681640625,0.16612699627876282,0.07294400036334991,0.1574680060148239
1750506130362003200,2.361003173828125,-0.17329999804496765,-0.057725999504327774,0.36556699872016907
1750506130371607600,2.370607666015625,-0.3259119987487793,-0.04184800013899803,0.3742370009422302
1750506130381212400,2.38021240234375,-0.35415399074554443,0.046156998723745346,0.2221599966287613
1750506130390816800,2.389816650390625,-0.2653689980506897,0.1308560073375702,0.11672800034284592
1750506130400421400,2.39942138671875,-0.06964299827814102,0.1522739976644516,0.014794000424444675
1750506130410026000,2.40902587890625,0.21801899373531342,0.10178299993276596,0.07754799723625183
1750506130419630800,2.418630859375,0.11279100179672241,0.02950900048017502,0.16873499751091003
1750506130429235500,2.4282353515625,-0.11825499683618546,0.042323000729084015,0.2588610053062439
1750506130438840000,2.437840087890625,-0.4152050018310547,0.041005998849868774,0.2946920096874237
1750506130448444400,2.4474443359375,-0.6757280230522156,0.030295999720692635,0.24847100675106049
1750506130458049000,2.457049072265625,-0.6199640035629272,0.16980700194835663,0.06505399942398071
1750506130467653600,2.466653564453125,-0.29209598898887634,0.22719700634479523,-0.08803600072860718
1750506130477258200,2.47625830078125,-0.10888700187206268,0.21944400668144226,-0.06956399977207184
1750506130486862800,2.48586279296875,-0.21304699778556824,0.18402999639511108,-0.0650470033288002
1750506130496467500,2.495467529296875,-0.30056801438331604,0.14973799884319305,-0.030208000913262367
1750506130506072000,2.505072021484375,-0.47454899549484253,0.1224299967288971,0.03142099827528
1750506130515676700,2.5146767578125,-0.4430080056190491,0.1428000032901764,0.03703400120139122
1750506130525281300,2.52428125,-0.18114499747753143,0.09686899930238724,0.045798998326063156
1750506130534886000,2.533885986328125,0.09513100236654282,-0.013782000169157982,0.09453000128269196
1750506130544490500,2.543490478515625,0.24134700000286102,-0.07599999755620956,0.12602899968624115
1750506130554095000,2.55309521484375,0.23259299993515015,-0.09083200246095657,0.14669400453567505
1750506130563699500,2.562699462890625,0.08786500245332718,-0.1193699985742569,0.15074700117111206
1750506130573304000,2.572303955078125,-0.13288499414920807,-0.08030600100755692,0.10050199925899506
1750506130582908700,2.58190869140625,-0.2763670086860657,-0.008375000208616257,0.0019180000526830554
1750506130592513300,2.59151318359375,-0.15413500368595123,0.038832999765872955,-0.08810500055551529
1750506130602118000,2.601117919921875,0.0633699968457222,0.051350999623537064,-0.08652099967002869
1750506130611722500,2.610722412109375,0.20379799604415894,-0.03214100003242493,0.047912999987602234
1750506130621327000,2.6203271484375,0.1285330057144165,-0.1350959986448288,0.19626900553703308
1750506130630931700,2.629931640625,-0.04694699868559837,-0.15702399611473083,0.2399280071258545
1750506130640536300,2.639536376953125,-0.1405629962682724,-0.0995350033044815,0.18830899894237518
1750506130650141000,2.649140869140625,-0.1309870034456253,-0.031105000525712967,0.1226930022239685
1750506130659745500,2.65874560546875,0.027093999087810516,0.019094999879598618,-0.0027910000644624233
1750506130669350100,2.66835009765625,0.1228019967675209,0.019014999270439148,-0.010342000052332878
1750506130678954800,2.677954833984375,-0.05125200003385544,0.015181000344455242,-0.05860700085759163
1750506130688559400,2.687559326171875,-0.2266159951686859,0.08303199708461761,-0.11657699942588806
1750506130698164000,2.6971640625,-0.3942809998989105,0.11924199759960175,-0.20316100120544434
1750506130707768300,2.706768310546875,-0.3630189895629883,0.19236800074577332,-0.2540990114212036
1750506130717373000,2.716373046875,-0.11524000018835068,0.14468100666999817,-0.18705600500106812
1750506130726977500,2.7259775390625,0.07322300225496292,0.05095899850130081,-0.03306100144982338
1750506130736582100,2.73558203125,0.2083660066127777,0.006554999854415655,0.07953199744224548
1750506130746186800,2.745186767578125,0.30216699838638306,-0.08220499753952026,0.16245199739933014
1750506130755791400,2.754791259765625,0.16910700500011444,-0.11096400022506714,0.16034899652004242
1750506130765396000,2.76439599609375,0.07826700061559677,-0.0389380007982254,0.10011599957942963
1750506130775000600,2.77400048828125,-0.10526899993419647,-0.045099999755620956,-0.02238300070166588
1750506130784605200,2.783605224609375,-0.30185800790786743,0.04036099836230278,-0.130622997879982
1750506130794209800,2.793209716796875,-0.3971419930458069,0.10057000070810318,-0.1669600009918213
1750506130803814400,2.802814453125,-0.34597301483154297,0.20148800313472748,-0.2898789942264557
1750506130813419000,2.8124189453125,-0.08214499801397324,0.21331000328063965,-0.22212199866771698
1750506130823023600,2.822023681640625,0.0385809987783432,0.08100900053977966,-0.05586899816989899
1750506130832628000,2.8316279296875,-0.018976999446749687,-0.01636599935591221,0.13228699564933777
1750506130842232800,2.84123291015625,-0.04186299815773964,-0.09303700178861618,0.22155900299549103
1750506130851837200,2.850837158203125,-0.1751679927110672,-0.07661499828100204,0.22057999670505524
1750506130861441800,2.86044189453125,-0.31436100602149963,0.05368899926543236,0.08332999795675278
1750506130871046700,2.870046630859375,-0.2925490140914917,0.1348849982023239,-0.04734199866652489
1750506130880651300,2.8796513671875,0.001446999958716333,0.14366300404071808,-0.13509100675582886
1750506130890256000,2.889255859375,0.37008899450302124,0.042865000665187836,-0.05946100130677223
1750506130899860200,2.898860107421875,0.44318100810050964,-0.09059999883174896,0.14400799572467804
1750506130909464800,2.90846484375,0.36777400970458984,-0.18400999903678894,0.31137698888778687
1750506130919069400,2.9180693359375,0.2310599982738495,-0.17924800515174866,0.39552098512649536
1750506130928674000,2.927674072265625,0.17662900686264038,-0.09001900255680084,0.24676600098609924
1750506130938278700,2.937278564453125,0.2716520130634308,0.04123299941420555,0.08656399697065353
1750506130947883500,2.946883544921875,0.355010986328125,0.05030500143766403,-0.01170399971306324
1750506130957488000,2.956488037109375,0.3854289948940277,-0.031096000224351883,-0.027208000421524048
1750506130967092700,2.9660927734375,0.27706900238990784,-0.08638200163841248,0.052129000425338745
1750506130976697300,2.975697265625,0.01361900009214878,-0.12157300114631653,0.09287899732589722
1750506130986302000,2.985302001953125,-0.05305900052189827,-0.06549900025129318,0.04651699960231781
1750506130995906300,2.99490625,-0.04308199882507324,-0.026210999116301537,0.03519799932837486
1750506131005511000,3.004510986328125,0.0527379997074604,-0.019443999975919724,-0.04975799843668938
1750506131015115500,3.014115478515625,0.055296000093221664,-0.03878900036215782,0.028661999851465225
1750506131024720100,3.02372021484375,-0.012466000393033028,-0.15199699997901917,0.0753680020570755
1750506131034324700,3.03332470703125,-0.008922000415623188,-0.20537100732326508,0.08310600370168686
1750506131043929300,3.042929443359375,-0.06012300029397011,-0.1741890013217926,0.07807999849319458
1750506131053534000,3.052533935546875,-0.23910699784755707,-0.08355899900197983,-0.047568999230861664
1750506131063138600,3.062138671875,-0.27779099345207214,0.02135000005364418,-0.09479700028896332
1750506131072743200,3.0717431640625,-0.16973499953746796,0.08629599958658218,-0.14450199902057648
1750506131082347800,3.08134765625,-0.10993299633264542,0.04283899813890457,-0.1271129995584488
1750506131091952000,3.0909521484375,-0.20157699286937714,-0.0371830016374588,-0.004120999947190285
1750506131101556700,3.100556640625,-0.3988420069217682,-0.026969999074935913,-0.046865999698638916
1750506131111161300,3.110161376953125,-0.4359639883041382,-0.015457999892532825,-0.06894399970769882
1750506131120766000,3.119765869140625,-0.39935600757598877,0.00800199992954731,-0.06905800104141235
1750506131130370600,3.12937060546875,-0.23884700238704681,0.022136999294161797,-0.04132299870252609
1750506131139975200,3.13897509765625,-0.17926500737667084,-0.009891999885439873,0.018682999536395073
1750506131149579800,3.148579833984375,-0.13186800479888916,-0.027181999757885933,-0.01606700010597706
1750506131159184400,3.158184326171875,-0.04376799985766411,-0.03748200088739395,0.04380900040268898
1750506131168789000,3.1677890625,-0.0015940000303089619,-0.0866369977593422,0.03405600041151047
1750506131178393600,3.1773935546875,-0.0794529989361763,-0.09809000045061111,0.035801000893116
1750506131187998200,3.186998291015625,-0.24076999723911285,-0.0601160004734993,0.00030300000798888505
1750506131197602800,3.196602783203125,-0.282382994890213,-0.022463999688625336,-0.07582399994134903
1750506131207207200,3.206207275390625,-0.2496670037508011,0.019140999764204025,-0.09680599719285965
1750506131216811800,3.215811767578125,-0.1259160041809082,0.01700500026345253,-0.07669299840927124
1750506131226416600,3.225416748046875,-0.062224000692367554,-0.006082000210881233,-0.050071001052856445
1750506131236021200,3.235021240234375,-0.06304100155830383,-0.029671000316739082,0.0216669999063015
1750506131245625900,3.2446259765625,-0.07619299739599228,-0.09232799708843231,0.056933000683784485
1750506131255230200,3.254230224609375,-0.11092600226402283,-0.0953650027513504,-0.02484400011599064
1750506131264834800,3.263834716796875,-0.1573289930820465,-0.045263998210430145,-0.09717900305986404
1750506131274439400,3.273439453125,-0.22032399475574493,-0.014015999622642994,-0.03027299977838993
1750506131284044000,3.2830439453125,-0.2885339856147766,-0.010947000235319138,-0.0024850000627338886
1750506131293648600,3.292648681640625,-0.24274000525474548,-0.003085999982431531,0.041280001401901245
1750506131303253200,3.302253173828125,-0.008817999623715878,-0.007162999827414751,0.07808099687099457
1750506131312857900,3.31185791015625,0.10017099976539612,0.01206700038164854,0.013697000220417976
1750506131322462500,3.32146240234375,0.1476140022277832,0.039820000529289246,0.00521400012075901
1750506131332067000,3.331067138671875,0.31474000215530396,-0.024171000346541405,-0.0019399999873712659
1750506131341671400,3.34067138671875,0.41513100266456604,-0.04158399999141693,0.07248999923467636
1750506131351276300,3.3502763671875,0.47161200642585754,0.02400200068950653,-0.004964000079780817
1750506131360881000,3.359880859375,0.3302460014820099,0.006953000091016293,0.0308229997754097
1750506131370485200,3.3694853515625,-0.004333999939262867,-0.0002610000083222985,0.014400999993085861
1750506131380089900,3.37908984375,-0.24991999566555023,0.03201799839735031,-0.020006999373435974
1750506131389694700,3.38869482421875,-0.3473320007324219,0.06993299722671509,-0.07610899955034256
1750506131399299300,3.39829931640625,-0.18867400288581848,0.13824699819087982,-0.14834199845790863
1750506131408904000,3.407904052734375,0.11278299987316132,0.0851449966430664,-0.08200400322675705
1750506131418508500,3.417508544921875,0.30545198917388916,-0.024650000035762787,0.08624999970197678
1750506131428113000,3.42711279296875,0.27984800934791565,-0.10023199766874313,0.1958560049533844
1750506131437717500,3.436717529296875,0.06293699890375137,-0.14902600646018982,0.2581939995288849
1750506131447322000,3.446322021484375,-0.04132800176739693,-0.10729800164699554,0.16065500676631927
1750506131456926500,3.455926513671875,-0.05927300080657005,-0.042576998472213745,0.05872799828648567
1750506131466531300,3.46553125,-0.10310900211334229,0.02172599919140339,-0.03365499898791313
1750506131476136000,3.475135986328125,-0.19468900561332703,0.03878000006079674,-0.08392699807882309
1750506131485740500,3.484740478515625,-0.2665550112724304,0.07205300033092499,-0.06006700173020363
1750506131495345200,3.49434521484375,-0.03512800112366676,0.08880200237035751,-0.07190000265836716
1750506131504949800,3.50394970703125,0.3022330105304718,0.018442999571561813,0.026339000090956688
1750506131514554400,3.513554443359375,0.4572960138320923,-0.008685999549925327,0.12653400003910065
1750506131524159000,3.523158935546875,0.622418999671936,-0.020694000646471977,0.23595799505710602
1750506131533763600,3.532763671875,0.7272769808769226,0.09482800215482712,0.3612059950828552
1750506131543368000,3.542367919921875,1.4085279703140259,0.2171429991722107,0.44321998953819275
1750506131552972500,3.55197265625,2.032073974609375,0.26628100872039795,0.2965950071811676
1750506131562577200,3.5615771484375,2.9365789890289307,0.28354498744010925,-0.01838899962604046
1750506131572182000,3.57118212890625,3.7978579998016357,0.1899610012769699,-0.11887600272893906
1750506131581786600,3.58078662109375,4.588998794555664,-0.061076000332832336,-0.34087398648262024
1750506131591391200,3.59039111328125,6.4068098068237305,-0.41259700059890747,-0.4143820106983185
1750506131600995600,3.59999560546875,8.174195289611816,-1.1649030447006226,-0.1396549940109253
1750506131610600200,3.60960009765625,9.730772972106934,-1.821794033050537,-0.5997809767723083
1750506131620204800,3.619204833984375,11.691158294677734,-2.3259758949279785,-0.9393429756164551
1750506131629809400,3.628809326171875,12.983566284179688,-2.8631539344787598,-1.7065980434417725
1750506131639414000,3.6384140625,13.434518814086914,-4.0080790519714355,-1.5165410041809082
1750506131649018400,3.648018310546875,11.439543724060059,-5.184869766235352,-0.3441680073738098
1750506131658623000,3.657623046875,8.544169425964355,-5.351245880126953,-0.8881490230560303
1750506131668227600,3.6672275390625,7.32033109664917,-5.331942081451416,-1.1663130521774292
1750506131677832400,3.67683251953125,5.286811828613281,-5.186936855316162,-2.33345890045166
1750506131687437000,3.68643701171875,4.026010036468506,-4.528657913208008,-3.2986578941345215
1750506131697041700,3.696041748046875,1.7043269872665405,-4.799703121185303,-2.474713087081909
1750506131706646300,3.705646240234375,-2.5096991062164307,-4.925155162811279,-1.3158390522003174
1750506131716251000,3.7152509765625,-6.481620788574219,-4.322939872741699,-0.04909399896860123
1750506131725855200,3.724855224609375,-9.51569938659668,-3.5463950634002686,0.4774779975414276
1750506131735460000,3.734460205078125,-10.970367431640625,-2.2123351097106934,-0.13671599328517914
1750506131745064400,3.744064453125,-10.862554550170898,-1.321692943572998,-0.29645100235939026
1750506131754669000,3.7536689453125,-10.487764358520508,-1.5707340240478516,-0.06218000128865242
1750506131764273700,3.763273681640625,-10.20744800567627,-1.976125955581665,0.13354499638080597
1750506131773878300,3.772878173828125,-9.7307767868042,-2.206860065460205,0.11273500323295593
1750506131783483000,3.78248291015625,-9.151144027709961,-2.1935529708862305,-0.0847259983420372
1750506131793087500,3.79208740234375,-8.332711219787598,-2.1913070678710938,-0.2911149859428406
1750506131802692000,3.801692138671875,-7.662509918212891,-2.255531072616577,-0.11635000258684158
1750506131812296700,3.811296630859375,-7.199627876281738,-2.4531610012054443,0.05601600185036659
1750506131821901000,3.820901123046875,-6.756149768829346,-2.4053659439086914,0.10642600059509277
1750506131831505700,3.830505615234375,-6.308038234710693,-2.3370308876037598,-0.07861699908971786
1750506131841110500,3.840110595703125,-5.007981777191162,-2.2865939140319824,-0.27546000480651855
1750506131850715100,3.849715087890625,-3.084117889404297,-2.686506986618042,-0.23409999907016754
1750506131860319500,3.859319580078125,-1.4907569885253906,-3.354365110397339,-0.2049729973077774
1750506131869924000,3.868924072265625,-0.5465480089187622,-3.6430859565734863,-0.205143004655838
1750506131879528700,3.87852880859375,-0.2587850093841553,-3.6877739429473877,-0.051430001854896545
1750506131889133300,3.88813330078125,-0.19228899478912354,-3.622598886489868,-0.07589399814605713
1750506131898738000,3.897738037109375,0.47779300808906555,-3.669955015182495,-0.3044370114803314
1750506131908342500,3.907342529296875,1.4333909749984741,-3.820863962173462,-0.5222309827804565
1750506131917947100,3.916947021484375,3.077749013900757,-4.134483814239502,-0.42021098732948303
1750506131927551700,3.9265517578125,4.7118940353393555,-4.7482008934021,0.06201799958944321
1750506131937156000,3.936156005859375,5.003322124481201,-4.788055896759033,0.4892840087413788
1750506131946761000,3.945760986328125,4.694497108459473,-4.386909008026123,0.5026040077209473
1750506131956365600,3.955365478515625,3.7422120571136475,-4.072922229766846,0.1661289930343628
1750506131965970200,3.96497021484375,3.2802810668945312,-3.3143301010131836,-0.7199440002441406
1750506131975574500,3.974574462890625,4.542899131774902,-3.164011001586914,-0.785431981086731
1750506131985179100,3.98417919921875,5.068330764770508,-3.557486057281494,-0.27746400237083435
1750506131994783700,3.99378369140625,4.645240783691406,-3.6752469539642334,0.2638759911060333
1750506132004388400,4.003388427734375,3.858660936355591,-3.8024349212646484,0.9720069766044617
1750506132013993000,4.012992919921875,2.4378321170806885,-3.57244610786438,1.0617300271987915
1750506132023597600,4.02259765625,2.177496910095215,-3.246807098388672,0.6735060214996338
1750506132033202200,4.0322021484375,3.81571888923645,-3.364150047302246,0.670760989189148
1750506132042806800,4.041806884765625,5.36507511138916,-3.5912020206451416,0.45209598541259766
1750506132052411100,4.0514111328125,6.329308986663818,-3.455379009246826,0.4561839997768402
1750506132062016000,4.06101611328125,6.039124011993408,-3.455765962600708,0.770334005355835
1750506132071620600,4.07062060546875,4.382389068603516,-3.429663896560669,1.1651300191879272
1750506132081225200,4.08022509765625,2.460632085800171,-3.1340019702911377,1.1934469938278198
1750506132090829600,4.08982958984375,1.37300705909729,-2.5241260528564453,0.6815130114555359
1750506132100434200,4.09943408203125,1.7810699939727783,-1.7972899675369263,-0.26629701256752014
1750506132110038800,4.109038818359375,3.7601070404052734,-1.5341639518737793,-0.7107030153274536
1750506132119643400,4.118643310546875,5.275546073913574,-1.8924529552459717,-0.42990899085998535
1750506132129248000,4.128248046875,5.183547019958496,-2.197503089904785,0.3391839861869812
1750506132138852600,4.1378525390625,4.010961055755615,-2.266637086868286,0.993012011051178
1750506132148457200,4.147457275390625,3.034074068069458,-2.2743020057678223,1.074942946434021
1750506132158061800,4.157061767578125,2.7539970874786377,-2.0614659786224365,0.6122419834136963
1750506132167666200,4.166666259765625,2.290402889251709,-1.818977952003479,0.11068399995565414
1750506132177271000,4.17627099609375,1.787701964378357,-1.5704729557037354,-0.24773100018501282
1750506132186875600,4.185875732421875,1.2356690168380737,-1.5012530088424683,-0.3296560049057007
1750506132196480000,4.19547998046875,0.5552150011062622,-1.3823970556259155,-0.5292009711265564
1750506132206084900,4.2050849609375,0.0920720025897026,-1.2291710376739502,-0.7134820222854614
1750506132215689500,4.214689453125,-0.059491001069545746,-1.0813490152359009,-1.2046960592269897
1750506132225293800,4.2242939453125,1.2124899625778198,-0.9219549894332886,-1.5552129745483398
1750506132234898700,4.233898681640625,1.8572759628295898,-1.2274600267410278,-1.3702069520950317
1750506132244503300,4.24350341796875,1.0300060510635376,-1.3618420362472534,-0.8395479917526245
1750506132254107600,4.253107666015625,0.6331149935722351,-1.3321709632873535,-0.43576401472091675
1750506132263712300,4.262712158203125,0.832023024559021,-1.2186330556869507,-0.35273799300193787
1750506132273316900,4.27231689453125,1.2420990467071533,-1.0075680017471313,-0.47685500979423523
1750506132282921500,4.28192138671875,1.6015269756317139,-0.8839719891548157,-0.5098320245742798
1750506132292526000,4.291526123046875,1.628159999847412,-0.962863028049469,-0.4097769856452942
1750506132302130700,4.301130615234375,1.2098150253295898,-1.0056630373001099,-0.22564999759197235
1750506132311735300,4.3107353515625,0.7538300156593323,-0.8356930017471313,-0.35948699712753296
1750506132321340000,4.32033984375,0.8058440089225769,-0.6590229868888855,-0.4566980004310608
1750506132330944500,4.329944580078125,0.7518590092658997,-0.6783900260925293,-0.44383999705314636
1750506132340549400,4.33954931640625,0.504967987537384,-0.6980739831924438,-0.16740299761295319
1750506132350153500,4.349153564453125,0.25262901186943054,-0.8104100227355957,0.06135300174355507
1750506132359758300,4.35875830078125,0.18570899963378906,-0.8213239908218384,0.12890100479125977
1750506132369363000,4.368363037109375,0.18368999660015106,-0.7279700040817261,0.11079999804496765
1750506132378967600,4.377967529296875,0.23224399983882904,-0.7572270035743713,0.08929900079965591
1750506132388572200,4.387572265625,0.5048679709434509,-0.726747989654541,0.023401999846100807
1750506132398176800,4.3971767578125,0.735319972038269,-0.7781379818916321,0.06832099705934525
1750506132407781400,4.406781494140625,0.7895429730415344,-0.8717690110206604,0.2536010146141052
1750506132417386000,4.416385986328125,0.6416850090026855,-0.8536180257797241,0.4062260091304779
1750506132426990300,4.425990234375,0.4012109935283661,-0.7861449718475342,0.43775999546051025
1750506132436595000,4.435594970703125,0.3052459955215454,-0.6424390077590942,0.33305901288986206
1750506132446199600,4.445199462890625,0.14786100387573242,-0.5726490020751953,0.16154499351978302
1750506132455804400,4.454804443359375,-0.022437000647187233,-0.4827420115470886,0.10053499788045883
1750506132465408800,4.46440869140625,-0.19887199997901917,-0.44807299971580505,0.11074899882078171
1750506132475013400,4.474013427734375,-0.2898179888725281,-0.4489080011844635,0.19533300399780273
1750506132484618000,4.483617919921875,-0.22747500240802765,-0.37898701429367065,0.09718000143766403
1750506132494222600,4.49322265625,-0.23395699262619019,-0.27538999915122986,0.003607999999076128
1750506132503827200,4.5028271484375,-0.2689580023288727,-0.17380599677562714,-0.2517479956150055
1750506132513431800,4.512431884765625,-0.18193799257278442,-0.07217500358819962,-0.3276819884777069
1750506132523036200,4.5220361328125,-0.16333499550819397,-0.05915199965238571,-0.2896139919757843
1750506132532641000,4.53164111328125,-0.12263700366020203,-0.1231599971652031,-0.11297000199556351
1750506132542245400,4.541245361328125,0.19859099388122559,-0.24622100591659546,0.0214610006660223
1750506132551850000,4.55085009765625,0.4014819860458374,-0.2685900032520294,0.0440559983253479
1750506132561454600,4.56045458984375,0.47038498520851135,-0.21988800168037415,0.03470800071954727
1750506132571059200,4.57005908203125,0.4157389998435974,-0.14516200125217438,0.0017040000529959798
1750506132580663800,4.579663818359375,0.19687099754810333,-0.0704680010676384,-0.08193200081586838
1750506132590268400,4.589268310546875,0.0826369971036911,-0.028968999162316322,-0.12947000563144684
1750506132599873000,4.598873046875,-0.0960799977183342,-0.03761500120162964,-0.13318899273872375
1750506132609477600,4.6084775390625,-0.18787899613380432,-0.00711299991235137,-0.16143299639225006
1750506132619082200,4.618082275390625,-0.13764600455760956,-0.07019499689340591,-0.13861699402332306
1750506132628686800,4.627686767578125,-0.11476200073957443,-0.082225002348423,-0.031132999807596207
1750506132638291500,4.63729150390625,-0.15513700246810913,-0.1577180027961731,0.04705600067973137
1750506132647895800,4.646895751953125,-0.1680160015821457,-0.20298199355602264,0.13964900374412537
1750506132657500400,4.65650048828125,-0.23981499671936035,-0.1407579928636551,0.08997900038957596
1750506132667105000,4.66610498046875,-0.20639100670814514,-0.13140900433063507,0.04987100139260292
1750506132676709600,4.675709716796875,-0.12339399755001068,-0.1445319950580597,0.011351999826729298
1750506132686314200,4.685314208984375,0.03723299875855446,-0.1330309957265854,-0.083187997341156
1750506132695918800,4.6949189453125,0.09408599883317947,-0.1767449975013733,-0.05979200080037117
1750506132705523500,4.7045234375,0.0741100013256073,-0.20238900184631348,0.02969999983906746
1750506132715128000,4.714128173828125,0.10849899798631668,-0.20620499551296234,0.0871720016002655
1750506132724732700,4.723732666015625,0.08067599684000015,-0.2095009982585907,0.12101099640130997
1750506132734337300,4.733337158203125,0.049274999648332596,-0.14168499410152435,0.11757399886846542
1750506132743942000,4.74294189453125,0.15458400547504425,-0.14208799600601196,0.059324998408555984
1750506132753546500,4.75254638671875,0.22196100652217865,-0.11305800080299377,0.006818000227212906
1750506132763151000,4.762151123046875,0.25409600138664246,-0.10622400045394897,-0.0812700018286705
1750506132772755500,4.77175537109375,0.21294300258159637,-0.13757899403572083,0.0004039999912492931
1750506132782360000,4.781360107421875,0.0267340000718832,-0.13532599806785583,0.0130390003323555
1750506132791964700,4.790964599609375,-0.07698100060224533,-0.09692200273275375,0.07249099761247635
1750506132801569300,4.8005693359375,-0.16402100026607513,-0.06515999883413315,0.019235000014305115
1750506132811174000,4.810173828125,-0.1802770048379898,0.02486100047826767,-0.03036399930715561
1750506132820778500,4.819778564453125,-0.10047399997711182,0.06317500025033951,-0.11546000093221664
1750506132830383000,4.829383056640625,0.06230299919843674,0.05324000120162964,-0.08280300348997116
1750506132839987700,4.83898779296875,0.1046919971704483,-0.004796000197529793,0.002756000030785799
1750506132849592300,4.84859228515625,0.07738099992275238,-0.057082999497652054,0.0769829973578453
1750506132859197000,4.858197021484375,-0.04256400093436241,-0.06641200184822083,0.006380999926477671
1750506132868801500,4.867801513671875,-0.1446550041437149,-0.029238000512123108,-0.07517600059509277
1750506132878406100,4.87740625,-0.20295900106430054,0.005549000110477209,-0.1764259934425354
1750506132888010800,4.8870107421875,-0.26383501291275024,0.005404000170528889,-0.1355389952659607
1750506132897615000,4.896614990234375,-0.3180760145187378,0.0003809999907389283,-0.06826400011777878
1750506132907219700,4.9062197265625,-0.18227200210094452,-0.013987000100314617,0.0013089999556541443
1750506132916824300,4.91582421875,-0.06971000134944916,-0.020671000704169273,0.07370200008153915
1750506132926429000,4.925428955078125,-0.04303000122308731,0.01721400022506714,0.058152999728918076
1750506132936033500,4.935033447265625,0.10093700140714645,0.0426350012421608,0.009891999885439873
1750506132945638100,4.94463818359375,0.11548999696969986,0.010568000376224518,-0.0012789999600499868
1750506132955242800,4.95424267578125,0.13975800573825836,-0.04109099879860878,0.0598829984664917
1750506132964847400,4.963847412109375,0.24499499797821045,-0.05835400149226189,0.016898000612854958
1750506132974452000,4.973451904296875,0.28784599900245667,-0.06808000057935715,0.02950800023972988
1750506132984056600,4.983056640625,0.18804800510406494,-0.05383199825882912,0.03718400001525879
1750506132993661200,4.9926611328125,0.050464000552892685,-0.07592999935150146,0.1235629990696907
1750506133003265800,5.002265869140625,-0.07667499780654907,-0.030378000810742378,0.13684499263763428
1750506133012870100,5.0118701171875,-0.22142699360847473,0.034706998616456985,0.08795899897813797
1750506133022474800,5.021474853515625,-0.2817089855670929,0.05196399986743927,0.03566500172019005
1750506133032079400,5.031079345703125,-0.2345770001411438,0.04289500042796135,-0.003980000037699938
1750506133041684000,5.04068408203125,-0.15949200093746185,0.002188999904319644,0.012013999745249748
1750506133051288600,5.05028857421875,0.019700000062584877,-0.028195999562740326,-0.009088999591767788
1750506133060893200,5.05989306640625,0.07583999633789062,-0.05137399956583977,0.010684999637305737
1750506133070497800,5.069497802734375,0.022662999108433723,-0.031053999438881874,0.036997999995946884
1750506133080102400,5.079102294921875,0.026983000338077545,-0.032117001712322235,0.056349001824855804
1750506133089707300,5.088707275390625,-0.1690489947795868,0.0033489998895674944,0.021789999678730965
1750506133099311600,5.0983115234375,-0.26586800813674927,0.043375998735427856,0.04625200107693672
1750506133108916200,5.107916259765625,-0.22741100192070007,-0.015912000089883804,0.057502999901771545
1750506133118520600,5.1175205078125,-0.1021059975028038,-0.024893000721931458,0.05146300047636032
1750506133128125400,5.12712548828125,-0.04610000178217888,-0.0037159998901188374,0.014062999747693539
1750506133137730000,5.13672998046875,0.11728499829769135,0.024877000600099564,-0.09115999937057495
1750506133147334700,5.146334716796875,0.16415099799633026,0.07715000212192535,-0.11227300018072128
1750506133156939300,5.155939208984375,0.11906599998474121,0.11614199727773666,-0.06498099863529205
1750506133166544000,5.1655439453125,0.06505399942398071,0.10566200315952301,-0.036834001541137695
1750506133176148500,5.1751484375,-0.046213001012802124,0.056387998163700104,-0.007149999961256981
1750506133185753000,5.184753173828125,-0.014592000283300877,-0.014441999606788158,0.057172998785972595
1750506133195357400,5.194357421875,-0.11046899855136871,-0.06472299993038177,0.02375200018286705
1750506133204962000,5.203962158203125,-0.03610499948263168,-0.00823500007390976,-0.019561000168323517
1750506133214566700,5.213566650390625,0.0057830000296235085,-0.05051900073885918,-0.005104000214487314
1750506133224171300,5.223171142578125,-0.05272800102829933,-0.02069300040602684,0.034338999539613724
1750506133233775900,5.23277587890625,-0.01826299913227558,-0.037400998175144196,0.04601699858903885
1750506133243380500,5.24238037109375,-0.05092500150203705,-0.07773900032043457,0.08603499829769135
1750506133252985000,5.251985107421875,-0.13358399271965027,-0.11215700209140778,0.0530720017850399
1750506133262589700,5.261589599609375,-0.26139700412750244,-0.12633100152015686,0.025035999715328217
1750506133272194300,5.2711943359375,-0.3008750081062317,-0.13017800450325012,-0.005444999784231186
1750506133281799000,5.280798828125,-0.3340719938278198,-0.12168099731206894,0.010990000329911709
1750506133291403500,5.290403564453125,-0.23864400386810303,-0.11616499722003937,-0.028717000037431717
1750506133301008100,5.300008056640625,-0.04881399869918823,-0.11189799755811691,-0.037957001477479935
1750506133310612700,5.30961279296875,0.01169000007212162,-0.1028050035238266,-0.007973999716341496
1750506133320217300,5.31921728515625,-0.040752001106739044,-0.14731399714946747,0.0014809999847784638
1750506133329822000,5.328822021484375,-0.1356479972600937,-0.1070059984922409,0.03338500112295151
1750506133339426600,5.338426513671875,-0.30652499198913574,-0.06544800102710724,0.08110000193119049
1750506133349031200,5.34803125,-0.457396000623703,-0.05447699874639511,0.0997140035033226
1750506133358635800,5.3576357421875,-0.5854349732398987,0.01990699954330921,0.1480640023946762
1750506133368240000,5.367240234375,-0.6882929801940918,0.09283000230789185,0.14975200593471527
1750506133377844700,5.3768447265625,-0.8616679906845093,0.1370059996843338,0.10755400359630585
1750506133387449300,5.386449462890625,-1.0657459497451782,0.1193699985742569,0.12304899841547012
1750506133397054000,5.396053955078125,-1.3452019691467285,0.06992299854755402,0.2822340130805969
1750506133406658600,5.405658447265625,-1.1426910161972046,0.0872730016708374,0.29288798570632935
1750506133416263200,5.41526318359375,0.06803400069475174,0.11075399816036224,0.4855149984359741
1750506133425867800,5.42486767578125,1.2474969625473022,0.1759369969367981,0.5156769752502441
1750506133435472400,5.434472412109375,2.6654019355773926,0.30608201026916504,0.24806800484657288
1750506133445077000,5.444076904296875,3.425823926925659,0.48347899317741394,0.16929300129413605
1750506133454681600,5.453681640625,3.765727996826172,0.4623759984970093,0.031706999987363815
1750506133464286000,5.463285888671875,4.683030128479004,0.3858160078525543,-0.046803999692201614
1750506133473890600,5.472890625,6.425919055938721,0.09623000025749207,-0.059365998953580856
1750506133483495200,5.4824951171875,9.76307201385498,-0.6303809881210327,-0.37387898564338684
1750506133493099800,5.492099853515625,13.647759437561035,-1.624068021774292,-0.6787750124931335
1750506133502704400,5.501704345703125,15.868876457214355,-2.9130098819732666,-0.8560619950294495
1750506133512309000,5.51130908203125,15.619495391845703,-4.117888927459717,-1.0657390356063843
1750506133521913600,5.52091357421875,11.836223602294922,-4.672967910766602,-0.08089900016784668
1750506133531518200,5.530518310546875,7.852827072143555,-4.917919158935547,0.660618007183075
1750506133541122800,5.540122802734375,5.325470924377441,-4.5879411697387695,0.442564994096756
1750506133550727400,5.5497275390625,3.2961840629577637,-3.271048069000244,-0.954990029335022
1750506133560332000,5.55933203125,3.4778189659118652,-2.793621063232422,-1.5855449438095093
1750506133569936600,5.5689365234375,2.8502519130706787,-3.194324016571045,-1.6307369470596313
1750506133579541000,5.578541015625,1.4496639966964722,-3.1054298877716064,-1.5341299772262573
1750506133589145600,5.5881455078125,1.0358459949493408,-3.69083309173584,-0.905718982219696
1750506133598750200,5.597750244140625,-0.4666779935359955,-4.098328113555908,-0.4988029897212982
1750506133608354800,5.607354736328125,-3.1391420364379883,-4.001812934875488,-0.17574599385261536
1750506133617959400,5.61695947265625,-5.973302841186523,-3.6653809547424316,-0.027468999847769737
1750506133627564000,5.62656396484375,-8.161639213562012,-2.7195239067077637,-0.22458499670028687
1750506133637168600,5.636168701171875,-9.340646743774414,-1.7416139841079712,-0.43256399035453796
1750506133646773200,5.645773193359375,-9.508182525634766,-1.4962120056152344,-0.7198759913444519
1750506133656377600,5.655377685546875,-8.416099548339844,-1.6381380558013916,-0.6838819980621338
1750506133665982200,5.664982177734375,-7.1598920822143555,-2.291110038757324,-0.38400501012802124
1750506133675587000,5.674587158203125,-6.927351951599121,-2.5903990268707275,-0.46170300245285034
1750506133685191700,5.684191650390625,-7.238558769226074,-2.488210916519165,-0.4866020083427429
1750506133694796000,5.693796142578125,-7.929312229156494,-2.2485570907592773,-0.5097280144691467
1750506133704400600,5.703400634765625,-8.608991622924805,-1.878587007522583,-0.5846689939498901
1750506133714005200,5.713005126953125,-8.805338859558105,-1.7057130336761475,-0.5330650210380554
1750506133723609900,5.72260986328125,-8.723154067993164,-1.745290994644165,-0.3101139962673187
1750506133733214500,5.73221435546875,-8.489344596862793,-1.7933429479599,-0.07419899851083755
1750506133742819000,5.741819091796875,-8.22993278503418,-1.8211820125579834,0.012307999655604362
1750506133752423400,5.75142333984375,-7.791411876678467,-1.9235119819641113,-0.026838000863790512
1750506133762028300,5.7610283203125,-7.018982887268066,-1.9924520254135132,-0.2505219876766205
1750506133771632600,5.770632568359375,-5.850631237030029,-2.1481590270996094,-0.5378289818763733
1750506133781237200,5.7802373046875,-5.090353965759277,-2.200648069381714,-0.6831640005111694
1750506133790841900,5.789841796875,-4.983425140380859,-1.9032390117645264,-0.8465359807014465
1750506133800446500,5.799446533203125,-5.296562194824219,-1.3165730237960815,-1.2217479944229126
1750506133810051000,5.809051025390625,-5.179203033447266,-1.1119849681854248,-1.5120879411697388
1750506133819655700,5.81865576171875,-4.436264991760254,-1.2776819467544556,-1.377655029296875
1750506133829260300,5.82826025390625,-3.8255019187927246,-1.782654047012329,-1.0710179805755615
1750506133838865000,5.837864990234375,-2.9433019161224365,-2.6344480514526367,-0.44999799132347107
1750506133848469500,5.847469482421875,-1.9834519624710083,-3.553704023361206,0.21807199716567993
1750506133858073900,5.857073974609375,-1.0006330013275146,-3.808465003967285,-0.1466439962387085
1750506133867678500,5.866678466796875,0.48144999146461487,-3.75677490234375,-0.29868900775909424
1750506133877283000,5.876282958984375,1.943755030632019,-3.630772113800049,-1.163789987564087
1750506133886887700,5.8858876953125,3.8903660774230957,-3.0305380821228027,-1.894987940788269
1750506133896492300,5.8954921875,5.368800163269043,-3.146912097930908,-1.4241509437561035
1750506133906097000,5.905096923828125,5.289673805236816,-3.126188039779663,-0.8592829704284668
1750506133915701500,5.914701416015625,4.713220119476318,-3.201616048812866,0.09016399830579758
1750506133925306000,5.92430615234375,4.566204071044922,-3.5590460300445557,0.9896849989891052
1750506133934910700,5.93391064453125,5.287561893463135,-3.574690103530884,1.34614896774292
1750506133944515300,5.943515380859375,6.429945945739746,-3.685713052749634,1.7826709747314453
1750506133954119700,5.95311962890625,6.621908187866211,-3.368208885192871,1.4853140115737915
1750506133963724300,5.962724365234375,6.324741840362549,-2.402479887008667,0.5719109773635864
1750506133973329000,5.972328857421875,6.261777877807617,-1.8478889465332031,-0.25441300868988037
1750506133982933800,5.981933837890625,6.299205780029297,-1.783674955368042,-0.4600139856338501
1750506133992538000,5.9915380859375,5.699811935424805,-2.0660998821258545,-0.009868999943137169
1750506134002143000,6.00114306640625,4.772040843963623,-2.274833917617798,0.6284540295600891
1750506134011747300,6.010747314453125,3.804595947265625,-2.322066068649292,0.9027140140533447
1750506134021352000,6.02035205078125,3.0858309268951416,-1.973533034324646,0.6458820104598999
1750506134030956500,6.02995654296875,3.116326093673706,-1.4877610206604004,0.2933950126171112
1750506134040561200,6.03956103515625,3.4047040939331055,-1.2719999551773071,-0.04092700034379959
1750506134050165800,6.049165771484375,3.2754271030426025,-1.2339119911193848,-0.0601859986782074
1750506134059770400,6.058770263671875,2.7654590606689453,-1.2369929552078247,0.0849049985408783
1750506134069375000,6.068375,2.0967071056365967,-1.3352689743041992,0.2727949917316437
1750506134078979300,6.077979248046875,1.283458948135376,-1.2303080558776855,0.22431999444961548
1750506134088584200,6.087584228515625,0.6319230198860168,-0.9720190167427063,-0.11688099801540375
1750506134098188500,6.0971884765625,0.36822599172592163,-0.6574559807777405,-0.5120499730110168
1750506134107793200,6.106793212890625,0.4679720103740692,-0.5082110166549683,-0.6179109811782837
1750506134117397800,6.116397705078125,0.6366599798202515,-0.5658299922943115,-0.4143120050430298
1750506134127002400,6.12600244140625,0.7500939965248108,-0.7604799866676331,-0.11054400354623795
1750506134136607000,6.13560693359375,0.6689109802246094,-0.873045027256012,0.15639199316501617
1750506134146211600,6.145211669921875,0.2793079912662506,-0.8818349838256836,0.2669230103492737
1750506134155816200,6.154816162109375,-0.10754700005054474,-0.8069999814033508,0.11375799775123596
1750506134165420800,6.1644208984375,-0.15756699442863464,-0.6376910209655762,-0.06585799902677536
1750506134175025200,6.174025146484375,-0.1053910031914711,-0.5630840063095093,-0.22370100021362305
1750506134184630000,6.183630126953125,-0.0939909964799881,-0.5271580219268799,-0.2936759889125824
1750506134194234400,6.193234375,-0.02000799961388111,-0.4659680128097534,-0.35985100269317627
1750506134203839000,6.2028388671875,-0.01999099925160408,-0.5432829856872559,-0.21881799399852753
1750506134213443300,6.212443359375,0.06123499944806099,-0.6046130061149597,-0.07338199764490128
1750506134223048200,6.222048095703125,0.1663990020751953,-0.631263017654419,0.009530000388622284
1750506134232652800,6.23165283203125,0.3600679934024811,-0.575954020023346,-0.02322000078856945
1750506134242257400,6.24125732421875,0.4877470135688782,-0.5224390029907227,-0.017257999628782272
1750506134251862000,6.250862060546875,0.5213509798049927,-0.5058799982070923,-0.08017700165510178
1750506134261466400,6.26046630859375,0.42418500781059265,-0.4221949875354767,-0.14237099885940552
1750506134271071000,6.270071044921875,0.1835470050573349,-0.40590900182724,-0.09484200179576874
1750506134280675600,6.279675537109375,0.01776999980211258,-0.4118410050868988,-0.02822900004684925
1750506134290280200,6.2892802734375,-0.06451799720525742,-0.40216800570487976,0.027638999745249748
1750506134299884500,6.298884521484375,0.02321000024676323,-0.3614960014820099,-0.027403999119997025
1750506134309489400,6.308489501953125,0.2368369996547699,-0.36896198987960815,0.01343000028282404
1750506134319094000,6.318093994140625,0.4791420102119446,-0.3786489963531494,0.09011200070381165
1750506134328698400,6.327698486328125,0.6373080015182495,-0.4401000142097473,0.170632004737854
1750506134338303200,6.33730322265625,0.6045299768447876,-0.47365400195121765,0.22678500413894653
1750506134347907800,6.346907958984375,0.3348560035228729,-0.4455460011959076,0.2173279970884323
1750506134357512400,6.356512451171875,0.011369000189006329,-0.32295700907707214,0.06850600242614746
1750506134367116800,6.36611669921875,-0.1888040006160736,-0.18491500616073608,-0.008336000144481659
1750506134376721400,6.375721435546875,-0.30299699306488037,-0.09032099694013596,-0.0447550006210804
1750506134386326000,6.385325927734375,-0.27811399102211,-0.06833600252866745,-0.08906599879264832
1750506134395931000,6.394930908203125,-0.10625100135803223,-0.09090100228786469,-0.030964000150561333
1750506134405535500,6.404535400390625,-0.06679899990558624,-0.14494800567626953,0.10437899827957153
1750506134415139800,6.414139892578125,-0.2474990040063858,-0.23950399458408356,0.20990000665187836
1750506134424744400,6.423744384765625,-0.3399850130081177,-0.29931899905204773,0.23057599365711212
1750506134434349000,6.43334912109375,-0.47810301184654236,-0.2774600088596344,0.1737380027770996
1750506134443953700,6.44295361328125,-0.4726549983024597,-0.22011800110340118,0.007337000221014023
1750506134453558300,6.452558349609375,-0.3595679998397827,-0.11584699898958206,-0.19333399832248688
1750506134463162600,6.46216259765625,-0.3958899974822998,-0.020041000097990036,-0.2232069969177246
1750506134472767500,6.471767578125,-0.3744269907474518,-0.02063699997961521,-0.16576099395751953
1750506134482371800,6.481371826171875,-0.31595298647880554,-0.04449800029397011,-0.14124399423599243
1750506134491976400,6.4909765625,-0.18562699854373932,-0.0747079998254776,-0.14673300087451935
1750506134501581000,6.5005810546875,0.1422950029373169,-0.08202499896287918,-0.1067499965429306
1750506134511185700,6.510185546875,0.4381529986858368,-0.13341300189495087,-0.014794999733567238
1750506134520790300,6.519790283203125,0.5347890257835388,-0.1111219972372055,0.021097000688314438
1750506134530395000,6.529394775390625,0.4514560103416443,-0.08377300202846527,0.04985500127077103
1750506134539999500,6.53899951171875,0.48717200756073,-0.020142000168561935,0.015402999706566334
1750506134549604000,6.54860400390625,0.5270119905471802,0.02226400002837181,0.006004000082612038
1750506134559208700,6.558208740234375,0.5011249780654907,0.03725000098347664,-0.040463998913764954
1750506134568813000,6.56781298828125,0.4734809994697571,0.04826999828219414,-0.07457000017166138
1750506134578417700,6.577417724609375,0.3035309910774231,0.06834899634122849,-0.07917200028896332
1750506134588022300,6.587022216796875,0.16742399334907532,0.0524899996817112,0.044068001210689545
1750506134597627000,6.596626953125,0.14182400703430176,0.05288900062441826,0.06129800155758858
1750506134607231500,6.6062314453125,0.11961399763822556,0.07929500192403793,0.03420199826359749
1750506134616835800,6.6158359375,0.049338001757860184,0.08778399974107742,0.06466399878263474
1750506134626440700,6.625440673828125,-0.24608300626277924,0.0042409999296069145,0.12197200208902359
1750506134636045300,6.63504541015625,-0.42000600695610046,0.026220999658107758,0.1001880019903183
1750506134645650000,6.64464990234375,-0.3016650080680847,-0.049577999860048294,0.026494000107049942
1750506134655254300,6.654254150390625,-0.041138000786304474,-0.06097399815917015,-0.028862999752163887
1750506134664859000,6.66385888671875,0.06925100088119507,-0.07526999711990356,-0.03936700150370598
1750506134674463500,6.67346337890625,-0.05881800130009651,-0.07214800268411636,0.04674699902534485
1750506134684068000,6.683068115234375,-0.2580290138721466,-0.07265900075435638,0.07414200156927109
1750506134693672700,6.692672607421875,-0.331932008266449,-0.029308000579476357,0.07796400040388107
1750506134703277300,6.70227734375,-0.2035450041294098,0.0024800000246614218,0.006347000133246183
1750506134712881700,6.711881591796875,-0.05076399818062782,0.0005810000002384186,-0.03337699919939041
1750506134722486300,6.721486328125,0.04799100011587143,-0.06970799714326859,0.036906998604536057
1750506134732091000,6.7310908203125,0.06767699867486954,-0.14687900245189667,0.1492139995098114
1750506134741695500,6.740695556640625,0.10002200305461884,-0.17086200416088104,0.20365700125694275
1750506134751300000,6.750300048828125,0.15986700356006622,-0.12181200087070465,0.10951399803161621
1750506134760904700,6.75990478515625,0.11776000261306763,-0.10429099947214127,0.05167499929666519
1750506134770509000,6.769509033203125,-0.018769999966025352,-0.03239300101995468,0.004627999849617481
1750506134780114000,6.779114013671875,-0.0534759983420372,-0.022002000361680984,-0.06208899989724159
1750506134789718500,6.788718505859375,-0.15356199443340302,-0.03058299981057644,-0.028435999527573586
1750506134799323000,6.798322998046875,-0.17645999789237976,0.015142000280320644,0.05603700131177902
1750506134808927500,6.807927490234375,-0.066430002450943,-0.022269999608397484,0.13068999350070953
1750506134818532000,6.817531982421875,-0.04185900092124939,-0.011896999552845955,0.11358299851417542
1750506134828136400,6.827136474609375,-0.02468400076031685,0.00862099975347519,0.09891100227832794
1750506134837741000,6.836740966796875,-0.04430500045418739,0.026468999683856964,0.009204000234603882
1750506134847345700,6.846345703125,-0.13414399325847626,0.06362699717283249,-0.07012200355529785
1750506134856950500,6.855950439453125,-0.2013700008392334,0.13391800224781036,-0.19060200452804565
1750506134866555000,6.865554931640625,-0.15863299369812012,0.09632399678230286,-0.22676199674606323
1750506134876159700,6.87515966796875,-0.09470599889755249,0.06922300159931183,-0.1312430053949356
1750506134885764000,6.88476416015625,-0.0025710000190883875,-0.0022529999259859324,-0.07658799737691879
1750506134895368700,6.89436865234375,0.11966100335121155,0.0034489999525249004,-0.029711000621318817
1750506134904973300,6.903973388671875,0.10160399973392487,0.011345000006258488,-0.024063000455498695
1750506134914578000,6.913577880859375,0.04162999987602234,-0.005565000232309103,0.032228998839855194
1750506134924182300,6.923182373046875,-0.05036399886012077,-0.05786700174212456,0.05933000147342682
1750506134933787100,6.932787109375,-0.0775889977812767,-0.12782900035381317,0.058671001344919205
1750506134943391500,6.9423916015625,-0.05347900092601776,-0.06018399819731712,-0.061510998755693436
1750506134952996000,6.95199609375,-0.08600399643182755,-0.01881599985063076,-0.10936100035905838
1750506134962600700,6.9616005859375,-0.11738499999046326,-0.06212899833917618,-0.09002500027418137
1750506134972205300,6.971205322265625,-0.16463400423526764,-0.07675900310277939,-0.04705600067973137
1750506134981810000,6.980809814453125,-0.14057999849319458,-0.0558370016515255,0.012396000325679779
1750506134991414500,6.99041455078125,-0.1617400050163269,-0.013938999734818935,0.022729000076651573
1750506135001019100,7.00001904296875,-0.17948199808597565,0.027580000460147858,0.013206000439822674
1750506135010623700,7.009623779296875,-0.1293870061635971,0.05703800171613693,-0.003765000030398369
1750506135020228000,7.01922802734375,-0.043894000351428986,0.034210000187158585,-0.07303600013256073
1750506135029832700,7.028832763671875,0.032281000167131424,0.04155199974775314,-0.06486500054597855
1750506135039437300,7.038437255859375,0.17679500579833984,-0.02024500072002411,-0.05696000158786774
1750506135049042000,7.0480419921875,0.296642005443573,-0.024970000609755516,-0.02848299965262413
1750506135058646500,7.057646484375,0.28977900743484497,-0.015316000208258629,0.02078700065612793
1750506135068251100,7.067251220703125,0.1423719972372055,-0.009093999862670898,0.07461299747228622
1750506135077855700,7.076855712890625,-0.06657599657773972,0.008196000009775162,0.11996100097894669
1750506135087460000,7.086460205078125,-0.15024800598621368,0.05523199960589409,0.14721399545669556
1750506135097064700,7.096064697265625,-0.15059199929237366,0.04338499903678894,0.10648699849843979
1750506135106669300,7.10566943359375,-0.12449599802494049,0.02837900072336197,0.083296999335289
1750506135116274000,7.11527392578125,-0.11431699991226196,0.01057399995625019,0.13088299334049225
1750506135125878500,7.12487841796875,-0.1064319983124733,-0.051545001566410065,0.053679000586271286
1750506135135483100,7.134483154296875,-0.13189899921417236,-0.06682299822568893,0.02571599930524826
1750506135145087500,7.14408740234375,-0.29444798827171326,0.02060599997639656,-0.09594900161027908
1750506135154692400,7.1536923828125,-0.4565789997577667,0.05711999908089638,-0.1281690001487732
1750506135164296700,7.163296630859375,-0.4836989939212799,0.07899100333452225,-0.12486500293016434
1750506135173901300,7.1729013671875,-0.35852399468421936,0.06213900074362755,-0.08924300223588943
1750506135183506000,7.182505859375,-0.15986600518226624,0.0010639999527484179,-0.03302900120615959
1750506135193110500,7.192110595703125,-0.10117299854755402,-0.04975400120019913,0.045643001794815063
1750506135202715100,7.201715087890625,-0.29773399233818054,-0.0909850001335144,0.0671669989824295
1750506135212319700,7.21131982421875,-0.35770899057388306,0.003932999912649393,-0.03542200103402138
1750506135221924400,7.22092431640625,-0.4567149877548218,0.07195200026035309,-0.14472199976444244
1750506135231528700,7.23052880859375,-0.41978898644447327,0.07402399927377701,-0.15876999497413635
1750506135241133300,7.24013330078125,-0.23609000444412231,0.08559100329875946,-0.07711300253868103
1750506135250738000,7.249738037109375,0.11647100001573563,0.023414000868797302,0.06857699900865555
1750506135260342500,7.259342529296875,0.4394029974937439,-0.024296000599861145,0.2625249922275543
1750506135269947100,7.268947021484375,0.42411699891090393,0.012736000120639801,0.40302199125289917
1750506135279551700,7.2785517578125,0.229776993393898,0.03523800149559975,0.4846940040588379
1750506135289156400,7.28815625,0.13335800170898438,0.09537500143051147,0.6140249967575073
1750506135298760700,7.2977607421875,0.3248269855976105,0.29273998737335205,0.459634006023407
1750506135308365300,7.307365234375,1.9114550352096558,0.4971640110015869,-0.383635014295578
1750506135317970000,7.316969970703125,5.795441150665283,0.559116005897522,-1.1452510356903076
1750506135327574500,7.326574462890625,11.571736335754395,-0.5437830090522766,-1.2836339473724365
1750506135337179100,7.33617919921875,17.09979248046875,-2.0797500610351562,-0.4026379883289337
1750506135346783500,7.345783447265625,18.431798934936523,-4.335912227630615,0.5158759951591492
1750506135356388400,7.355388427734375,16.5792236328125,-4.9563889503479,1.1045769453048706
1750506135365993000,7.364992919921875,13.938199043273926,-5.057584762573242,0.3945600092411041
1750506135375597300,7.374597412109375,13.997983932495117,-4.755685806274414,-1.2950559854507446
1750506135385202000,7.384201904296875,12.88791275024414,-4.912125110626221,-2.2835779190063477
1750506135394806500,7.393806640625,9.498491287231445,-4.745594024658203,-3.261996030807495
1750506135404411100,7.4034111328125,6.6041059494018555,-4.3603949546813965,-3.205225944519043
1750506135414015700,7.413015625,2.8920350074768066,-4.4874348640441895,-2.473845958709717
1750506135423620000,7.4226201171875,-0.5056430101394653,-4.133307933807373,-1.6229079961776733
1750506135433225000,7.432224853515625,-2.932141065597534,-4.259122848510742,-0.5374659895896912
1750506135442829300,7.441829345703125,-6.0151238441467285,-4.091073036193848,0.13735899329185486
1750506135452434000,7.451433837890625,-8.219277381896973,-3.5403640270233154,0.3464660048484802
1750506135462038500,7.46103857421875,-8.973468780517578,-3.339787006378174,0.24701300263404846
1750506135471643000,7.470642822265625,-8.503063201904297,-3.202065944671631,0.03689400106668472
1750506135481247700,7.480247802734375,-7.640344142913818,-3.6324450969696045,0.10943199694156647
1750506135490852400,7.489852294921875,-8.05516242980957,-3.776060104370117,-0.0662589967250824
1750506135500456700,7.499456787109375,-8.671212196350098,-3.5101521015167236,-0.18752700090408325
1750506135510061300,7.509061279296875,-9.039581298828125,-3.266953945159912,-0.29165899753570557
1750506135519666000,7.518666015625,-9.570796966552734,-2.8710498809814453,-0.41052401065826416
1750506135529270500,7.5282705078125,-9.46926498413086,-2.783036947250366,-0.35240399837493896
1750506135538875100,7.537875244140625,-8.785099983215332,-2.665613889694214,-0.7478439807891846
1750506135548479500,7.5474794921875,-7.684038162231445,-2.394942045211792,-1.2638089656829834
1750506135558084400,7.55708447265625,-6.655738830566406,-2.2041590213775635,-1.4440970420837402
1750506135567688700,7.566688720703125,-5.953036785125732,-2.296876907348633,-1.1949779987335205
1750506135577293300,7.576293212890625,-5.775092124938965,-2.195067882537842,-1.026968002319336
1750506135586898000,7.58589794921875,-5.818566799163818,-2.0205230712890625,-0.8352779746055603
1750506135596502500,7.59550244140625,-5.550182819366455,-2.0344998836517334,-0.6692839860916138
1750506135606107100,7.605107177734375,-5.2921037673950195,-2.035607099533081,-0.49823498725891113
1750506135615711700,7.614711669921875,-4.938860893249512,-2.2019989490509033,-0.30306199193000793
1750506135625316000,7.624316162109375,-4.258543968200684,-2.2518150806427,-0.19691500067710876
1750506135634920700,7.633920654296875,-3.571945905685425,-2.2815589904785156,-0.24388200044631958
1750506135644525300,7.643525390625,-3.070496082305908,-2.1982688903808594,-0.5892199873924255
1750506135654130000,7.6531298828125,-1.8576420545578003,-2.3551900386810303,-0.4947980046272278
1750506135663734500,7.662734619140625,-0.4457870125770569,-3.2227981090545654,0.041338000446558
1750506135673339100,7.672339111328125,0.7051370143890381,-3.99835205078125,0.7111520171165466
1750506135682943500,7.681943603515625,1.3148319721221924,-4.217377185821533,0.6317110061645508
1750506135692548000,7.691548095703125,0.7767239809036255,-3.8828399181365967,0.3567129969596863
1750506135702152700,7.701152587890625,0.17208200693130493,-3.145972967147827,-0.6527760028839111
1750506135711757300,7.71075732421875,0.9039549827575684,-3.223604917526245,-1.2049740552902222
1750506135721362000,7.72036181640625,2.022027015686035,-4.199304103851318,-0.45679500699043274
1750506135730966500,7.729966552734375,2.1330549716949463,-5.0557050704956055,0.23157699406147003
1750506135740571100,7.739571044921875,1.7546600103378296,-5.616238117218018,0.8814700245857239
1750506135750175500,7.749175537109375,2.1488499641418457,-5.9873881340026855,-0.3221929967403412
1750506135759780000,7.758780029296875,5.749156951904297,-5.297761917114258,-2.024260997772217
1750506135769384700,7.768384765625,10.097452163696289,-5.815165996551514,-1.5125349760055542
1750506135778989300,7.7779892578125,12.125636100769043,-6.4475579261779785,0.03152099996805191
1750506135788594000,7.787593994140625,11.70772933959961,-6.672964096069336,1.9496029615402222
1750506135798198500,7.797198486328125,8.756973266601562,-6.499380111694336,2.7311899662017822
1750506135807803000,7.806802978515625,5.745881080627441,-5.5127339363098145,1.8302969932556152
1750506135817407500,7.816407470703125,5.67307710647583,-4.455770969390869,0.035339001566171646
1750506135827012000,7.82601220703125,8.516748428344727,-3.998354911804199,-1.3911499977111816
1750506135836616700,7.83561669921875,11.437564849853516,-4.3879241943359375,-1.1843969821929932
1750506135846221300,7.84522119140625,12.46091079711914,-5.077829837799072,0.22660399973392487
1750506135855826000,7.854825927734375,10.942794799804688,-5.475031852722168,1.6465710401535034
1750506135865430500,7.864430419921875,8.372089385986328,-5.361909866333008,2.208338975906372
1750506135875035100,7.87403515625,6.702145099639893,-4.646062850952148,1.4453740119934082
1750506135884639500,7.883639404296875,5.370084762573242,-3.8056349754333496,0.39585500955581665
1750506135894244000,7.893244140625,4.085443019866943,-3.107677936553955,-0.39250698685646057
1750506135903848700,7.9028486328125,3.2127320766448975,-2.6845920085906982,-0.6581240296363831
1750506135913453300,7.912453369140625,2.3473238945007324,-2.451174020767212,-0.49212101101875305
1750506135923057700,7.9220576171875,1.8853340148925781,-2.36165189743042,-0.22844000160694122
1750506135932662300,7.931662353515625,2.027738094329834,-2.3521430492401123,0.056223999708890915
1750506135942267000,7.941266845703125,2.2251338958740234,-2.4353890419006348,0.22269800305366516
1750506135951871500,7.95087158203125,2.3525309562683105,-2.3935890197753906,0.19573600590229034
1750506135961476000,7.96047607421875,2.311629056930542,-2.4374051094055176,0.1879120022058487
1750506135971080700,7.970080810546875,1.962080955505371,-2.348771095275879,0.1926479935646057
1750506135980685300,7.979685302734375,1.3448920249938965,-2.1240808963775635,0.04118800163269043
1750506135990290000,7.9892900390625,0.8673660159111023,-1.897284984588623,-0.1838040053844452
1750506135999894300,7.998894287109375,0.5335209965705872,-1.6097099781036377,-0.5477929711341858
1750506136009499000,8.008498779296875,0.6739810109138489,-1.421586036682129,-0.689257025718689
1750506136019103500,8.018103515625,0.889240026473999,-1.529958963394165,-0.5685809850692749
1750506136028708000,8.0277080078125,0.9348480105400085,-1.6519720554351807,-0.3130680024623871
1750506136038312700,8.037312744140625,0.999222993850708,-1.7633910179138184,0.016868000850081444
1750506136047917000,8.0469169921875,0.8411759734153748,-1.7633739709854126,0.19348299503326416
1750506136057521700,8.056521728515625,0.6961920261383057,-1.6121759414672852,0.08426199853420258
1750506136067126300,8.066126220703126,0.5623610019683838,-1.3590589761734009,-0.07026900351047516
1750506136076731000,8.07573095703125,0.43017101287841797,-1.1827030181884766,-0.24214400351047516
1750506136086335500,8.08533544921875,0.5747249722480774,-0.9838039875030518,-0.46647098660469055
1750506136095940000,8.094940185546875,0.5535420179367065,-0.9277700185775757,-0.439985990524292
1750506136105544700,8.104544677734374,0.4932030141353607,-1.04345703125,-0.16567499935626984
1750506136115149000,8.114149169921875,0.5540940165519714,-1.2094370126724243,0.0835919976234436
1750506136124753700,8.123753662109374,0.5792319774627686,-1.220697045326233,0.2282160073518753
1750506136134358300,8.133358154296875,0.5436019897460938,-1.1318960189819336,0.1939219981431961
1750506136143963000,8.142962890625,0.48853600025177,-0.9995660185813904,0.11526799947023392
1750506136153567200,8.152567138671875,0.3325119912624359,-0.8692740201950073,0.04038500040769577
1750506136163171800,8.162171875,0.29034900665283203,-0.8100000023841858,-0.08375000208616257
1750506136172776400,8.1717763671875,0.35390201210975647,-0.7267100214958191,-0.12255000323057175
1750506136182381000,8.181381103515625,0.42166298627853394,-0.7682030200958252,-0.06212799996137619
1750506136191985700,8.190985595703125,0.47644901275634766,-0.840054988861084,0.08532600104808807
1750506136201590000,8.200590087890625,0.4112600088119507,-0.8333079814910889,0.16793400049209595
1750506136211194600,8.210194580078126,0.3266260027885437,-0.6883130073547363,0.2066970020532608
1750506136220799200,8.21979931640625,0.3127410113811493,-0.7006319761276245,0.22850599884986877
1750506136230403800,8.22940380859375,0.3728649914264679,-0.6878659725189209,0.23848900198936462
1750506136240008400,8.239008544921875,0.34479600191116333,-0.6801180243492126,0.19822800159454346
1750506136249613000,8.248613037109376,0.20445199310779572,-0.6508979797363281,0.14500300586223602
1750506136259217700,8.2582177734375,-0.0036249998956918716,-0.5319269895553589,0.058788999915122986
1750506136268822000,8.267822021484376,-0.05374100059270859,-0.4969010055065155,0.02020600065588951
1750506136278426600,8.277426513671875,-0.020353000611066818,-0.3802489936351776,-0.014023000374436378
1750506136288031200,8.28703125,0.06158300116658211,-0.3894149959087372,0.039021000266075134
1750506136297635600,8.296635498046875,0.05958399921655655,-0.41217100620269775,0.1053209975361824
1750506136307240200,8.306240234375,0.06703999638557434,-0.3933509886264801,0.17415300011634827
1750506136316844800,8.3158447265625,0.16637900471687317,-0.4115400016307831,0.18330299854278564
1750506136326449700,8.32544970703125,0.2927660048007965,-0.39691001176834106,0.1748970001935959
1750506136336054000,8.335053955078125,0.4657779932022095,-0.3056119978427887,0.18265700340270996
1750506136345658400,8.344658447265624,0.5822929739952087,-0.30771300196647644,0.10003700107336044
1750506136355263000,8.354262939453125,0.7078800201416016,-0.1145159974694252,-0.031183000653982162
1750506136364867300,8.363867431640625,0.6683710217475891,-0.016589999198913574,-0.04533800110220909
1750506136374472200,8.37347216796875,0.48062700033187866,-0.04150699824094772,0.006310000084340572
1750506136384076800,8.383076904296875,0.18943800032138824,-0.053001999855041504,0.057312000542879105
1750506136393681400,8.392681396484376,-0.07785700261592865,-0.007120999973267317,0.01765500009059906
1750506136403285800,8.40228564453125,-0.3212659955024719,0.05265599861741066,-0.07232300192117691
1750506136412890400,8.411890380859376,-0.4716770052909851,0.09833800047636032,-0.09721700102090836
1750506136422495000,8.421494873046875,-0.5691329836845398,0.054193999618291855,-0.17253699898719788
1750506136432099600,8.431099609375,-0.5114250183105469,0.07538700103759766,-0.1572359949350357
1750506136441704000,8.440703857421875,-0.4977610111236572,0.031498998403549194,-0.10352999716997147
1750506136451308500,8.45030859375,-0.44356998801231384,-0.03085000067949295,-0.12358000129461288
1750506136460913200,8.4599130859375,-0.3318899869918823,-0.0065390001982450485,-0.1290770024061203
1750506136470517800,8.469517822265624,-0.1922679990530014,-0.01797500066459179,-0.13320699334144592
1750506136480122000,8.4791220703125,-0.08732900023460388,-0.06177400052547455,-0.13310499489307404
1750506136489726700,8.488726806640624,0.004769999999552965,-0.1118829995393753,-0.034033000469207764
1750506136499331300,8.498331298828125,0.16272899508476257,-0.10880599915981293,-0.025081999599933624
1750506136508936000,8.50793603515625,0.31488901376724243,-0.15145699679851532,0.025227999314665794
1750506136518540500,8.51754052734375,0.3343319892883301,-0.16121700406074524,0.08868999779224396
1750506136528145000,8.527144775390624,0.2306710034608841,-0.1955370008945465,0.1421169936656952
1750506136537749500,8.53674951171875,0.1739799976348877,-0.16338799893856049,0.17544099688529968
1750506136547354400,8.546354248046875,0.10418999940156937,-0.1098800003528595,0.105772003531456
1750506136556958700,8.555958740234376,0.0848810002207756,-0.08557199686765671,0.036834001541137695
1750506136566563300,8.565563232421875,0.09493900090456009,-0.04137599840760231,-0.022539999336004257
1750506136576168000,8.57516796875,0.1514499932527542,-0.03087499924004078,-0.03046399913728237
1750506136585772500,8.5847724609375,0.106393001973629,-0.04275200143456459,0.06705299764871597
1750506136595377000,8.594376953125,-0.0718970000743866,-0.1590140014886856,0.17410899698734283
1750506136604981500,8.6039814453125,-0.2733739912509918,-0.17134299874305725,0.19436700642108917
1750506136614586000,8.613586181640626,-0.3239760100841522,-0.14319700002670288,0.12280900031328201
1750506136624190700,8.623190673828125,-0.33564698696136475,-0.03587799891829491,-0.018472999334335327
1750506136633795300,8.63279541015625,-0.3534579873085022,0.058788999915122986,-0.1302040070295334
1750506136643399700,8.642399658203125,-0.25423699617385864,0.07961499691009521,-0.11247500032186508
1750506136653004300,8.65200439453125,-0.15649600327014923,0.02506200037896633,-0.029255999252200127
1750506136662609000,8.66160888671875,-0.005491000134497881,-0.030182000249624252,0.01192499976605177
1750506136672213500,8.671213623046874,0.09553200006484985,-0.0921270027756691,0.10008999705314636
1750506136681818000,8.680818115234375,0.15991899371147156,-0.10656300187110901,0.13775700330734253
1750506136691422500,8.69042236328125,0.20762699842453003,-0.049352001398801804,0.06322000175714493
1750506136701027000,8.700027099609375,0.246629998087883,0.014999999664723873,-0.06267400085926056
1750506136710631700,8.709631591796875,0.1984509974718094,0.07091999799013138,-0.14711500704288483
1750506136720236300,8.719236328125,0.15512299537658691,0.14018799364566803,-0.15253399312496185
1750506136729841000,8.7288408203125,0.04055099934339523,0.06976400315761566,-0.0505170002579689
1750506136739445500,8.738445556640626,-0.0941689983010292,0.07068800181150436,0.018664000555872917
1750506136749049900,8.7480498046875,-0.24059699475765228,-0.0030529999639838934,0.03357800096273422
1750506136758654500,8.757654541015626,-0.2288060039281845,0.03726999834179878,-0.0028619999065995216
1750506136768259000,8.767259033203125,-0.3097360134124756,0.05931299924850464,-0.020263999700546265
1750506136777863400,8.776863525390626,-0.3046939969062805,0.08647699654102325,-0.0501520000398159
1750506136787468300,8.78646826171875,-0.2159460037946701,0.14716100692749023,-0.06828799843788147
1750506136797072600,8.79607275390625,-0.11382900178432465,0.13064399361610413,-0.11724600195884705
1750506136806677200,8.80567724609375,-0.008076000027358532,0.10693400353193283,-0.11264800280332565
1750506136816281900,8.81528173828125,0.03454999998211861,0.0617390014231205,-0.04722699895501137
1750506136825886500,8.824886474609375,-0.046247001737356186,-0.010514000430703163,0.06589099764823914
1750506136835490800,8.83449072265625,-0.0161530002951622,-0.039650000631809235,0.1337140053510666
1750506136845095400,8.844095458984375,-0.02732199989259243,-0.023957999423146248,0.08571799844503403
1750506136854700000,8.853699951171874,0.047628000378608704,0.02520200051367283,0.011812999844551086
1750506136864304600,8.8633046875,0.061813998967409134,0.08197399973869324,-0.05643400177359581
1750506136873909200,8.8729091796875,0.04912199825048447,0.08584500104188919,-0.04958299919962883
1750506136883513600,8.882513671875,-0.02912200056016445,0.06913799792528152,0.0030610000248998404
1750506136893118200,8.8921181640625,-0.04297100007534027,0.019380999729037285,0.02574699930846691
1750506136902722800,8.901722900390626,-0.08575200289487839,-0.008142000064253807,0.04175800085067749
1750506136912327400,8.911327392578125,-0.19758400321006775,0.006965000182390213,0.039354000240564346
1750506136921932000,8.92093212890625,-0.1620589941740036,0.01056899968534708,0.01511599961668253
1750506136931536600,8.93053662109375,-0.25108399987220764,0.04049000144004822,-0.04858199879527092
1750506136941141200,8.940141357421876,-0.21765999495983124,0.06486199796199799,-0.05282000079751015
1750506136950745600,8.94974560546875,-0.13330000638961792,0.009549999609589577,-0.011552000418305397
1750506136960350200,8.95935009765625,-0.1161549985408783,0.009843000210821629,0.031063999980688095
1750506136969954800,8.968954833984375,-0.016269000247120857,-0.02814600057899952,0.033966999500989914
1750506136979559400,8.978559326171874,0.0921500027179718,-0.023439999669790268,-0.03513500094413757
1750506136989164000,8.9881640625,0.15689900517463684,-0.01013800036162138,-0.04209199920296669
1750506136998768400,8.997768310546874,0.14288899302482605,-0.006775000132620335,-0.04608500003814697
1750506137008373000,9.007373046875,0.06283000111579895,0.008635999634861946,-0.04563000053167343
1750506137017977600,9.0169775390625,0.0324850007891655,0.07684600353240967,-0.08337300270795822
1750506137027582200,9.026582275390625,0.03642499819397926,0.0570329986512661,-0.027876999229192734
1750506137037186600,9.0361865234375,0.000048999998398358,0.024462999776005745,0.028681999072432518
1750506137046791200,9.045791259765625,-0.03122200071811676,-0.011285999789834023,0.05436500161886215
1750506137056395800,9.055395751953125,-0.05011399835348129,0.0019950000569224358,0.013074999675154686
1750506137066000400,9.06500048828125,-0.07102300226688385,0.028860999271273613,0.011322000063955784
1750506137075605000,9.07460498046875,-0.12049800157546997,0.055560000240802765,-0.009387999773025513
1750506137085209300,9.084209228515626,-0.11330199986696243,0.04403400048613548,0.01726900041103363
1750506137094814000,9.09381396484375,-0.13060300052165985,0.027111999690532684,0.09493300318717957
1750506137104418600,9.10341845703125,-0.15918199717998505,0.03249099850654602,0.10541199892759323
1750506137114023200,9.113023193359375,-0.15277600288391113,0.08903799951076508,0.11215200275182724
1750506137123627500,9.12262744140625,-0.1807290017604828,0.131741002202034,0.0972760021686554
1750506137133232000,9.132232177734375,-0.22443799674510956,0.15031300485134125,0.12239699810743332
1750506137142836500,9.14183642578125,-0.3874090015888214,0.11785200238227844,0.16886599361896515
1750506137152441300,9.15144140625,-0.5803239941596985,0.1449660062789917,0.1713619977235794
1750506137162045700,9.161045654296874,-0.6639580130577087,0.24497699737548828,0.14873099327087402
1750506137171650300,9.170650390625,-0.25008299946784973,0.4446769952774048,-0.2086549997329712
1750506137181255000,9.1802548828125,1.3141989707946777,0.5645899772644043,-0.5000150203704834
1750506137190859500,9.189859619140625,3.7582130432128906,0.10696899890899658,-0.30818599462509155
1750506137200464000,9.1994638671875,5.638154029846191,-0.38444000482559204,0.022867999970912933
1750506137210068500,9.209068359375,7.029526233673096,-1.3263729810714722,0.4871149957180023
1750506137219672800,9.2186728515625,8.188749313354492,-2.3614509105682373,0.4841879904270172
1750506137229277700,9.228277587890625,9.819193840026855,-2.277256965637207,0.01806199923157692
1750506137238882300,9.23788232421875,12.176299095153809,-2.933171033859253,-0.8186349868774414
1750506137248486700,9.247486572265625,14.289989471435547,-3.9985060691833496,-0.9598640203475952
1750506137258091300,9.25709130859375,14.364665031433105,-4.516849040985107,-1.0599160194396973
1750506137267695900,9.26669580078125,12.124711990356445,-5.188416004180908,-0.7032819986343384
1750506137277300200,9.27630029296875,8.914070129394531,-5.171687126159668,-1.0755620002746582
1750506137286904800,9.28590478515625,6.897903919219971,-3.8628780841827393,-2.455935001373291
1750506137296509400,9.295509521484375,4.265566825866699,-2.7991631031036377,-3.3483870029449463
1750506137306114300,9.3051142578125,2.7149078845977783,-2.2155098915100098,-3.7886509895324707
1750506137315718700,9.31471875,2.3431410789489746,-3.019953966140747,-2.104491949081421
1750506137325323000,9.324322998046876,-0.4437359869480133,-3.92568302154541,-0.30730798840522766
1750506137334927600,9.333927734375,-3.7632570266723633,-3.9622530937194824,0.7527109980583191
1750506137344532200,9.3435322265625,-6.060480117797852,-3.4793028831481934,1.1828570365905762
1750506137354136800,9.35313671875,-8.123050689697266,-2.727303981781006,0.906328022480011
1750506137363741200,9.3627412109375,-9.337660789489746,-1.936081051826477,0.361737996339798
1750506137373346000,9.372345947265625,-9.849756240844727,-1.6422489881515503,0.13489800691604614
1750506137382950400,9.381950439453124,-10.061244010925293,-1.599133014678955,-0.147489994764328
1750506137392555000,9.391554931640625,-9.654909133911133,-1.7382559776306152,-0.2425280064344406
1750506137402159600,9.40115966796875,-8.43249797821045,-2.118269920349121,-0.4307970106601715
1750506137411764000,9.410763916015625,-7.0823211669921875,-2.365509033203125,-0.5822499990463257
1750506137421368600,9.42036865234375,-6.160737037658691,-2.3438398838043213,-0.9518179893493652
1750506137430973200,9.42997314453125,-5.399010181427002,-2.089785099029541,-1.145264983177185
1750506137440577800,9.439577880859375,-5.3095550537109375,-1.8870669603347778,-1.2241909503936768
1750506137450182400,9.449182373046876,-5.5772271156311035,-1.6897590160369873,-0.9823240041732788
1750506137459786800,9.458786865234375,-5.964200973510742,-1.4257400035858154,-0.8168579936027527
1750506137469391400,9.468391357421876,-6.704928874969482,-1.1191730499267578,-0.7871170043945312
1750506137478996000,9.477995849609375,-6.8597588539123535,-1.0768380165100098,-0.8507170081138611
1750506137488600600,9.4876005859375,-6.082517147064209,-1.3995180130004883,-0.8054249882698059
1750506137498205200,9.497205078125,-4.78887414932251,-1.8576079607009888,-0.7070620059967041
1750506137507809500,9.5068095703125,-3.820971965789795,-2.14078688621521,-0.9969050288200378
1750506137517414100,9.5164140625,-3.4756839275360107,-2.265036106109619,-1.2241699695587158
1750506137527018800,9.526018798828124,-3.2707719802856445,-2.2523579597473145,-1.4912470579147339
1750506137536623400,9.535623291015625,-3.1151371002197266,-2.3339579105377197,-1.6932170391082764
1750506137546228000,9.54522802734375,-2.4939749240875244,-2.8216450214385986,-1.6815680265426636
1750506137555832300,9.554832275390625,-1.5763609409332275,-3.2869479656219482,-1.261991024017334
1750506137565437000,9.56443701171875,-0.9665070176124573,-3.991595983505249,-0.7505189776420593
1750506137575041500,9.57404150390625,-0.5889919996261597,-5.032797813415527,0.1062529981136322
1750506137584646100,9.583646240234375,0.00913000013679266,-6.091883182525635,0.2853910028934479
1750506137594250500,9.59325048828125,2.4628870487213135,-7.274950981140137,0.36283400654792786
1750506137603855000,9.602855224609375,5.494883060455322,-8.285195350646973,0.8272899985313416
1750506137613459700,9.612459716796875,8.137737274169922,-8.332329750061035,0.12921099364757538
1750506137623064000,9.62206396484375,10.36815071105957,-7.643521785736084,0.014620999805629253
1750506137632668700,9.631668701171876,10.558420181274414,-7.190739154815674,0.15368400514125824
1750506137642273300,9.641273193359375,10.453964233398438,-6.919015884399414,-0.151186004281044
1750506137651878000,9.6508779296875,10.445194244384766,-6.450817108154297,0.015962999314069748
1750506137661482500,9.660482421875,9.662229537963867,-5.87673282623291,0.010774999856948853
1750506137671087000,9.670087158203126,8.810196876525879,-5.671885967254639,0.32092100381851196
1750506137680691500,9.67969140625,7.737600803375244,-5.718393802642822,0.818140983581543
1750506137690296300,9.68929638671875,6.586052894592285,-5.4617791175842285,0.7264580130577087
1750506137699900700,9.698900634765625,5.376110076904297,-4.653473854064941,0.11667600274085999
1750506137709505300,9.70850537109375,3.7046709060668945,-2.8393259048461914,-1.3295429944992065
1750506137719110000,9.71810986328125,13.665250778198242,-2.786952018737793,-0.4579930007457733
1750506137728714200,9.72771435546875,18.47523307800293,-3.747567892074585,-1.6551250219345093
1750506137738318800,9.73731884765625,13.477611541748047,-4.582411766052246,-0.21593399345874786
1750506137747923500,9.74692333984375,8.635180473327637,-4.504015922546387,1.6189149618148804
1750506137757528000,9.756528076171875,7.118612766265869,-4.871166229248047,1.2852879762649536
1750506137767132700,9.766132568359374,3.969759941101074,-4.434980869293213,0.28822600841522217
1750506137776737000,9.775737060546875,0.5340960025787354,-3.301642894744873,-0.841234028339386
1750506137786341600,9.785341552734375,-0.9740989804267883,-2.6134378910064697,-1.6000679731369019
1750506137795946200,9.7949462890625,-1.6431280374526978,-2.512631893157959,-1.5843839645385742
1750506137805550800,9.80455078125,-1.8918089866638184,-2.6235029697418213,-1.0722839832305908
1750506137815155200,9.8141552734375,-1.5463060140609741,-3.046165943145752,-0.48589301109313965
1750506137824759800,9.823759765625,-0.9512240290641785,-3.3908700942993164,-0.10200899839401245
1750506137834364400,9.833364501953126,-0.5956240296363831,-3.348252058029175,-0.1123490035533905
1750506137843968800,9.84296875,0.189287006855011,-3.1514499187469482,-0.20493200421333313
1750506137853573400,9.852573486328126,2.2948029041290283,-2.9458398818969727,-0.3318130075931549
1750506137863178000,9.862177978515625,4.449999809265137,-2.985146999359131,-0.7248749732971191
1750506137872782300,9.8717822265625,4.914770126342773,-3.0113089084625244,-0.8014640212059021
1750506137882387000,9.881386962890625,4.849140167236328,-3.2128119468688965,-0.45850199460983276
1750506137891991600,9.890991455078124,4.788171768188477,-3.488538980484009,-0.2817550003528595
1750506137901596200,9.90059619140625,3.9718010425567627,-3.507373094558716,-0.3376609981060028
1750506137911200800,9.91020068359375,3.1981749534606934,-3.356584072113037,-0.44251200556755066
1750506137920805000,9.91980517578125,2.3050529956817627,-3.1712090969085693,-0.43626299500465393
1750506137930409700,9.92940966796875,1.3446450233459473,-3.030076026916504,-0.3701559901237488
1750506137940014000,9.93901416015625,0.6914219856262207,-3.0249829292297363,-0.2832840085029602
1750506137949619000,9.948618896484374,0.28652799129486084,-2.9885060787200928,-0.19629299640655518
1750506137959223600,9.9582236328125,0.17903299629688263,-2.9371590614318848,-0.24111700057983398
1750506137968827600,9.96782763671875,0.373759001493454,-2.8614768981933594,-0.3621410131454468
1750506137978432500,9.9774326171875,0.6471089720726013,-2.8205459117889404,-0.4284070134162903
1750506137988036900,9.987036865234375,1.0333720445632935,-2.6472830772399902,-0.47770899534225464
1750506137997641500,9.996641357421876,1.6367909908294678,-2.529006004333496,-0.47075599431991577
1750506138007246000,10.00624609375,2.14703106880188,-2.48081111907959,-0.3576189875602722
1750506138016850400,10.015850341796876,2.3692750930786133,-2.3301589488983154,-0.2775610089302063
1750506138026455000,10.025455078125,2.4245259761810303,-2.289422035217285,-0.2318820059299469
1750506138036059600,10.0350595703125,1.943642020225525,-2.181713104248047,-0.2650749981403351
1750506138045664300,10.044664306640625,1.3343939781188965,-2.071898937225342,-0.2919990122318268
1750506138055268900,10.054268798828126,0.9583569765090942,-1.9965460300445557,-0.24518999457359314
1750506138064873200,10.063873291015625,0.7915099859237671,-1.6417850255966187,-0.43189701437950134
1750506138074477800,10.073477783203124,0.542506992816925,-1.5137289762496948,-0.5454069972038269
1750506138084082400,10.08308251953125,0.2711620032787323,-1.7353509664535522,-0.38337498903274536
1750506138093686800,10.092686767578124,0.3743009865283966,-1.8129839897155762,-0.1250700056552887
1750506138103291400,10.10229150390625,0.4066230058670044,-1.7219150066375732,-0.04112299904227257
1750506138112896000,10.11189599609375,0.41825801134109497,-1.4162739515304565,-0.27446600794792175
1750506138122500600,10.12150048828125,0.47617799043655396,-1.2318999767303467,-0.33148300647735596
1750506138132105200,10.131105224609374,0.4121820032596588,-1.3886480331420898,-0.09234099835157394
1750506138141709800,10.140709716796875,0.48690199851989746,-1.4824719429016113,0.12754599750041962
1750506138151314200,10.150314208984375,0.6791030168533325,-1.4775429964065552,0.19640399515628815
1750506138160918800,10.159918701171875,0.7573869824409485,-1.3815549612045288,0.1832589954137802
1750506138170523400,10.1695234375,0.9821199774742126,-1.1901830434799194,0.08804400265216827
1750506138180127700,10.179127685546876,1.1257950067520142,-0.9825860261917114,-0.09559900313615799
1750506138189732600,10.188732666015625,1.0076409578323364,-0.8288159966468811,-0.21383200585842133
1750506138199337000,10.1983369140625,0.7965570092201233,-0.7777640223503113,-0.14008300006389618
1750506138208941600,10.207941650390625,0.4727329909801483,-0.7089729905128479,-0.006010000128298998
1750506138218546200,10.217546142578126,0.2507610023021698,-0.726302981376648,0.08699999749660492
1750506138228150500,10.227150634765625,0.14066599309444427,-0.6799070239067078,0.04470900073647499
1750506138237755100,10.236755126953126,0.0840739980340004,-0.5562509894371033,-0.042493000626564026
1750506138247359700,10.24635986328125,0.010541999712586403,-0.4323520064353943,-0.21183300018310547
1750506138256964400,10.25596435546875,-0.06605000048875809,-0.34548699855804443,-0.30671900510787964
1750506138266569000,10.26556884765625,0.007960000075399876,-0.24842700362205505,-0.3091990053653717
1750506138276173300,10.27517333984375,0.09947200119495392,-0.2578909993171692,-0.22832299768924713
1750506138285778000,10.28477783203125,0.2698099911212921,-0.32157400250434875,-0.10785499960184097
1750506138295382500,10.294382568359374,0.3599419891834259,-0.3537440001964569,-0.03446599841117859
1750506138304987000,10.30398681640625,0.39100998640060425,-0.3826279938220978,-0.022756999358534813
1750506138314591500,10.313591552734374,0.2119089961051941,-0.34112799167633057,-0.060238998383283615
1750506138324196000,10.323196044921875,-0.016784999519586563,-0.3182789981365204,-0.10185299813747406
1750506138333800700,10.33280078125,-0.19605399668216705,-0.29878801107406616,-0.1077520027756691
1750506138343405000,10.342405029296875,-0.35858601331710815,-0.32231199741363525,-0.07424599677324295
1750506138353009700,10.352009765625,-0.2795659899711609,-0.2637929916381836,-0.15802599489688873
1750506138362614300,10.3616142578125,-0.12822100520133972,-0.26083800196647644,-0.13910700380802155
1750506138372219000,10.371218994140625,-0.11587599664926529,-0.3407450020313263,-0.06068599969148636
1750506138381823500,10.380823486328126,-0.05582800135016441,-0.4027320146560669,0.07938099652528763
1750506138391427800,10.390427734375,-0.03289100155234337,-0.41627100110054016,0.12323500216007233
1750506138401032400,10.400032470703126,-0.022495999932289124,-0.4257889986038208,0.1625709980726242
1750506138410636800,10.40963671875,0.052990999072790146,-0.3881460130214691,0.1316940039396286
1750506138420241400,10.419241455078126,0.16732899844646454,-0.3730739951133728,0.06764999777078629
1750506138429846000,10.428845947265625,0.20434699952602386,-0.28996700048446655,-0.04520300030708313
1750506138439450600,10.43845068359375,0.1877710074186325,-0.24369199573993683,-0.06776999682188034
1750506138449055000,10.448054931640625,0.10378299653530121,-0.2849330008029938,-0.05214599892497063
1750506138458659600,10.45765966796875,-0.01293100044131279,-0.23932699859142303,-0.02057499997317791
1750506138468264200,10.46726416015625,-0.15867699682712555,-0.2718380093574524,0.08046799898147583
1750506138477868800,10.476868896484374,-0.24675500392913818,-0.25435400009155273,0.11924000084400177
1750506138487473200,10.48647314453125,-0.09447400271892548,-0.16477900743484497,0.11591500043869019
1750506138497077500,10.496077392578124,0.09664600342512131,-0.11237400025129318,0.0466030016541481
1750506138506682400,10.505682373046875,0.2560589909553528,-0.021359000355005264,0.03446400165557861
1750506138516286700,10.51528662109375,0.28623199462890625,0.02523300051689148,0.009816999547183514
1750506138525891300,10.524891357421875,0.3363490104675293,-0.011506999842822552,0.012756000272929668
1750506138535496000,10.534495849609375,0.22954300045967102,0.0017259999876841903,-0.007819999940693378
1750506138545100300,10.544100341796875,0.07004500180482864,-0.004127999767661095,0.016011999920010567
1750506138554705000,10.553704833984375,-0.06000899896025658,-0.06322500109672546,0.09212599694728851
1750506138564309500,10.5633095703125,-0.11371800303459167,-0.1657779961824417,0.17799100279808044
1750506138573914000,10.5729140625,-0.11265300214290619,-0.10932199656963348,0.21748599410057068
1750506138583518500,10.5825185546875,0.014468000270426273,-0.12953299283981323,0.16014300286769867
1750506138593123000,10.592123046875,0.20158499479293823,-0.07814300060272217,0.16237600147724152
1750506138602727700,10.601727783203126,0.20647099614143372,-0.005828999914228916,0.13906699419021606
1750506138612332300,10.611332275390625,0.25443199276924133,0.048239998519420624,0.07992599904537201
1750506138621936600,10.6209365234375,0.2890790104866028,0.05872200056910515,-0.011374000459909439
1750506138631541200,10.630541259765625,-0.17266100645065308,-0.09792400151491165,-0.017576999962329865
1750506138641145900,10.640145751953124,-1.6934070587158203,0.8560500144958496,-0.8466209769248962
1750506138650750500,10.64975048828125,-0.7862579822540283,0.11952300369739532,-0.5803729891777039
1750506138660354800,10.659354736328124,0.9557399749755859,-0.03645600005984306,-0.034077998250722885
1750506138669959400,10.66895947265625,0.1554660052061081,-0.30915701389312744,0.3160859942436218
1750506138679564000,10.67856396484375,0.5247060060501099,-0.3028219938278198,0.4145120084285736
1750506138689168600,10.688168701171875,0.364001989364624,-0.1130409985780716,-0.06508900225162506
1750506138698773000,10.69777294921875,-0.13265599310398102,0.13920199871063232,-0.3052229881286621
