time,seconds_elapsed,z,y,x
1750506128124133400,0.12313330078125,0.0031624999828636646,-0.0017874999903142452,0.06173750013113022
1750506128133737700,0.13273779296875,0.006874999962747097,-0.011549999937415123,0.06544999778270721
1750506128143342300,0.14234228515625,0.011687500402331352,-0.028599999845027924,0.05926249921321869
1750506128152946700,0.15194677734375,0.015399999916553497,-0.028599999845027924,0.055687498301267624
1750506128162551300,0.16155126953125,0.011687500402331352,-0.0005499999970197678,0.05816249921917915
1750506128172156000,0.171156005859375,-0.0005499999970197678,0.05073750019073486,0.06544999778270721
1750506128181760500,0.180760498046875,-0.013887500390410423,0.08002500236034393,0.07644999772310257
1750506128191365000,0.190365234375,-0.02488750033080578,0.08002500236034393,0.07273750007152557
1750506128200969700,0.1999697265625,-0.040837500244379044,0.0752125009894371,0.0471624992787838
1750506128210574300,0.20957421875,-0.06888750195503235,0.0752125009894371,-0.0005499999970197678
1750506128220179000,0.219178955078125,-0.08607500046491623,0.05197500064969063,-0.06283749639987946
1750506128229783600,0.228783447265625,-0.05912499874830246,0.03616249933838844,-0.1313125044107437
1750506128239388200,0.23838818359375,-0.040837500244379044,0.03973750025033951,-0.18617500364780426
1750506128248992500,0.247992431640625,-0.05664999783039093,0.005499999970197678,-0.20212499797344208
1750506128258597000,0.25759716796875,-0.07741250097751617,-0.036024998873472214,-0.18617500364780426
1750506128268202000,0.267201904296875,-0.0798875018954277,-0.07507500052452087,-0.16060000658035278
1750506128277806300,0.276806396484375,-0.07012499868869781,-0.12264999747276306,-0.13983750343322754
1750506128287411000,0.286410888671875,-0.07259999960660934,-0.14836250245571136,-0.1313125044107437
1750506128297015600,0.296015625,-0.09459999948740005,-0.1434125006198883,-0.1288374960422516
1750506128306620200,0.3056201171875,-0.12264999747276306,-0.1093124970793724,-0.12636250257492065
1750506128316224800,0.315224853515625,-0.13488750159740448,-0.03959999978542328,-0.1153625026345253
1750506128325829400,0.324829345703125,-0.11659999936819077,0.06792499870061874,-0.0798875018954277
1750506128335433700,0.334433837890625,-0.07631249725818634,0.17544999718666077,-0.018837500363588333
1750506128345038600,0.34403857421875,-0.03231250122189522,0.24502499401569366,0.0471624992787838
1750506128354643200,0.353643310546875,0.004399999976158142,0.30607500672340393,0.09116250276565552
1750506128364247800,0.363247802734375,0.03616249933838844,0.3550249934196472,0.08992499858140945
1750506128373852200,0.37285205078125,0.06063750013709068,0.36959999799728394,0.060499999672174454
1750506128383456800,0.382456787109375,0.07039999961853027,0.3110249936580658,0.015399999916553497
1750506128393061400,0.392061279296875,0.05692499876022339,0.20350000262260437,-0.03712499886751175
1750506128402666000,0.401666015625,0.028875000774860382,0.10326249897480011,-0.08855000138282776
1750506128412270600,0.4112705078125,0.0006874999962747097,0.014162499457597733,-0.13241249322891235
1750506128421875200,0.420875244140625,-0.006599999964237213,-0.058024998754262924,-0.15565000474452972
1750506128431479800,0.430479736328125,0.0056374999694526196,-0.1116499975323677,-0.16541250050067902
1750506128441084400,0.44008447265625,0.023924998939037323,-0.133650004863739,-0.16060000658035278
1750506128450689000,0.44968896484375,0.04221250116825104,-0.11288750171661377,-0.14464999735355377
1750506128460293600,0.459293701171875,0.06297499686479568,-0.01759999990463257,-0.12636250257492065
1750506128469898200,0.468898193359375,0.08373750001192093,0.1106875017285347,-0.11055000126361847
1750506128479502600,0.478502685546875,0.09239999949932098,0.19978749752044678,-0.09212499856948853
1750506128489107200,0.488107177734375,0.09721250087022781,0.1985500007867813,-0.07507500052452087
1750506128498711800,0.4977119140625,0.09597499668598175,0.09721250087022781,-0.0798875018954277
1750506128508316400,0.50731640625,0.08016250282526016,-0.020075000822544098,-0.12388750165700912
1750506128517921000,0.516921142578125,0.05321250110864639,-0.1251250058412552,-0.19359999895095825
1750506128527525600,0.526525634765625,0.03616249933838844,-0.20817500352859497,-0.28146249055862427
1750506128537130000,0.5361298828125,0.03739999979734421,-0.2046000063419342,-0.3377000093460083
1750506128546734800,0.54573486328125,0.04592499881982803,-0.24365000426769257,-0.33646249771118164
1750506128556339500,0.55533935546875,0.04839999973773956,-0.3011249899864197,-0.2961750030517578
1750506128565944000,0.564944091796875,0.03368749842047691,-0.319412499666214,-0.22783750295639038
1750506128575548700,0.574548583984375,0.018975000828504562,-0.3377000093460083,-0.15331250429153442
1750506128585153300,0.5841533203125,0.009212499484419823,-0.3377000093460083,-0.08112499862909317
1750506128594758000,0.5937578125,0.0031624999828636646,-0.3499374985694885,-0.026124998927116394
1750506128604362500,0.603362548828125,-0.004124999977648258,-0.36217498779296875,-0.0017874999903142452
1750506128613966800,0.612966796875,-0.012787500396370888,-0.3231250047683716,-0.010312499478459358
1750506128623571500,0.622571533203125,-0.015124999918043613,-0.2778874933719635,-0.040837500244379044
1750506128633176000,0.632176025390625,-0.0017874999903142452,-0.2619374990463257,-0.08607500046491623
1750506128642781000,0.641781005859375,0.028875000774860382,-0.2644124925136566,-0.1434125006198883
1750506128652385300,0.65138525390625,0.06544999778270721,-0.2241249978542328,-0.19965000450611115
1750506128661990000,0.660989990234375,0.08744999766349792,-0.18741250038146973,-0.22536249458789825
1750506128671594500,0.670594482421875,0.06173750013113022,-0.23141250014305115,-0.2424124926328659
1750506128681199000,0.68019921875,0.031212499365210533,-0.21559999883174896,-0.255887508392334
1750506128690803700,0.6898037109375,-0.005362499970942736,-0.19112500548362732,-0.260699987411499
1750506128700408300,0.699408203125,-0.04936249926686287,-0.19483749568462372,-0.2521750032901764
1750506128710013000,0.709012939453125,-0.0798875018954277,-0.2106499969959259,-0.2387000024318695
1750506128719617500,0.718617431640625,-0.08112499862909317,-0.22659999132156372,-0.2546499967575073
1750506128729222100,0.72822216796875,-0.08841250091791153,-0.19483749568462372,-0.2704625129699707
1750506128738826800,0.73782666015625,-0.07741250097751617,-0.16431249678134918,-0.25093749165534973
1750506128748431000,0.74743115234375,-0.021312499418854713,-0.12031249701976776,-0.21683749556541443
1750506128758036000,0.757035888671875,0.06668750196695328,-0.0518375001847744,-0.1691250056028366
1750506128767640300,0.766640380859375,0.15344999730587006,-0.06902500241994858,-0.1116499975323677
1750506128777245200,0.7762451171875,0.2194499969482422,-0.13612499833106995,-0.045787498354911804
1750506128786849800,0.785849853515625,0.2560249865055084,-0.2204124927520752,-0.0030249999836087227
1750506128796454400,0.795454345703125,0.23045000433921814,-0.20212499797344208,-0.010312499478459358
1750506128806059000,0.80505908203125,0.14726249873638153,-0.21312500536441803,-0.03355000168085098
1750506128815663600,0.81466357421875,0.08249999582767487,-0.1886499971151352,-0.10436250269412994
1750506128825268000,0.82426806640625,0.07163749635219574,-0.08978749811649323,-0.20941250026226044
1750506128834872800,0.833872802734375,0.08139999955892563,-0.05431250110268593,-0.30841249227523804
1750506128844477400,0.8434775390625,0.06792499870061874,-0.05678749829530716,-0.37193748354911804
1750506128854082000,0.85308203125,0.05321250110864639,-0.05431250110268593,-0.39393749833106995
1750506128863686700,0.862686767578125,0.07397499680519104,-0.06655000150203705,-0.391462504863739
1750506128873291300,0.872291259765625,0.10449999570846558,-0.0030249999836087227,-0.3634124994277954
1750506128882896000,0.881895751953125,0.1069749966263771,0.10821250081062317,-0.29493749141693115
1750506128892500500,0.89150048828125,0.10339999943971634,0.2670249938964844,-0.18136249482631683
1750506128902104800,0.901104736328125,0.05816249921917915,0.37331250309944153,-0.03478749841451645
1750506128911709400,0.91070947265625,0.004399999976158142,0.3573625087738037,0.09597499668598175
1750506128921314000,0.92031396484375,-0.022549999877810478,0.23649999499320984,0.15702499449253082
1750506128930918700,0.929918701171875,-0.021312499418854713,0.10821250081062317,0.116737499833107
1750506128940523300,0.939523193359375,-0.018837500363588333,0.029975000768899918,0.010449999943375587
1750506128950127900,0.9491279296875,-0.03464999794960022,-0.0030249999836087227,-0.08483749628067017
1750506128959732500,0.958732421875,-0.053075000643730164,-0.009074999950826168,-0.1153625026345253
1750506128969337000,0.968337158203125,-0.07383749634027481,-0.04702499881386757,-0.09707500040531158
1750506128978941700,0.977941650390625,-0.11783749610185623,-0.0798875018954277,-0.06283749639987946
1750506128988546300,0.98754638671875,-0.12388750165700912,-0.07012499868869781,-0.06778749823570251
1750506128998151000,0.99715087890625,-0.1190750002861023,-0.014024999924004078,-0.08236250281333923
1750506129007755500,1.006755615234375,-0.10436250269412994,0.05816249921917915,-0.08236250281333923
1750506129017360100,1.016360107421875,-0.10064999759197235,0.13144999742507935,-0.05431250110268593
1750506129026964500,1.025964599609375,-0.03231250122189522,0.1106875017285347,-0.021312499418854713
1750506129036569000,1.035569091796875,0.05816249921917915,0.0812624990940094,-0.0017874999903142452
1750506129046173700,1.045173583984375,0.09844999760389328,0.028737500309944153,-0.02983750030398369
1750506129055778600,1.054778564453125,0.09473749995231628,-0.009074999950826168,-0.1190750002861023
1750506129065383000,1.0643828125,0.0789249986410141,-0.01759999990463257,-0.22288750112056732
1750506129074987500,1.073987548828125,0.06544999778270721,0.014162499457597733,-0.27293750643730164
1750506129084592000,1.083592041015625,0.05197500064969063,0.04592499881982803,-0.24488750100135803
1750506129094196700,1.09319677734375,0.022687500342726707,0.015399999916553497,-0.17159999907016754
1750506129103801300,1.10280126953125,-0.050599999725818634,-0.08978749811649323,-0.10312499850988388
1750506129113406000,1.112406005859375,-0.06407500058412552,-0.14231249690055847,-0.07259999960660934
1750506129123010600,1.122010498046875,-0.02736249938607216,-0.14588749408721924,-0.08855000138282776
1750506129132615200,1.131615234375,0.012924999929964542,-0.06902500241994858,-0.11659999936819077
1750506129142219800,1.1412197265625,0.03863750025629997,0.022687500342726707,-0.1373624950647354
1750506129151824400,1.150824462890625,0.06297499686479568,0.11550000309944153,-0.15812499821186066
1750506129161428700,1.1604287109375,0.08249999582767487,0.21931250393390656,-0.15936249494552612
1750506129171033300,1.170033447265625,0.09116250276565552,0.22673749923706055,-0.14836250245571136
1750506129180638000,1.179637939453125,0.08016250282526016,0.1447875052690506,-0.13241249322891235
1750506129190242800,1.189242919921875,0.043449997901916504,0.029975000768899918,-0.10807500034570694
1750506129199847200,1.19884716796875,-0.006599999964237213,-0.06655000150203705,-0.07631249725818634
1750506129209451800,1.20845166015625,-0.04688749834895134,-0.10807500034570694,-0.031075000762939453
1750506129219056400,1.218056396484375,-0.06283749639987946,-0.07507500052452087,0.018975000828504562
1750506129228661000,1.227660888671875,-0.04207500070333481,-0.011549999937415123,0.03616249933838844
1750506129238265600,1.237265625,-0.004124999977648258,0.06544999778270721,0.011687500402331352
1750506129247870200,1.2468701171875,0.028875000774860382,0.09473749995231628,-0.036024998873472214
1750506129257474800,1.256474853515625,0.04592499881982803,0.08744999766349792,-0.08855000138282776
1750506129267079400,1.266079345703125,0.04839999973773956,0.08002500236034393,-0.12031249701976776
1750506129276684000,1.27568408203125,0.04592499881982803,0.10326249897480011,-0.11288750171661377
1750506129286288600,1.28528857421875,0.04221250116825104,0.12168750166893005,-0.07507500052452087
1750506129295893200,1.294893310546875,0.03739999979734421,0.12278749793767929,-0.038362499326467514
1750506129305497900,1.304497802734375,0.04221250116825104,0.13021250069141388,-0.0042624999769032
1750506129315102500,1.3141025390625,0.05816249921917915,0.13378749787807465,0.03492499887943268
1750506129324706800,1.323706787109375,0.06297499686479568,0.13997499644756317,0.060499999672174454
1750506129334311400,1.3333115234375,0.025162499397993088,0.14726249873638153,0.08373750001192093
1750506129343916000,1.342916015625,0.004399999976158142,0.12044999748468399,0.09597499668598175
1750506129353520600,1.352520751953125,0.016637500375509262,0.09350000321865082,0.0752125009894371
1750506129363125200,1.362125244140625,0.03492499887943268,0.10449999570846558,0.04221250116825104
1750506129372729900,1.371729736328125,0.06173750013113022,0.20721249282360077,0.022687500342726707
1750506129382334500,1.38133447265625,0.055687498301267624,0.342787504196167,0.06668750196695328
1750506129391939000,1.39093896484375,0.03987500071525574,0.46860000491142273,0.15578749775886536
1750506129401543700,1.400543701171875,0.022687500342726707,0.6261749863624573,0.25107499957084656
1750506129411148300,1.410148193359375,-0.021312499418854713,0.6774625182151794,0.342787504196167
1750506129420753000,1.4197529296875,-0.05664999783039093,0.6738874912261963,0.414837509393692
1750506129430357200,1.429357177734375,-0.07259999960660934,0.6861249804496765,0.47464999556541443
1750506129439962000,1.438962158203125,-0.09336250275373459,0.683650016784668,0.526075005531311
1750506129449566700,1.448566650390625,-0.1190750002861023,0.6469374895095825,0.5724124908447266
1750506129459171000,1.458171142578125,-0.1373624950647354,0.6628875136375427,0.6201249957084656
1750506129468775700,1.467775634765625,-0.12264999747276306,0.8094624876976013,0.6934124827384949
1750506129478380300,1.47738037109375,-0.09707500040531158,1.0232750177383423,0.8399875164031982
1750506129487985000,1.48698486328125,-0.13983750343322754,1.290850043296814,1.1015125513076782
1750506129497589500,1.496589599609375,-0.2864125072956085,1.5204750299453735,1.4251874685287476
1750506129507194000,1.506194091796875,-0.41346248984336853,1.7403374910354614,1.6867125034332275
1750506129516798700,1.515798828125,-0.4830375015735626,2.0799624919891357,1.8380999565124512
1750506129526403300,1.5254033203125,-0.4489375054836273,2.446537494659424,1.8686250448226929
1750506129536008000,1.535008056640625,-0.29493749141693115,2.6310625076293945,1.8247624635696411
1750506129545612500,1.544612548828125,-0.023787500336766243,2.0849125385284424,1.773337483406067
1750506129555217200,1.554217041015625,0.30250000953674316,1.2113749980926514,1.7660499811172485
1750506129564821500,1.563821533203125,0.5724124908447266,0.4954124987125397,1.8148624897003174
1750506129574426400,1.57342626953125,0.7251750230789185,0.011687500402331352,1.8723374605178833
1750506129584030700,1.58303076171875,0.7093625068664551,-0.21188749372959137,1.9138624668121338
1750506129593635600,1.592635498046875,0.5846499800682068,-0.3133625090122223,2.0299124717712402
1750506129603240200,1.602240234375,0.4600749909877777,-0.1788875013589859,2.2877249717712402
1750506129612844800,1.6118447265625,0.28049999475479126,0.16073749959468842,2.6615874767303467
1750506129622449400,1.621449462890625,0.2560249865055084,-0.040837500244379044,2.8631625175476074
1750506129632054000,1.631053955078125,0.4515500068664551,-0.14959999918937683,3.028024911880493
1750506129641658600,1.64065869140625,0.653124988079071,-0.16307500004768372,3.315124988555908
1750506129651263200,1.65026318359375,0.7849875092506409,0.06421250104904175,3.691462516784668
1750506129660867600,1.65986767578125,0.8351749777793884,0.06297499686479568,3.9407498836517334
1750506129670472200,1.66947216796875,0.7556999921798706,-0.3156999945640564,3.894274950027466
1750506129680076800,1.679076904296875,0.609125018119812,-0.7690374851226807,3.6339874267578125
1750506129689681700,1.688681640625,0.4881249964237213,-1.4641000032424927,3.2822625637054443
1750506129699286300,1.698286376953125,0.43078750371932983,-1.7573875188827515,3.035449981689453
1750506129708891000,1.707890869140625,0.3452624976634979,-1.559387445449829,3.092787504196167
1750506129718495500,1.71749560546875,0.24997499585151672,-1.3810499906539917,3.2187373638153076
1750506129728100000,1.72710009765625,0.19978749752044678,-1.0621875524520874,3.362837553024292
1750506129737704400,1.736704345703125,0.18150000274181366,-0.8581374883651733,3.421412467956543
1750506129747309000,1.74630908203125,0.1839749962091446,-0.73232501745224,3.2822625637054443
1750506129756913700,1.75591357421875,0.18892499804496765,-0.5319874882698059,2.9865000247955322
1750506129766518300,1.765518310546875,0.18768750131130219,-0.43546250462532043,2.6420624256134033
1750506129776123000,1.775122802734375,0.21697500348091125,-0.4452250003814697,2.3060123920440674
1750506129785727500,1.7847275390625,0.25478750467300415,-0.47946250438690186,2.048337459564209
1750506129795332000,1.79433203125,0.29026249051094055,-0.49898749589920044,1.8222874402999878
1750506129804936700,1.803936767578125,0.2952125072479248,-0.3866499960422516,1.544950008392334
1750506129814541300,1.813541259765625,0.2890250086784363,-0.2619374990463257,1.2358499765396118
1750506129824146000,1.82314599609375,0.29878750443458557,-0.2656500041484833,0.9132750034332275
1750506129833750500,1.83275048828125,0.34031251072883606,-0.30841249227523804,0.5504124760627747
1750506129843355100,1.842355224609375,0.4002625048160553,-0.2974124848842621,0.13021250069141388
1750506129852959700,1.851959716796875,0.49431249499320984,-0.31817498803138733,-0.3634124994277954
1750506129862564000,1.861564208984375,0.5676000118255615,-0.36588749289512634,-0.9143750071525574
1750506129872168700,1.871168701171875,0.5676000118255615,-0.3634124994277954,-1.4958624839782715
1750506129881773300,1.880773193359375,0.5126000046730042,-0.35241249203681946,-2.060299873352051
1750506129891378000,1.8903779296875,0.4442625045776367,-0.30717501044273376,-2.5258750915527344
1750506129900982500,1.899982421875,0.4833124876022339,-0.22536249458789825,-2.8238375186920166
1750506129910587100,1.909587158203125,0.46131250262260437,-0.26936250925064087,-2.9728875160217285
1750506129920191700,1.919191650390625,0.4100250005722046,-0.28888750076293945,-3.1121749877929688
1750506129929796400,1.92879638671875,0.3830749988555908,-0.12759999930858612,-3.3137500286102295
1750506129939401000,1.93840087890625,0.30373749136924744,0.08868750184774399,-3.6008498668670654
1750506129949005600,1.948005615234375,0.21697500348091125,0.2657875120639801,-3.983375072479248
1750506129958610200,1.957610107421875,0.22673749923706055,0.36959999799728394,-4.472050189971924
1750506129968214800,1.96721484375,0.48454999923706055,0.5761250257492065,-4.985062599182129
1750506129977819400,1.9768193359375,0.819225013256073,0.4833124876022339,-5.233112335205078
1750506129987424000,1.986424072265625,0.8901749849319458,0.0494999997317791,-5.162300109863281
1750506129997028600,1.996028564453125,0.8082249760627747,-0.2876499891281128,-5.003487586975098
1750506130006633000,2.005633056640625,0.6115999817848206,-0.2839374840259552,-4.883725166320801
1750506130016237800,2.01523779296875,0.43326249718666077,0.0019249999895691872,-4.79325008392334
1750506130025842400,2.024842529296875,0.39778751134872437,0.3232625126838684,-4.696724891662598
1750506130035446800,2.03444677734375,0.5065500140190125,0.5906999707221985,-4.617387294769287
1750506130045051400,2.044051513671875,0.7911750078201294,0.7862250208854675,-4.4621500968933105
1750506130054656000,2.053656005859375,0.8852249979972839,0.7727500200271606,-4.002900123596191
1750506130064260600,2.063260498046875,0.7959874868392944,0.5956500172615051,-3.2576498985290527
1750506130073865200,2.072865234375,0.6848874688148499,0.4930749833583832,-2.4011623859405518
1750506130083469800,2.0824697265625,0.4320249855518341,0.5358374714851379,-1.6913875341415405
1750506130093074400,2.092074462890625,0.15468749403953552,0.6934124827384949,-1.2772375345230103
1750506130112283600,2.11128369140625,-0.07012499868869781,0.5601750016212463,-0.8471375107765198
1750506130121888300,2.12088818359375,-0.035887498408555984,0.3793624937534332,-0.7690374851226807
1750506130131492900,2.130492919921875,0.06173750013113022,0.17544999718666077,-0.6968500018119812
1750506130141097500,2.140097412109375,0.12168750166893005,0.05073750019073486,-0.5417500138282776
1750506130150701800,2.149701904296875,0.10821250081062317,0.06173750013113022,-0.3156999945640564
1750506130160306700,2.159306640625,0.043449997901916504,0.1545500010251999,-0.09212499856948853
1750506130169911000,2.1689111328125,-0.0518375001847744,0.22673749923706055,0.07273750007152557
1750506130179515600,2.178515625,-0.1434125006198883,0.2217874974012375,0.1802625060081482
1750506130189120500,2.18812060546875,-0.19965000450611115,0.15097500383853912,0.22550000250339508
1750506130198724900,2.197724853515625,-0.22288750112056732,0.06792499870061874,0.22921249270439148
1750506130208329700,2.207329833984375,-0.2069374918937683,0.03726249933242798,0.2059749960899353
1750506130217934300,2.216934326171875,-0.16541250050067902,0.031212499365210533,0.17297500371932983
1750506130227538700,2.22653857421875,-0.13007499277591705,0.03368749842047691,0.15468749403953552
1750506130237143600,2.2361435546875,-0.10064999759197235,0.009212499484419823,0.15702499449253082
1750506130246748000,2.245747802734375,-0.08841250091791153,-0.0005499999970197678,0.1742125004529953
1750506130256352500,2.2553525390625,-0.09336250275373459,0.020212499424815178,0.17544999718666077
1750506130265957400,2.264957275390625,-0.09459999948740005,0.05926249921321869,0.18521249294281006
1750506130275561700,2.274561767578125,-0.10188750177621841,0.13021250069141388,0.2120250016450882
1750506130285166000,2.284166015625,-0.10064999759197235,0.20473749935626984,0.22550000250339508
1750506130294770700,2.293770751953125,-0.09336250275373459,0.19126249849796295,0.2120250016450882
1750506130304375600,2.30337548828125,-0.09088750183582306,0.10944999754428864,0.15826250612735748
1750506130313980200,2.312980224609375,-0.08607500046491623,0.04468749836087227,0.09473749995231628
1750506130323584800,2.322584716796875,-0.07136250287294388,0.03726249933242798,0.05692499876022339
1750506130333189400,2.332189453125,-0.031075000762939453,0.05321250110864639,0.07768750190734863
1750506130342794000,2.3417939453125,0.015399999916553497,0.08373750001192093,0.15578749775886536
1750506130352398600,2.351398681640625,0.03739999979734421,0.14973749220371246,0.23649999499320984
1750506130362003200,2.361003173828125,0.03368749842047691,0.19497500360012054,0.26826250553131104
1750506130371607600,2.370607666015625,0.0019249999895691872,0.19731250405311584,0.23897500336170197
1750506130381212400,2.38021240234375,-0.028599999845027924,0.1447875052690506,0.1802625060081482
1750506130390816800,2.389816650390625,-0.03959999978542328,0.06668750196695328,0.11550000309944153
1750506130400421400,2.39942138671875,-0.03355000168085098,0.026399999856948853,0.07397499680519104
1750506130410026000,2.40902587890625,-0.018837500363588333,0.0006874999962747097,0.07397499680519104
1750506130419630800,2.418630859375,-0.009074999950826168,-0.026262499392032623,0.09721250087022781
1750506130429235500,2.4282353515625,-0.015124999918043613,-0.02502499893307686,0.11192499846220016
1750506130438840000,2.437840087890625,-0.026124998927116394,-0.020075000822544098,0.10821250081062317
1750506130448444400,2.4474443359375,-0.04331250116229057,0.010449999943375587,0.08744999766349792
1750506130458049000,2.457049072265625,-0.05664999783039093,0.048262499272823334,0.05073750019073486
1750506130467653600,2.466653564453125,-0.053075000643730164,0.06668750196695328,0.023924998939037323
1750506130477258200,2.47625830078125,-0.03959999978542328,0.05444999784231186,0.018975000828504562
1750506130486862800,2.48586279296875,-0.028599999845027924,0.023924998939037323,0.020212499424815178
1750506130496467500,2.495467529296875,-0.016362499445676804,0.007974999956786633,0.0056374999694526196
1750506130506072000,2.505072021484375,-0.006599999964237213,-0.020075000822544098,-0.022549999877810478
1750506130515676700,2.5146767578125,0.0006874999962747097,-0.031075000762939453,-0.06531249731779099
1750506130525281300,2.52428125,0.015399999916553497,-0.016362499445676804,-0.08855000138282776
1750506130534886000,2.533885986328125,0.023924998939037323,0.025162499397993088,-0.07012499868869781
1750506130544490500,2.543490478515625,0.026399999856948853,0.06916250288486481,-0.02502499893307686
1750506130554095000,2.55309521484375,0.020212499424815178,0.0849749967455864,0.015399999916553497
1750506130563699500,2.562699462890625,0.0056374999694526196,0.048262499272823334,0.020212499424815178
1750506130573304000,2.572303955078125,-0.015124999918043613,-0.009074999950826168,-0.005362499970942736
1750506130582908700,2.58190869140625,-0.026124998927116394,-0.03478749841451645,-0.036024998873472214
1750506130592513300,2.59151318359375,-0.018837500363588333,-0.020075000822544098,-0.05431250110268593
1750506130602118000,2.601117919921875,0.0006874999962747097,0.023924998939037323,-0.03712499886751175
1750506130611722500,2.610722412109375,0.020212499424815178,0.06916250288486481,0.004399999976158142
1750506130621327000,2.6203271484375,0.018975000828504562,0.0789249986410141,0.03368749842047691
1750506130630931700,2.629931640625,-0.0005499999970197678,0.05816249921917915,0.031212499365210533
1750506130640536300,2.639536376953125,-0.020075000822544098,0.026399999856948853,0.009212499484419823
1750506130650141000,2.649140869140625,-0.038362499326467514,0.0006874999962747097,-0.015124999918043613
1750506130659745500,2.65874560546875,-0.04331250116229057,-0.0017874999903142452,-0.021312499418854713
1750506130669350100,2.66835009765625,-0.04207500070333481,0.007974999956786633,0.0031624999828636646
1750506130678954800,2.677954833984375,-0.03959999978542328,0.010449999943375587,0.021449999883770943
1750506130688559400,2.687559326171875,-0.038362499326467514,0.012924999929964542,0.016637500375509262
1750506130698164000,2.6971640625,-0.02736249938607216,0.014162499457597733,-0.010312499478459358
1750506130707768300,2.706768310546875,-0.0028874999843537807,0.018975000828504562,-0.045787498354911804
1750506130717373000,2.716373046875,0.029975000768899918,0.027499999850988388,-0.06888750195503235
1750506130726977500,2.7259775390625,0.05321250110864639,0.025162499397993088,-0.06159999966621399
1750506130736582100,2.73558203125,0.05939999967813492,0.021449999883770943,-0.048124998807907104
1750506130746186800,2.745186767578125,0.0471624992787838,0.017737500369548798,-0.01759999990463257
1750506130755791400,2.754791259765625,0.025162499397993088,0.016499999910593033,0.018975000828504562
1750506130765396000,2.76439599609375,0.0031624999828636646,0.029975000768899918,0.04221250116825104
1750506130775000600,2.77400048828125,-0.010312499478459358,0.031212499365210533,0.05073750019073486
1750506130784605200,2.783605224609375,-0.011549999937415123,0.03726249933242798,0.043449997901916504
1750506130794209800,2.793209716796875,0.0006874999962747097,0.05816249921917915,0.020212499424815178
1750506130803814400,2.802814453125,0.022687500342726707,0.07768750190734863,-0.0017874999903142452
1750506130813419000,2.8124189453125,0.055687498301267624,0.08992499858140945,-0.016362499445676804
1750506130823023600,2.822023681640625,0.07644999772310257,0.07026249915361404,-0.014024999924004078
1750506130832628000,2.8316279296875,0.07039999961853027,0.03492499887943268,-0.020075000822544098
1750506130842232800,2.84123291015625,0.04963750019669533,-0.015262499451637268,-0.048124998807907104
1750506130851837200,2.850837158203125,0.025162499397993088,-0.06531249731779099,-0.07383749634027481
1750506130861441800,2.86044189453125,0.006874999962747097,-0.0798875018954277,-0.10312499850988388
1750506130871046700,2.870046630859375,0.014162499457597733,-0.060362499207258224,-0.12636250257492065
1750506130880651300,2.8796513671875,0.03987500071525574,-0.011549999937415123,-0.1288374960422516
1750506130890256000,2.889255859375,0.07273750007152557,0.028737500309944153,-0.10312499850988388
1750506130899860200,2.898860107421875,0.08621250092983246,0.0471624992787838,-0.05678749829530716
1750506130909464800,2.90846484375,0.07397499680519104,0.04592499881982803,-0.021312499418854713
1750506130919069400,2.9180693359375,0.04097500070929527,0.020212499424815178,-0.011549999937415123
1750506130928674000,2.927674072265625,0.004399999976158142,-0.0005499999970197678,-0.018837500363588333
1750506130938278700,2.937278564453125,-0.013887500390410423,-0.011549999937415123,-0.021312499418854713
1750506130947883500,2.946883544921875,-0.010312499478459358,-0.005362499970942736,-0.007837500423192978
1750506130957488000,2.956488037109375,0.0006874999962747097,0.021449999883770943,0.023924998939037323
1750506130967092700,2.9660927734375,0.008112499490380287,0.04097500070929527,0.05692499876022339
1750506130976697300,2.975697265625,-0.0005499999970197678,0.03368749842047691,0.06173750013113022
1750506130986302000,2.985302001953125,-0.010312499478459358,0.022687500342726707,0.03973750025033951
1750506130995906300,2.99490625,-0.011549999937415123,0.0019249999895691872,0.018975000828504562
1750506131005511000,3.004510986328125,-0.006599999964237213,-0.006599999964237213,0.010449999943375587
1750506131015115500,3.014115478515625,-0.004124999977648258,-0.016362499445676804,0.018975000828504562
1750506131024720100,3.02372021484375,-0.004124999977648258,-0.015262499451637268,0.026399999856948853
1750506131034324700,3.03332470703125,-0.015124999918043613,-0.007837500423192978,0.03616249933838844
1750506131043929300,3.042929443359375,-0.03355000168085098,-0.0017874999903142452,0.05073750019073486
1750506131053534000,3.052533935546875,-0.03959999978542328,0.005499999970197678,0.05692499876022339
1750506131063138600,3.062138671875,-0.03712499886751175,0.03849999979138374,0.05926249921321869
1750506131072743200,3.0717431640625,-0.02736249938607216,0.07150000333786011,0.06792499870061874
1750506131082347800,3.08134765625,-0.011549999937415123,0.07150000333786011,0.07026249915361404
1750506131091952000,3.0909521484375,-0.004124999977648258,0.043449997901916504,0.060499999672174454
1750506131101556700,3.100556640625,-0.010312499478459358,0.007974999956786633,0.028737500309944153
1750506131111161300,3.110161376953125,-0.011549999937415123,-0.018837500363588333,-0.010312499478459358
1750506131120766000,3.119765869140625,-0.009074999950826168,-0.036024998873472214,-0.04936249926686287
1750506131130370600,3.12937060546875,-0.005362499970942736,-0.03355000168085098,-0.06531249731779099
1750506131139975200,3.13897509765625,-0.0017874999903142452,-0.010312499478459358,-0.050599999725818634
1750506131149579800,3.148579833984375,0.0019249999895691872,0.027499999850988388,-0.02502499893307686
1750506131159184400,3.158184326171875,0.006874999962747097,0.05321250110864639,-0.006599999964237213
1750506131168789000,3.1677890625,0.0056374999694526196,0.0494999997317791,0.0006874999962747097
1750506131178393600,3.1773935546875,-0.0005499999970197678,0.0031624999828636646,-0.016362499445676804
1750506131187998200,3.186998291015625,-0.012787500396370888,-0.04331250116229057,-0.04936249926686287
1750506131197602800,3.196602783203125,-0.012787500396370888,-0.060362499207258224,-0.07878749817609787
1750506131207207200,3.206207275390625,-0.004124999977648258,-0.03959999978542328,-0.08607500046491623
1750506131216811800,3.215811767578125,0.008112499490380287,0.0031624999828636646,-0.07507500052452087
1750506131226416600,3.225416748046875,0.021449999883770943,0.043449997901916504,-0.0518375001847744
1750506131236021200,3.235021240234375,0.027637500315904617,0.07273750007152557,-0.028599999845027924
1750506131245625900,3.2446259765625,0.028875000774860382,0.09102500230073929,-0.011549999937415123
1750506131255230200,3.254230224609375,0.022687500342726707,0.08992499858140945,-0.005362499970942736
1750506131264834800,3.263834716796875,0.025162499397993088,0.06668750196695328,-0.018837500363588333
1750506131274439400,3.273439453125,0.028875000774860382,0.015399999916553497,-0.05912499874830246
1750506131284044000,3.2830439453125,0.020212499424815178,-0.038362499326467514,-0.1116499975323677
1750506131293648600,3.292648681640625,0.015399999916553497,-0.07136250287294388,-0.15936249494552612
1750506131303253200,3.302253173828125,0.0056374999694526196,-0.07507500052452087,-0.1788875013589859
1750506131312857900,3.31185791015625,0.0031624999828636646,-0.07383749634027481,-0.16541250050067902
1750506131322462500,3.32146240234375,0.0031624999828636646,-0.048124998807907104,-0.13983750343322754
1750506131332067000,3.331067138671875,0.008112499490380287,0.0031624999828636646,-0.09459999948740005
1750506131341671400,3.34067138671875,0.008112499490380287,0.0471624992787838,-0.036024998873472214
1750506131351276300,3.3502763671875,0.006874999962747097,0.07768750190734863,0.017737500369548798
1750506131360881000,3.359880859375,0.004399999976158142,0.04592499881982803,0.04221250116825104
1750506131370485200,3.3694853515625,-0.0017874999903142452,-0.021312499418854713,0.017737500369548798
1750506131380089900,3.37908984375,-0.012787500396370888,-0.06778749823570251,-0.028599999845027924
1750506131389694700,3.38869482421875,-0.011549999937415123,-0.06902500241994858,-0.06888750195503235
1750506131399299300,3.39829931640625,0.0056374999694526196,-0.020075000822544098,-0.08236250281333923
1750506131408904000,3.407904052734375,0.031212499365210533,0.04221250116825104,-0.05912499874830246
1750506131418508500,3.417508544921875,0.04592499881982803,0.06421250104904175,-0.018837500363588333
1750506131428113000,3.42711279296875,0.03987500071525574,0.043449997901916504,0.004399999976158142
1750506131437717500,3.436717529296875,0.012924999929964542,0.0019249999895691872,-0.0017874999903142452
1750506131447322000,3.446322021484375,-0.015124999918043613,-0.03712499886751175,-0.02983750030398369
1750506131456926500,3.455926513671875,-0.03355000168085098,-0.07012499868869781,-0.05555000156164169
1750506131466531300,3.46553125,-0.03712499886751175,-0.07383749634027481,-0.07136250287294388
1750506131476136000,3.475135986328125,-0.028599999845027924,-0.04331250116229057,-0.07507500052452087
1750506131485740500,3.484740478515625,-0.020075000822544098,0.0006874999962747097,-0.08483749628067017
1750506131495345200,3.49434521484375,-0.011549999937415123,0.03849999979138374,-0.10683749616146088
1750506131504949800,3.50394970703125,-0.010312499478459358,0.05073750019073486,-0.11055000126361847
1750506131514554400,3.513554443359375,-0.018837500363588333,0.05692499876022339,-0.08855000138282776
1750506131524159000,3.523158935546875,-0.03464999794960022,0.09226249903440475,-0.038362499326467514
1750506131533763600,3.532763671875,-0.05664999783039093,0.1424500048160553,0.028737500309944153
1750506131543368000,3.542367919921875,-0.0835999995470047,0.2217874974012375,0.11426249891519547
1750506131552972500,3.55197265625,-0.11041250079870224,0.3097875118255615,0.24997499585151672
1750506131562577200,3.5615771484375,-0.11783749610185623,0.39778751134872437,0.4283125102519989
1750506131572182000,3.57118212890625,-0.10312499850988388,0.4636499881744385,0.6604124903678894
1750506131581786600,3.58078662109375,-0.089649997651577,0.5676000118255615,0.9609875082969666
1750506131591391200,3.59039111328125,-0.035887498408555984,0.7899374961853027,1.356850028038025
1750506131600995600,3.59999560546875,0.018975000828504562,1.0268499851226807,1.916337490081787
1750506131610600200,3.60960009765625,0.04592499881982803,1.3348499536514282,2.62253737449646
1750506131620204800,3.619204833984375,0.09473749995231628,1.645050048828125,3.4508373737335205
1750506131629809400,3.628809326171875,0.18768750131130219,1.7599999904632568,4.356137275695801
1750506131639414000,3.6384140625,0.3110249936580658,1.6792874336242676,5.217437267303467
1750506131649018400,3.648018310546875,0.2877874970436096,1.1026124954223633,5.815975189208984
1750506131658623000,3.657623046875,0.13997499644756317,0.30002498626708984,6.001737594604492
1750506131668227600,3.6672275390625,0.009212499484419823,-0.4819374978542328,5.985787391662598
1750506131677832400,3.67683251953125,-0.09336250275373459,-1.3224749565124512,5.951687335968018
1750506131687437000,3.68643701171875,-0.07012499868869781,-1.895437479019165,5.897924900054932
1750506131697041700,3.696041748046875,-0.011549999937415123,-2.2093498706817627,5.906449794769287
1750506131706646300,3.705646240234375,-0.035887498408555984,-2.308350086212158,5.84663724899292
1750506131716251000,3.7152509765625,-0.11783749610185623,-2.099487543106079,5.572875022888184
1750506131725855200,3.724855224609375,-0.23993749916553497,-1.654675006866455,5.1354875564575195
1750506131735460000,3.734460205078125,-0.2827000021934509,-1.0621875524520874,4.611474990844727
1750506131745064400,3.744064453125,-0.19359999895095825,-0.45374998450279236,4.133800029754639
1750506131754669000,3.7536689453125,-0.08112499862909317,-0.0775500014424324,3.666987419128418
1750506131764273700,3.763273681640625,-0.013887500390410423,-0.006599999964237213,3.0806875228881836
1750506131773878300,3.772878173828125,0.011687500402331352,-0.18741250038146973,2.370774984359741
1750506131783483000,3.78248291015625,0.028875000774860382,-0.5197499990463257,1.5912874937057495
1750506131793087500,3.79208740234375,0.06297499686479568,-0.8520874977111816,0.8327000141143799
1750506131802692000,3.801692138671875,0.11797499656677246,-1.0634249448776245,0.1704999953508377
1750506131812296700,3.811296630859375,0.16321249306201935,-1.130662441253662,-0.3964124917984009
1750506131821901000,3.820901123046875,0.20721249282360077,-1.0683749914169312,-0.8923749923706055
1750506131831505700,3.830505615234375,0.2829749882221222,-0.8568999767303467,-1.3334749937057495
1750506131841110500,3.840110595703125,0.40755000710487366,-0.4916999936103821,-1.7194374799728394
1750506131850715100,3.849715087890625,0.5541250109672546,-0.10188750177621841,-1.9857749938964844
1750506131860319500,3.859319580078125,0.656837522983551,0.15097500383853912,-2.1300125122070312
1750506131869924000,3.868924072265625,0.7203624844551086,0.2780250012874603,-2.2595374584198
1750506131879528700,3.87852880859375,0.7691749930381775,0.2523125112056732,-2.468400001525879
1750506131889133300,3.88813330078125,0.7959874868392944,0.1289750039577484,-2.768975019454956
1750506131898738000,3.897738037109375,0.8254125118255615,0.0471624992787838,-3.090174913406372
1750506131908342500,3.907342529296875,0.863224983215332,0.006737499963492155,-3.343174934387207
1750506131917947100,3.916947021484375,0.9072250127792358,0.021449999883770943,-3.508037567138672
1750506131927551700,3.9265517578125,0.8901749849319458,-0.05431250110268593,-3.5777499675750732
1750506131937156000,3.936156005859375,0.7972249984741211,-0.2681249976158142,-3.5777499675750732
1750506131946761000,3.945760986328125,0.6983624696731567,-0.4427500069141388,-3.537324905395508
1750506131956365600,3.955365478515625,0.6323624849319458,-0.4977499842643738,-3.461699962615967
1750506131965970200,3.96497021484375,0.6421250104904175,-0.3377000093460083,-3.3749375343322754
1750506131975574500,3.974574462890625,0.754462480545044,-0.03959999978542328,-3.2148873805999756
1750506131985179100,3.98417919921875,0.8131750226020813,0.06668750196695328,-2.952125072479248
1750506131994783700,3.99378369140625,0.7972249984741211,0.06792499870061874,-2.71521258354187
1750506132004388400,4.003388427734375,0.7264124751091003,0.027499999850988388,-2.5673999786376953
1750506132013993000,4.012992919921875,0.6103624701499939,-0.023787500336766243,-2.5074501037597656
1750506132023597600,4.02259765625,0.5198875069618225,0.04221250116825104,-2.535637378692627
1750506132033202200,4.0322021484375,0.47478750348091125,0.1742125004529953,-2.5026373863220215
1750506132042806800,4.041806884765625,0.4100250005722046,0.227974995970726,-2.2851123809814453
1750506132052411100,4.0514111328125,0.35749998688697815,0.2633124887943268,-1.9284374713897705
1750506132062016000,4.06101611328125,0.2927374839782715,0.2377374917268753,-1.5338125228881836
1750506132071620600,4.07062060546875,0.18150000274181366,0.2059749960899353,-1.234475016593933
1750506132081225200,4.08022509765625,0.043449997901916504,0.2475000023841858,-1.12090003490448
1750506132090829600,4.08982958984375,-0.07012499868869781,0.38183748722076416,-1.1489499807357788
1750506132100434200,4.09943408203125,-0.10559999942779541,0.5724124908447266,-1.2197624444961548
1750506132110038800,4.109038818359375,-0.04688749834895134,0.7312250137329102,-1.2075250148773193
1750506132119643400,4.118643310546875,0.017875000834465027,0.7264124751091003,-1.025612473487854
1750506132129248000,4.128248046875,0.008112499490380287,0.6164125204086304,-0.7616124749183655
1750506132138852600,4.1378525390625,-0.08483749628067017,0.544362485408783,-0.5637499690055847
1750506132148457200,4.147457275390625,-0.2264624983072281,0.5308874845504761,-0.48069998621940613
1750506132158061800,4.157061767578125,-0.35241249203681946,0.5150749683380127,-0.4512749910354614
1750506132167666200,4.166666259765625,-0.43174999952316284,0.43078750371932983,-0.41222500801086426
1750506132177271000,4.17627099609375,-0.4684624969959259,0.37331250309944153,-0.3817000091075897
1750506132186875600,4.185875732421875,-0.4867500066757202,0.34402498602867126,-0.34869998693466187
1750506132196480000,4.19547998046875,-0.5025625228881836,0.3293125033378601,-0.3218874931335449
1750506132206084900,4.2050849609375,-0.4927999973297119,0.3488374948501587,-0.31817498803138733
1750506132215689500,4.214689453125,-0.4587000012397766,0.3903625011444092,-0.3279374837875366
1750506132225293800,4.2242939453125,-0.3559874892234802,0.4844124913215637,-0.3096500039100647
1750506132234898700,4.233898681640625,-0.2387000024318695,0.46131250262260437,-0.1751749962568283
1750506132244503300,4.24350341796875,-0.1629374921321869,0.414837509393692,-0.04702499881386757
1750506132254107600,4.253107666015625,-0.1311749964952469,0.45883750915527344,-0.015124999918043613
1750506132263712300,4.262712158203125,-0.13488750159740448,0.4600749909877777,-0.053075000643730164
1750506132273316900,4.27231689453125,-0.14093749225139618,0.37331250309944153,-0.11288750171661377
1750506132282921500,4.28192138671875,-0.1311749964952469,0.23649999499320984,-0.1508374959230423
1750506132292526000,4.291526123046875,-0.11783749610185623,0.10449999570846558,-0.14836250245571136
1750506132302130700,4.301130615234375,-0.11288750171661377,0.006737499963492155,-0.1214125007390976
1750506132311735300,4.3107353515625,-0.10917499661445618,-0.04455000162124634,-0.11783749610185623
1750506132321340000,4.32033984375,-0.07383749634027481,-0.07136250287294388,-0.1251250058412552
1750506132330944500,4.329944580078125,-0.02736249938607216,-0.10312499850988388,-0.10188750177621841
1750506132340549400,4.33954931640625,0.009212499484419823,-0.09955000132322311,-0.07383749634027481
1750506132350153500,4.349153564453125,0.016637500375509262,-0.060362499207258224,-0.04936249926686287
1750506132359758300,4.35875830078125,0.004399999976158142,0.0031624999828636646,-0.026124998927116394
1750506132369363000,4.368363037109375,-0.006599999964237213,0.043449997901916504,-0.006599999964237213
1750506132378967600,4.377967529296875,-0.010312499478459358,0.06421250104904175,0.0031624999828636646
1750506132388572200,4.387572265625,-0.005362499970942736,0.07768750190734863,0.012924999929964542
1750506132398176800,4.3971767578125,0.010449999943375587,0.06297499686479568,0.028737500309944153
1750506132407781400,4.406781494140625,0.0056374999694526196,0.012924999929964542,0.04097500070929527
1750506132417386000,4.416385986328125,-0.020075000822544098,-0.06283749639987946,0.03492499887943268
1750506132426990300,4.425990234375,-0.05555000156164169,-0.1190750002861023,0.014162499457597733
1750506132436595000,4.435594970703125,-0.0873124971985817,-0.13255000114440918,0.007974999956786633
1750506132446199600,4.445199462890625,-0.09583749622106552,-0.09831249713897705,0.03849999979138374
1750506132455804400,4.454804443359375,-0.09459999948740005,-0.026262499392032623,0.08621250092983246
1750506132465408800,4.46440869140625,-0.08236250281333923,0.04592499881982803,0.12526249885559082
1750506132475013400,4.474013427734375,-0.0798875018954277,0.10449999570846558,0.13626250624656677
1750506132484618000,4.483617919921875,-0.08483749628067017,0.12526249885559082,0.12292499840259552
1750506132494222600,4.49322265625,-0.089649997651577,0.10449999570846558,0.09226249903440475
1750506132503827200,4.5028271484375,-0.08236250281333923,0.06668750196695328,0.043449997901916504
1750506132513431800,4.512431884765625,-0.06283749639987946,0.004399999976158142,-0.018837500363588333
1750506132523036200,4.5220361328125,-0.04207500070333481,-0.0775500014424324,-0.07631249725818634
1750506132532641000,4.53164111328125,-0.02736249938607216,-0.13007499277591705,-0.1214125007390976
1750506132542245400,4.541245361328125,-0.02736249938607216,-0.10683749616146088,-0.12264999747276306
1750506132551850000,4.55085009765625,-0.03959999978542328,-0.02736249938607216,-0.05912499874830246
1750506132561454600,4.56045458984375,-0.04455000162124634,0.07768750190734863,0.025162499397993088
1750506132571059200,4.57005908203125,-0.04455000162124634,0.12773749232292175,0.08868750184774399
1750506132580663800,4.579663818359375,-0.04936249926686287,0.1264999955892563,0.10202500224113464
1750506132590268400,4.589268310546875,-0.048124998807907104,0.08373750001192093,0.08249999582767487
1750506132599873000,4.598873046875,-0.040837500244379044,0.028737500309944153,0.055687498301267624
1750506132609477600,4.6084775390625,-0.03231250122189522,-0.0005499999970197678,0.028737500309944153
1750506132619082200,4.618082275390625,-0.016362499445676804,0.0006874999962747097,0.012924999929964542
1750506132628686800,4.627686767578125,-0.0017874999903142452,0.0006874999962747097,0.0019249999895691872
1750506132638291500,4.63729150390625,0.004399999976158142,-0.010312499478459358,-0.011549999937415123
1750506132647895800,4.646895751953125,-0.0005499999970197678,-0.0017874999903142452,-0.022549999877810478
1750506132657500400,4.65650048828125,-0.010312499478459358,0.0019249999895691872,-0.02736249938607216
1750506132667105000,4.66610498046875,-0.010312499478459358,0.026399999856948853,-0.03231250122189522
1750506132676709600,4.675709716796875,-0.007837500423192978,0.03973750025033951,-0.036024998873472214
1750506132686314200,4.685314208984375,0.0019249999895691872,0.05926249921321869,-0.03478749841451645
1750506132695918800,4.6949189453125,0.015399999916553497,0.05926249921321869,-0.02502499893307686
1750506132705523500,4.7045234375,0.025162499397993088,0.0494999997317791,-0.03231250122189522
1750506132715128000,4.714128173828125,0.020212499424815178,0.023924998939037323,-0.04207500070333481
1750506132724732700,4.723732666015625,0.004399999976158142,-0.0005499999970197678,-0.04702499881386757
1750506132734337300,4.733337158203125,-0.011549999937415123,-0.009074999950826168,-0.04936249926686287
1750506132743942000,4.74294189453125,-0.022549999877810478,0.010449999943375587,-0.03712499886751175
1750506132753546500,4.75254638671875,-0.023787500336766243,0.04592499881982803,-0.0042624999769032
1750506132763151000,4.762151123046875,-0.013887500390410423,0.08992499858140945,0.03616249933838844
1750506132772755500,4.77175537109375,-0.004124999977648258,0.09102500230073929,0.06173750013113022
1750506132782360000,4.781360107421875,-0.004124999977648258,0.05073750019073486,0.05197500064969063
1750506132791964700,4.790964599609375,-0.011549999937415123,-0.0017874999903142452,0.021449999883770943
1750506132801569300,4.8005693359375,-0.020075000822544098,-0.04936249926686287,-0.006599999964237213
1750506132811174000,4.810173828125,-0.026124998927116394,-0.05912499874830246,-0.021312499418854713
1750506132820778500,4.819778564453125,-0.018837500363588333,-0.045787498354911804,-0.023787500336766243
1750506132830383000,4.829383056640625,-0.006599999964237213,-0.01759999990463257,-0.016362499445676804
1750506132839987700,4.83898779296875,0.0031624999828636646,0.014162499457597733,0.006737499963492155
1750506132849592300,4.84859228515625,0.0031624999828636646,0.0471624992787838,0.03368749842047691
1750506132859197000,4.858197021484375,-0.0028874999843537807,0.06668750196695328,0.0494999997317791
1750506132868801500,4.867801513671875,-0.005362499970942736,0.06792499870061874,0.04592499881982803
1750506132878406100,4.87740625,0.006874999962747097,0.0471624992787838,0.026399999856948853
1750506132888010800,4.8870107421875,0.017875000834465027,0.010449999943375587,-0.0017874999903142452
1750506132897615000,4.896614990234375,0.026399999856948853,-0.022549999877810478,-0.03712499886751175
1750506132907219700,4.9062197265625,0.026399999856948853,-0.04331250116229057,-0.06888750195503235
1750506132916824300,4.91582421875,0.021449999883770943,-0.050599999725818634,-0.07878749817609787
1750506132926429000,4.925428955078125,0.012924999929964542,-0.03959999978542328,-0.0775500014424324
1750506132936033500,4.935033447265625,0.010449999943375587,-0.010312499478459358,-0.06407500058412552
1750506132945638100,4.94463818359375,0.017875000834465027,0.021449999883770943,-0.03478749841451645
1750506132955242800,4.95424267578125,0.021449999883770943,0.05926249921321869,-0.006599999964237213
1750506132964847400,4.963847412109375,0.023924998939037323,0.08992499858140945,0.021449999883770943
1750506132974452000,4.973451904296875,0.027637500315904617,0.0752125009894371,0.04221250116825104
1750506132984056600,4.983056640625,0.027637500315904617,0.025162499397993088,0.03849999979138374
1750506132993661200,4.9926611328125,0.022687500342726707,-0.038362499326467514,0.014162499457597733
1750506133003265800,5.002265869140625,0.009212499484419823,-0.08112499862909317,-0.006599999964237213
1750506133012870100,5.0118701171875,-0.0005499999970197678,-0.09831249713897705,-0.020075000822544098
1750506133022474800,5.021474853515625,-0.005362499970942736,-0.07012499868869781,-0.022549999877810478
1750506133032079400,5.031079345703125,0.0006874999962747097,-0.026262499392032623,-0.014024999924004078
1750506133041684000,5.04068408203125,0.010449999943375587,0.011687500402331352,-0.0017874999903142452
1750506133051288600,5.05028857421875,0.015399999916553497,0.05816249921917915,0.012924999929964542
1750506133060893200,5.05989306640625,0.018975000828504562,0.06916250288486481,0.03368749842047691
1750506133070497800,5.069497802734375,0.021449999883770943,0.05321250110864639,0.031212499365210533
1750506133080102400,5.079102294921875,0.014162499457597733,0.028737500309944153,0.018975000828504562
1750506133089707300,5.088707275390625,0.006874999962747097,-0.020075000822544098,-0.0030249999836087227
1750506133099311600,5.0983115234375,0.004399999976158142,-0.04331250116229057,-0.03355000168085098
1750506133108916200,5.107916259765625,0.0031624999828636646,-0.040837500244379044,-0.05431250110268593
1750506133118520600,5.1175205078125,-0.0005499999970197678,-0.023787500336766243,-0.05431250110268593
1750506133128125400,5.12712548828125,-0.004124999977648258,-0.0005499999970197678,-0.040837500244379044
1750506133137730000,5.13672998046875,-0.0017874999903142452,0.017737500369548798,-0.026124998927116394
1750506133147334700,5.146334716796875,0.0019249999895691872,0.011687500402331352,-0.012787500396370888
1750506133156939300,5.155939208984375,0.010449999943375587,-0.006599999964237213,-0.010312499478459358
1750506133166544000,5.1655439453125,0.018975000828504562,-0.0042624999769032,-0.0030249999836087227
1750506133176148500,5.1751484375,0.027637500315904617,0.011687500402331352,0.010449999943375587
1750506133185753000,5.184753173828125,0.03244999796152115,0.048262499272823334,0.026399999856948853
1750506133195357400,5.194357421875,0.027637500315904617,0.05692499876022339,0.03244999796152115
1750506133204962000,5.203962158203125,0.018975000828504562,0.05073750019073486,0.014162499457597733
1750506133214566700,5.213566650390625,0.017875000834465027,0.012924999929964542,-0.0030249999836087227
1750506133224171300,5.223171142578125,0.010449999943375587,-0.023787500336766243,-0.022549999877810478
1750506133233775900,5.23277587890625,0.004399999976158142,-0.02736249938607216,-0.02502499893307686
1750506133243380500,5.24238037109375,0.0019249999895691872,-0.0042624999769032,-0.006599999964237213
1750506133252985000,5.251985107421875,0.0019249999895691872,0.03492499887943268,0.012924999929964542
1750506133262589700,5.261589599609375,0.0031624999828636646,0.03849999979138374,0.004399999976158142
1750506133272194300,5.2711943359375,0.004399999976158142,0.021449999883770943,-0.021312499418854713
1750506133281799000,5.280798828125,0.004399999976158142,0.009212499484419823,-0.048124998807907104
1750506133291403500,5.290403564453125,0.0056374999694526196,0.017737500369548798,-0.06655000150203705
1750506133301008100,5.300008056640625,0.006874999962747097,0.05073750019073486,-0.06283749639987946
1750506133310612700,5.30961279296875,0.0056374999694526196,0.06297499686479568,-0.0518375001847744
1750506133320217300,5.31921728515625,-0.0028874999843537807,0.0494999997317791,-0.057887498289346695
1750506133329822000,5.328822021484375,-0.013887500390410423,0.016499999910593033,-0.08112499862909317
1750506133339426600,5.338426513671875,-0.02488750033080578,-0.021312499418854713,-0.1116499975323677
1750506133349031200,5.34803125,-0.03959999978542328,-0.038362499326467514,-0.13859999179840088
1750506133358635800,5.3576357421875,-0.05555000156164169,-0.03231250122189522,-0.16541250050067902
1750506133368240000,5.367240234375,-0.07507500052452087,0.0006874999962747097,-0.18741250038146973
1750506133377844700,5.3768447265625,-0.08841250091791153,0.0471624992787838,-0.21188749372959137
1750506133387449300,5.386449462890625,-0.09831249713897705,0.09597499668598175,-0.24117499589920044
1750506133397054000,5.396053955078125,-0.1116499975323677,0.15344999730587006,-0.2839374840259552
1750506133406658600,5.405658447265625,-0.13007499277591705,0.23897500336170197,-0.3511750102043152
1750506133416263200,5.41526318359375,-0.14217500388622284,0.3488374948501587,-0.37193748354911804
1750506133425867800,5.42486767578125,-0.17159999907016754,0.44536250829696655,-0.28888750076293945
1750506133435472400,5.434472412109375,-0.19359999895095825,0.5601750016212463,-0.133650004863739
1750506133445077000,5.444076904296875,-0.19593749940395355,0.5809375047683716,0.06916250288486481
1750506133454681600,5.453681640625,-0.18369999527931213,0.5676000118255615,0.24502499401569366
1750506133464286000,5.463285888671875,-0.16664999723434448,0.5651249885559082,0.41359999775886536
1750506133473890600,5.472890625,-0.14217500388622284,0.6029375195503235,0.6506500244140625
1750506133483495200,5.4824951171875,-0.09707500040531158,0.754462480545044,1.0733250379562378
1750506133493099800,5.492099853515625,-0.053075000643730164,0.9987999796867371,1.8662874698638916
1750506133502704400,5.501704345703125,-0.018837500363588333,1.1650375127792358,2.992687463760376
1750506133512309000,5.51130908203125,-0.005362499970942736,1.1808500289916992,4.248612403869629
1750506133521913600,5.52091357421875,-0.011549999937415123,0.9890375137329102,5.218675136566162
1750506133531518200,5.530518310546875,-0.16060000658035278,0.762987494468689,5.585112571716309
1750506133541122800,5.540122802734375,-0.38046249747276306,0.284074991941452,5.52887487411499
1750506133550727400,5.5497275390625,-0.5135625004768372,-0.2924624979496002,5.288249969482422
1750506133560332000,5.55933203125,-0.46970000863075256,-0.5979874730110168,5.081725120544434
1750506133569936600,5.5689365234375,-0.38651248812675476,-0.8960874676704407,5.085437297821045
1750506133579541000,5.578541015625,-0.2876499891281128,-1.054900050163269,5.133150100708008
1750506133589145600,5.5881455078125,-0.2167000025510788,-1.13423752784729,5.148962497711182
1750506133598750200,5.597750244140625,-0.2363625019788742,-1.4727624654769897,5.100150108337402
1750506133608354800,5.607354736328125,-0.3022249937057495,-1.8354874849319458,4.881387710571289
1750506133617959400,5.61695947265625,-0.3951750099658966,-1.9992499351501465,4.497762680053711
1750506133627564000,5.62656396484375,-0.47574999928474426,-1.9430124759674072,4.023799896240234
1750506133637168600,5.636168701171875,-0.47946250438690186,-1.6656750440597534,3.5497000217437744
1750506133646773200,5.645773193359375,-0.4049375057220459,-1.2197624444961548,3.1270248889923096
1750506133656377600,5.655377685546875,-0.2937000095844269,-0.71527498960495,2.794687509536743
1750506133665982200,5.664982177734375,-0.22769999504089355,-0.40741249918937683,2.5515875816345215
1750506133675587000,5.674587158203125,-0.2143625020980835,-0.3866499960422516,2.286487579345703
1750506133685191700,5.684191650390625,-0.20336249470710754,-0.5319874882698059,1.9211499691009521
1750506133694796000,5.693796142578125,-0.19236250221729279,-0.72861248254776,1.478950023651123
1750506133704400600,5.703400634765625,-0.1691250056028366,-0.8386124968528748,1.0060875415802002
1750506133714005200,5.713005126953125,-0.12264999747276306,-0.7995625138282776,0.5601750016212463
1750506133723609900,5.72260986328125,-0.07259999960660934,-0.6480374932289124,0.15826250612735748
1750506133733214500,5.73221435546875,-0.03231250122189522,-0.4427500069141388,-0.22288750112056732
1750506133742819000,5.741819091796875,-0.007837500423192978,-0.25093749165534973,-0.6199874877929688
1750506133752423400,5.75142333984375,0.014162499457597733,-0.10078749805688858,-1.0524250268936157
1750506133762028300,5.7610283203125,0.05197500064969063,0.006737499963492155,-1.5068625211715698
1750506133771632600,5.770632568359375,0.11797499656677246,0.11550000309944153,-1.9174374341964722
1750506133781237200,5.7802373046875,0.19978749752044678,0.22055000066757202,-2.2338249683380127
1750506133790841900,5.789841796875,0.2890250086784363,0.3550249934196472,-2.5026373863220215
1750506133800446500,5.799446533203125,0.40755000710487366,0.5431249737739563,-2.7823123931884766
1750506133810051000,5.809051025390625,0.5418875217437744,0.7324625253677368,-3.128124952316284
1750506133819655700,5.81865576171875,0.6421250104904175,0.7825124859809875,-3.5239875316619873
1750506133829260300,5.82826025390625,0.7081249952316284,0.6249374747276306,-3.951474905014038
1750506133838865000,5.837864990234375,0.7349374890327454,0.40988749265670776,-4.384049892425537
1750506133848469500,5.847469482421875,0.6983624696731567,0.17902499437332153,-4.743199825286865
1750506133858073900,5.857073974609375,0.653124988079071,0.010449999943375587,-5.020537376403809
1750506133867678500,5.866678466796875,0.683650016784668,0.029975000768899918,-5.153637409210205
1750506133877283000,5.876282958984375,0.7434625029563904,0.16554999351501465,-5.082825183868408
1750506133886887700,5.8858876953125,0.8729875087738037,0.3830749988555908,-4.818962574005127
1750506133896492300,5.8954921875,1.0415624380111694,0.5834124684333801,-4.396287441253662
1750506133906097000,5.905096923828125,1.1112749576568604,0.6176499724388123,-3.9368999004364014
1750506133915701500,5.914701416015625,1.108799934387207,0.5748875141143799,-3.5898499488830566
1750506133925306000,5.92430615234375,1.0062249898910522,0.4833124876022339,-3.3492250442504883
1750506133934910700,5.93391064453125,0.8204625248908997,0.3353624939918518,-3.140362501144409
1750506133944515300,5.943515380859375,0.609125018119812,0.15826250612735748,-2.881312370300293
1750506133954119700,5.95311962890625,0.37207499146461487,-0.0798875018954277,-2.5477375984191895
1750506133963724300,5.962724365234375,0.21078750491142273,-0.2546499967575073,-2.210587501525879
1750506133973329000,5.972328857421875,0.18645000457763672,-0.26936250925064087,-1.8562500476837158
1750506133982933800,5.981933837890625,0.24626250565052032,-0.1471250057220459,-1.437287449836731
1750506133992538000,5.9915380859375,0.3097875118255615,0.0494999997317791,-0.981612503528595
1750506134002143000,6.00114306640625,0.30373749136924744,0.28049999475479126,-0.5795624852180481
1750506134011747300,6.010747314453125,0.2157374918460846,0.4503124952316284,-0.31088748574256897
1750506134021352000,6.02035205078125,0.10821250081062317,0.5138375163078308,-0.18988749384880066
1750506134030956500,6.02995654296875,0.029975000768899918,0.46736249327659607,-0.16541250050067902
1750506134040561200,6.03956103515625,-0.005362499970942736,0.3207874894142151,-0.13983750343322754
1750506134050165800,6.049165771484375,-0.021312499418854713,0.1545500010251999,-0.06407500058412552
1750506134059770400,6.058770263671875,-0.040837500244379044,0.031212499365210533,0.028737500309944153
1750506134069375000,6.068375,-0.07631249725818634,-0.0775500014424324,0.09844999760389328
1750506134078979300,6.077979248046875,-0.1251250058412552,-0.16060000658035278,0.12168750166893005
1750506134088584200,6.087584228515625,-0.15193749964237213,-0.16664999723434448,0.10821250081062317
1750506134098188500,6.0971884765625,-0.1311749964952469,-0.08855000138282776,0.09350000321865082
1750506134107793200,6.106793212890625,-0.06764999777078629,0.03973750025033951,0.10449999570846558
1750506134117397800,6.116397705078125,0.0006874999962747097,0.16197499632835388,0.15097500383853912
1750506134127002400,6.12600244140625,0.03368749842047691,0.22907499969005585,0.2022625058889389
1750506134136607000,6.13560693359375,0.018975000828504562,0.21697500348091125,0.23526249825954437
1750506134146211600,6.145211669921875,-0.022549999877810478,0.12402500212192535,0.21697500348091125
1750506134155816200,6.154816162109375,-0.07136250287294388,0.020212499424815178,0.14121249318122864
1750506134165420800,6.1644208984375,-0.09583749622106552,-0.04455000162124634,0.05816249921917915
1750506134175025200,6.174025146484375,-0.08841250091791153,-0.050599999725818634,0.010449999943375587
1750506134184630000,6.183630126953125,-0.06888750195503235,0.007974999956786633,-0.0005499999970197678
1750506134194234400,6.193234375,-0.03231250122189522,0.05692499876022339,-0.007837500423192978
1750506134203839000,6.2028388671875,-0.007837500423192978,0.06297499686479568,-0.028599999845027924
1750506134213443300,6.212443359375,-0.0028874999843537807,0.0494999997317791,-0.0518375001847744
1750506134223048200,6.222048095703125,-0.013887500390410423,0.031212499365210533,-0.06283749639987946
1750506134232652800,6.23165283203125,-0.022549999877810478,0.03492499887943268,-0.050599999725818634
1750506134242257400,6.24125732421875,-0.022549999877810478,0.04221250116825104,-0.020075000822544098
1750506134251862000,6.250862060546875,-0.023787500336766243,0.055687498301267624,0.015399999916553497
1750506134261466400,6.26046630859375,-0.01759999990463257,0.031212499365210533,0.03616249933838844
1750506134271071000,6.270071044921875,-0.011549999937415123,-0.020075000822544098,0.022687500342726707
1750506134280675600,6.279675537109375,-0.007837500423192978,-0.07136250287294388,-0.016362499445676804
1750506134290280200,6.2892802734375,-0.011549999937415123,-0.0835999995470047,-0.04936249926686287
1750506134299884500,6.298884521484375,-0.007837500423192978,-0.04936249926686287,-0.05555000156164169
1750506134309489400,6.308489501953125,0.0056374999694526196,0.026399999856948853,-0.026124998927116394
1750506134319094000,6.318093994140625,0.018975000828504562,0.10092499852180481,0.028737500309944153
1750506134328698400,6.327698486328125,0.023924998939037323,0.14121249318122864,0.08621250092983246
1750506134338303200,6.33730322265625,0.009212499484419823,0.11302500218153,0.12292499840259552
1750506134347907800,6.346907958984375,-0.016362499445676804,0.03849999979138374,0.12168750166893005
1750506134357512400,6.356512451171875,-0.040837500244379044,-0.04455000162124634,0.08992499858140945
1750506134367116800,6.36611669921875,-0.04688749834895134,-0.10188750177621841,0.04839999973773956
1750506134376721400,6.375721435546875,-0.03959999978542328,-0.11783749610185623,0.015399999916553497
1750506134386326000,6.385325927734375,-0.022549999877810478,-0.09459999948740005,-0.0042624999769032
1750506134395931000,6.394930908203125,-0.004124999977648258,-0.04207500070333481,0.009212499484419823
1750506134405535500,6.404535400390625,0.006874999962747097,-0.006599999964237213,0.04097500070929527
1750506134415139800,6.414139892578125,-0.0028874999843537807,0.005499999970197678,0.05444999784231186
1750506134424744400,6.423744384765625,-0.02736249938607216,-0.006599999964237213,0.03739999979734421
1750506134434349000,6.43334912109375,-0.05555000156164169,-0.03478749841451645,0.0056374999694526196
1750506134443953700,6.44295361328125,-0.07259999960660934,-0.045787498354911804,-0.028599999845027924
1750506134453558300,6.452558349609375,-0.06641250103712082,-0.045787498354911804,-0.0518375001847744
1750506134463162600,6.46216259765625,-0.04688749834895134,-0.04455000162124634,-0.05912499874830246
1750506134472767500,6.471767578125,-0.02736249938607216,-0.015262499451637268,-0.06888750195503235
1750506134482371800,6.481371826171875,-0.006599999964237213,0.017737500369548798,-0.08112499862909317
1750506134491976400,6.4909765625,0.006874999962747097,0.03849999979138374,-0.10188750177621841
1750506134501581000,6.5005810546875,0.017875000834465027,0.05197500064969063,-0.12031249701976776
1750506134511185700,6.510185546875,0.028875000774860382,0.03492499887943268,-0.1153625026345253
1750506134520790300,6.519790283203125,0.022687500342726707,0.005499999970197678,-0.09831249713897705
1750506134530395000,6.529394775390625,0.014162499457597733,0.006737499963492155,-0.0798875018954277
1750506134539999500,6.53899951171875,0.011687500402331352,0.03973750025033951,-0.057887498289346695
1750506134549604000,6.54860400390625,0.014162499457597733,0.06668750196695328,-0.028599999845027924
1750506134559208700,6.558208740234375,0.017875000834465027,0.07644999772310257,-0.0042624999769032
1750506134568813000,6.56781298828125,0.020212499424815178,0.03616249933838844,0.0019249999895691872
1750506134578417700,6.577417724609375,0.021449999883770943,-0.04331250116229057,-0.015124999918043613
1750506134588022300,6.587022216796875,0.017875000834465027,-0.10188750177621841,-0.038362499326467514
1750506134597627000,6.596626953125,0.011687500402331352,-0.1116499975323677,-0.040837500244379044
1750506134607231500,6.6062314453125,0.008112499490380287,-0.07012499868869781,-0.010312499478459358
1750506134616835800,6.6158359375,0.014162499457597733,-0.009074999950826168,0.03492499887943268
1750506134626440700,6.625440673828125,0.015399999916553497,0.029975000768899918,0.06668750196695328
1750506134636045300,6.63504541015625,0.010449999943375587,0.06792499870061874,0.060499999672174454
1750506134645650000,6.64464990234375,0.009212499484419823,0.0812624990940094,0.03244999796152115
1750506134655254300,6.654254150390625,0.011687500402331352,0.06792499870061874,0.015399999916553497
1750506134664859000,6.66385888671875,0.014162499457597733,0.04097500070929527,0.020212499424815178
1750506134674463500,6.67346337890625,0.011687500402331352,-0.012787500396370888,0.014162499457597733
1750506134684068000,6.683068115234375,0.004399999976158142,-0.060362499207258224,-0.015124999918043613
1750506134693672700,6.692672607421875,-0.0017874999903142452,-0.0835999995470047,-0.0518375001847744
1750506134703277300,6.70227734375,-0.004124999977648258,-0.0873124971985817,-0.08607500046491623
1750506134712881700,6.711881591796875,0.006874999962747097,-0.0798875018954277,-0.09088750183582306
1750506134722486300,6.721486328125,0.018975000828504562,-0.03712499886751175,-0.06407500058412552
1750506134732091000,6.7310908203125,0.026399999856948853,0.026399999856948853,-0.015124999918043613
1750506134741695500,6.740695556640625,0.022687500342726707,0.08992499858140945,0.029975000768899918
1750506134751300000,6.750300048828125,0.012924999929964542,0.12278749793767929,0.06173750013113022
1750506134760904700,6.75990478515625,0.0031624999828636646,0.08373750001192093,0.06173750013113022
1750506134770509000,6.769509033203125,-0.005362499970942736,0.0006874999962747097,0.023924998939037323
1750506134780114000,6.779114013671875,-0.009074999950826168,-0.0798875018954277,-0.03231250122189522
1750506134789718500,6.788718505859375,-0.006599999964237213,-0.1434125006198883,-0.07383749634027481
1750506134799323000,6.798322998046875,-0.005362499970942736,-0.14231249690055847,-0.09583749622106552
1750506134808927500,6.807927490234375,-0.004124999977648258,-0.08978749811649323,-0.07878749817609787
1750506134818532000,6.817531982421875,-0.006599999964237213,-0.011549999937415123,-0.02983750030398369
1750506134828136400,6.827136474609375,-0.010312499478459358,0.08621250092983246,0.028737500309944153
1750506134837741000,6.836740966796875,-0.011549999937415123,0.1447875052690506,0.07150000333786011
1750506134847345700,6.846345703125,-0.011549999937415123,0.13750000298023224,0.0752125009894371
1750506134856950500,6.855950439453125,-0.007837500423192978,0.07273750007152557,0.031212499365210533
1750506134866555000,6.865554931640625,0.0006874999962747097,-0.015262499451637268,-0.031075000762939453
1750506134876159700,6.87515966796875,0.009212499484419823,-0.09831249713897705,-0.08483749628067017
1750506134885764000,6.88476416015625,0.011687500402331352,-0.141075000166893,-0.1153625026345253
1750506134895368700,6.89436865234375,0.009212499484419823,-0.13488750159740448,-0.1093124970793724
1750506134904973300,6.903973388671875,0.011687500402331352,-0.10683749616146088,-0.0775500014424324
1750506134914578000,6.913577880859375,0.012924999929964542,-0.038362499326467514,-0.036024998873472214
1750506134924182300,6.923182373046875,0.011687500402331352,0.04097500070929527,0.011687500402331352
1750506134933787100,6.932787109375,0.008112499490380287,0.11426249891519547,0.04839999973773956
1750506134943391500,6.9423916015625,0.0019249999895691872,0.14602500200271606,0.06544999778270721
1750506134952996000,6.95199609375,0.0056374999694526196,0.10821250081062317,0.05197500064969063
1750506134962600700,6.9616005859375,0.0056374999694526196,0.025162499397993088,0.007974999956786633
1750506134972205300,6.971205322265625,-0.0017874999903142452,-0.050599999725818634,-0.03959999978542328
1750506134981810000,6.980809814453125,-0.009074999950826168,-0.08855000138282776,-0.06778749823570251
1750506134991414500,6.99041455078125,-0.012787500396370888,-0.08855000138282776,-0.0775500014424324
1750506135001019100,7.00001904296875,-0.012787500396370888,-0.05912499874830246,-0.07383749634027481
1750506135010623700,7.009623779296875,-0.010312499478459358,-0.0042624999769032,-0.05555000156164169
1750506135020228000,7.01922802734375,-0.0005499999970197678,0.0494999997317791,-0.02983750030398369
1750506135029832700,7.028832763671875,0.009212499484419823,0.08868750184774399,-0.0042624999769032
1750506135039437300,7.038437255859375,0.012924999929964542,0.11426249891519547,0.014162499457597733
1750506135049042000,7.0480419921875,0.014162499457597733,0.10326249897480011,0.031212499365210533
1750506135058646500,7.057646484375,0.012924999929964542,0.05444999784231186,0.031212499365210533
1750506135068251100,7.067251220703125,0.0056374999694526196,-0.02502499893307686,0.006737499963492155
1750506135077855700,7.076855712890625,-0.0017874999903142452,-0.10078749805688858,-0.03478749841451645
1750506135087460000,7.086460205078125,-0.009074999950826168,-0.12759999930858612,-0.06655000150203705
1750506135097064700,7.096064697265625,-0.011549999937415123,-0.10559999942779541,-0.07383749634027481
1750506135106669300,7.10566943359375,-0.009074999950826168,-0.04331250116229057,-0.04702499881386757
1750506135116274000,7.11527392578125,-0.009074999950826168,0.03973750025033951,0.0006874999962747097
1750506135125878500,7.12487841796875,-0.009074999950826168,0.1106875017285347,0.04468749836087227
1750506135135483100,7.134483154296875,-0.015124999918043613,0.13997499644756317,0.06297499686479568
1750506135145087500,7.14408740234375,-0.016362499445676804,0.09844999760389328,0.03616249933838844
1750506135154692400,7.1536923828125,-0.013887500390410423,0.018975000828504562,-0.038362499326467514
1750506135164296700,7.163296630859375,-0.007837500423192978,-0.05555000156164169,-0.12264999747276306
1750506135173901300,7.1729013671875,-0.0005499999970197678,-0.09459999948740005,-0.18383750319480896
1750506135183506000,7.182505859375,0.0056374999694526196,-0.08607500046491623,-0.19359999895095825
1750506135193110500,7.192110595703125,0.009212499484419823,-0.05431250110268593,-0.16307500004768372
1750506135202715100,7.201715087890625,0.0006874999962747097,-0.009074999950826168,-0.13241249322891235
1750506135212319700,7.21131982421875,-0.007837500423192978,0.03973750025033951,-0.1251250058412552
1750506135221924400,7.22092431640625,-0.0005499999970197678,0.07397499680519104,-0.13488750159740448
1750506135231528700,7.23052880859375,0.012924999929964542,0.09968750178813934,-0.16060000658035278
1750506135241133300,7.24013330078125,0.025162499397993088,0.10821250081062317,-0.18507499992847443
1750506135250738000,7.249738037109375,0.03244999796152115,0.10944999754428864,-0.19965000450611115
1750506135260342500,7.259342529296875,0.021449999883770943,0.1106875017285347,-0.1788875013589859
1750506135269947100,7.268947021484375,-0.005362499970942736,0.1106875017285347,-0.133650004863739
1750506135279551700,7.2785517578125,-0.04207500070333481,0.1289750039577484,-0.10312499850988388
1750506135289156400,7.28815625,-0.08483749628067017,0.16321249306201935,-0.09336250275373459
1750506135298760700,7.2977607421875,-0.12636250257492065,0.22673749923706055,-0.089649997651577
1750506135308365300,7.307365234375,-0.12017499655485153,0.3610749840736389,-0.05555000156164169
1750506135317970000,7.316969970703125,0.006874999962747097,0.5553625226020813,0.10944999754428864
1750506135327574500,7.326574462890625,0.19002500176429749,0.7617499828338623,0.6066499948501587
1750506135337179100,7.33617919921875,0.31597501039505005,0.9695125222206116,1.607237458229065
1750506135346783500,7.345783447265625,0.27678748965263367,0.9389874935150146,2.996262550354004
1750506135356388400,7.355388427734375,0.06916250288486481,0.7886999845504761,4.226612567901611
1750506135365993000,7.364992919921875,-0.1886499971151352,0.489362508058548,4.93391227722168
1750506135375597300,7.374597412109375,-0.3559874892234802,-0.1153625026345253,5.224724769592285
1750506135385202000,7.384201904296875,-0.4366999864578247,-1.1624250411987305,5.44953727722168
1750506135394806500,7.393806640625,-0.47327500581741333,-2.092062473297119,5.615637302398682
1750506135404411100,7.4034111328125,-0.4464625120162964,-2.5502123832702637,5.7171125411987305
1750506135414015700,7.413015625,-0.4305124878883362,-2.882550001144409,5.737874984741211
1750506135423620000,7.4226201171875,-0.4512749910354614,-2.960787534713745,5.613162517547607
1750506135433225000,7.432224853515625,-0.5257999897003174,-2.798262596130371,5.453112602233887
1750506135442829300,7.441829345703125,-0.6650875210762024,-2.5013999938964844,5.2564873695373535
1750506135452434000,7.451433837890625,-0.7921375036239624,-1.961437463760376,4.985199928283691
1750506135462038500,7.46103857421875,-0.8728500008583069,-1.3248125314712524,4.70057487487793
1750506135471643000,7.470642822265625,-0.8984249830245972,-0.7396125197410583,4.4317626953125
1750506135481247700,7.480247802734375,-0.9046124815940857,-0.2778874933719635,4.238850116729736
1750506135490852400,7.489852294921875,-0.9253749847412109,-0.10078749805688858,4.017612457275391
1750506135500456700,7.499456787109375,-0.942425012588501,-0.04331250116229057,3.6572248935699463
1750506135510061300,7.509061279296875,-0.9497125148773193,-0.04702499881386757,3.2065000534057617
1750506135519666000,7.518666015625,-0.942425012588501,-0.08855000138282776,2.717824935913086
1750506135529270500,7.5282705078125,-0.9204249978065491,-0.07631249725818634,2.202199935913086
1750506135538875100,7.537875244140625,-0.8776624798774719,0.015399999916553497,1.6927624940872192
1750506135548479500,7.5474794921875,-0.7788000106811523,0.09350000321865082,1.216325044631958
1750506135558084400,7.55708447265625,-0.6247999668121338,0.09226249903440475,0.7716500163078308
1750506135567688700,7.566688720703125,-0.4684624969959259,0.04468749836087227,0.342787504196167
1750506135577293300,7.576293212890625,-0.335224986076355,-0.04331250116229057,-0.0835999995470047
1750506135586898000,7.58589794921875,-0.2008875012397766,-0.08112499862909317,-0.5197499990463257
1750506135596502500,7.59550244140625,-0.060362499207258224,-0.03355000168085098,-0.9571374654769897
1750506135606107100,7.605107177734375,0.08016250282526016,0.03492499887943268,-1.383525013923645
1750506135615711700,7.614711669921875,0.19497500360012054,0.13750000298023224,-1.8184374570846558
1750506135625316000,7.624316162109375,0.28049999475479126,0.22673749923706055,-2.2728750705718994
1750506135634920700,7.633920654296875,0.3465000092983246,0.2475000023841858,-2.7285499572753906
1750506135644525300,7.643525390625,0.42707499861717224,0.2303124964237213,-3.1586499214172363
1750506135654130000,7.6531298828125,0.552887499332428,0.2817375063896179,-3.5470874309539795
1750506135663734500,7.662734619140625,0.635937511920929,0.30855000019073486,-3.8550875186920166
1750506135673339100,7.672339111328125,0.6261749863624573,0.2377374917268753,-4.101762294769287
1750506135682943500,7.681943603515625,0.5663625001907349,0.11797499656677246,-4.309525012969971
1750506135692548000,7.691548095703125,0.5333625078201294,0.016499999910593033,-4.491574764251709
1750506135702152700,7.701152587890625,0.5944125056266785,0.09473749995231628,-4.67843770980835
1750506135711757300,7.71075732421875,0.783887505531311,0.3097875118255615,-4.839725017547607
1750506135721362000,7.72036181640625,0.9352750182151794,0.4380750060081482,-4.922774791717529
1750506135730966500,7.729966552734375,0.9622250199317932,0.3940750062465668,-4.9900126457214355
1750506135740571100,7.739571044921875,0.9207000136375427,0.37812501192092896,-5.100012302398682
1750506135750175500,7.749175537109375,0.8302249908447266,0.4246000051498413,-5.216062545776367
1750506135759780000,7.758780029296875,0.9194625020027161,0.5773624777793884,-5.20134973526001
1750506135769384700,7.768384765625,1.0892750024795532,0.6115999817848206,-4.772487640380859
1750506135778989300,7.7779892578125,1.1308000087738037,0.4856500029563904,-4.029712677001953
1750506135788594000,7.787593994140625,0.9842249751091003,0.3255999982357025,-3.228224992752075
1750506135798198500,7.797198486328125,0.656837522983551,0.1765500009059906,-2.605212450027466
1750506135807803000,7.806802978515625,0.334262490272522,0.19731250405311584,-2.336400032043457
1750506135817407500,7.816407470703125,0.19868749380111694,0.3683624863624573,-2.305875062942505
1750506135827012000,7.82601220703125,0.2732124924659729,0.5785999894142151,-2.183774948120117
1750506135836616700,7.83561669921875,0.42336249351501465,0.6861249804496765,-1.7451499700546265
1750506135846221300,7.84522119140625,0.478362500667572,0.6041749715805054,-1.0902374982833862
1750506135855826000,7.854825927734375,0.3708375096321106,0.42707499861717224,-0.4452250003814697
1750506135865430500,7.864430419921875,0.1264999955892563,0.3158375024795532,-0.014024999924004078
1750506135875035100,7.87403515625,-0.11659999936819077,0.21821250021457672,0.1802625060081482
1750506135884639500,7.883639404296875,-0.25341248512268066,0.03973750025033951,0.2523125112056732
1750506135894244000,7.893244140625,-0.2778874933719635,-0.11055000126361847,0.25107499957084656
1750506135903848700,7.9028486328125,-0.21793749928474426,-0.18383750319480896,0.20102499425411224
1750506135913453300,7.912453369140625,-0.1373624950647354,-0.1691250056028366,0.1424500048160553
1750506135923057700,7.9220576171875,-0.07012499868869781,-0.06407500058412552,0.08868750184774399
1750506135932662300,7.931662353515625,-0.02488750033080578,0.05926249921321869,0.05321250110864639
1750506135942267000,7.941266845703125,-0.018837500363588333,0.09968750178813934,0.04221250116825104
1750506135951871500,7.95087158203125,-0.03231250122189522,0.0752125009894371,0.0471624992787838
1750506135961476000,7.96047607421875,-0.05555000156164169,0.015399999916553497,0.07397499680519104
1750506135971080700,7.970080810546875,-0.09459999948740005,-0.06902500241994858,0.10326249897480011
1750506135980685300,7.979685302734375,-0.1311749964952469,-0.13488750159740448,0.10573749989271164
1750506135990290000,7.9892900390625,-0.14959999918937683,-0.12155000120401382,0.09116250276565552
1750506135999894300,7.998894287109375,-0.1288374960422516,-0.06159999966621399,0.06792499870061874
1750506136009499000,8.008498779296875,-0.07507500052452087,0.022687500342726707,0.04221250116825104
1750506136019103500,8.018103515625,-0.013887500390410423,0.09473749995231628,0.05321250110864639
1750506136028708000,8.0277080078125,0.023924998939037323,0.1667875051498413,0.09350000321865082
1750506136038312700,8.037312744140625,0.028875000774860382,0.22426250576972961,0.13997499644756317
1750506136047917000,8.0469169921875,-0.0028874999843537807,0.21449999511241913,0.16197499632835388
1750506136057521700,8.056521728515625,-0.0518375001847744,0.16321249306201935,0.13378749787807465
1750506136067126300,8.066126220703126,-0.0835999995470047,0.06792499870061874,0.06668750196695328
1750506136076731000,8.07573095703125,-0.089649997651577,-0.02736249938607216,-0.016362499445676804
1750506136086335500,8.08533544921875,-0.060362499207258224,-0.06159999966621399,-0.07507500052452087
1750506136095940000,8.094940185546875,-0.004124999977648258,-0.07383749634027481,-0.0873124971985817
1750506136105544700,8.104544677734374,0.04592499881982803,-0.03959999978542328,-0.08483749628067017
1750506136115149000,8.114149169921875,0.06544999778270721,0.015399999916553497,-0.06655000150203705
1750506136124753700,8.123753662109374,0.05321250110864639,0.060499999672174454,-0.03355000168085098
1750506136134358300,8.133358154296875,0.03368749842047691,0.0849749967455864,-0.010312499478459358
1750506136143963000,8.142962890625,0.016637500375509262,0.05321250110864639,-0.014024999924004078
1750506136153567200,8.152567138671875,0.004399999976158142,-0.010312499478459358,-0.048124998807907104
1750506136163171800,8.162171875,0.006874999962747097,-0.060362499207258224,-0.09212499856948853
1750506136172776400,8.1717763671875,0.022687500342726707,-0.0835999995470047,-0.1153625026345253
1750506136182381000,8.181381103515625,0.043449997901916504,-0.07507500052452087,-0.10807500034570694
1750506136191985700,8.190985595703125,0.05692499876022339,-0.04936249926686287,-0.0798875018954277
1750506136201590000,8.200590087890625,0.05073750019073486,-0.03478749841451645,-0.0518375001847744
1750506136211194600,8.210194580078126,0.04468749836087227,-0.03231250122189522,-0.04331250116229057
1750506136220799200,8.21979931640625,0.03492499887943268,-0.038362499326467514,-0.050599999725818634
1750506136230403800,8.22940380859375,0.017875000834465027,-0.04207500070333481,-0.053075000643730164
1750506136240008400,8.239008544921875,0.008112499490380287,-0.045787498354911804,-0.045787498354911804
1750506136249613000,8.248613037109376,0.0019249999895691872,-0.048124998807907104,-0.03478749841451645
1750506136259217700,8.2582177734375,0.0019249999895691872,-0.04455000162124634,-0.03231250122189522
1750506136268822000,8.267822021484376,0.011687500402331352,-0.02736249938607216,-0.036024998873472214
1750506136278426600,8.277426513671875,0.021449999883770943,0.007974999956786633,-0.02983750030398369
1750506136288031200,8.28703125,0.03368749842047691,0.04097500070929527,-0.014024999924004078
1750506136297635600,8.296635498046875,0.03492499887943268,0.05073750019073486,-0.011549999937415123
1750506136307240200,8.306240234375,0.023924998939037323,0.03492499887943268,-0.023787500336766243
1750506136316844800,8.3158447265625,0.006874999962747097,0.009212499484419823,-0.04455000162124634
1750506136326449700,8.32544970703125,-0.015124999918043613,-0.016362499445676804,-0.0518375001847744
1750506136336054000,8.335053955078125,-0.03464999794960022,-0.011549999937415123,-0.028599999845027924
1750506136345658400,8.344658447265624,-0.04331250116229057,0.017737500369548798,0.025162499397993088
1750506136355263000,8.354262939453125,-0.04455000162124634,0.06544999778270721,0.09116250276565552
1750506136364867300,8.363867431640625,-0.03355000168085098,0.0812624990940094,0.14726249873638153
1750506136374472200,8.37347216796875,-0.026124998927116394,0.05444999784231186,0.1667875051498413
1750506136384076800,8.383076904296875,-0.03355000168085098,-0.015262499451637268,0.148499995470047
1750506136393681400,8.392681396484376,-0.04688749834895134,-0.0835999995470047,0.11426249891519547
1750506136403285800,8.40228564453125,-0.0518375001847744,-0.1313125044107437,0.0812624990940094
1750506136412890400,8.411890380859376,-0.053075000643730164,-0.133650004863739,0.05926249921321869
1750506136422495000,8.421494873046875,-0.04331250116229057,-0.09583749622106552,0.0494999997317791
1750506136432099600,8.431099609375,-0.02983750030398369,-0.028599999845027924,0.04839999973773956
1750506136441704000,8.440703857421875,-0.015124999918043613,0.027499999850988388,0.04839999973773956
1750506136451308500,8.45030859375,-0.0028874999843537807,0.06421250104904175,0.029975000768899918
1750506136460913200,8.4599130859375,0.006874999962747097,0.04468749836087227,-0.009074999950826168
1750506136470517800,8.469517822265624,0.014162499457597733,-0.0030249999836087227,-0.05912499874830246
1750506136480122000,8.4791220703125,0.027637500315904617,-0.07136250287294388,-0.10559999942779541
1750506136489726700,8.488726806640624,0.031212499365210533,-0.09831249713897705,-0.1288374960422516
1750506136499331300,8.498331298828125,0.03492499887943268,-0.07631249725818634,-0.1190750002861023
1750506136508936000,8.50793603515625,0.043449997901916504,-0.02502499893307686,-0.0775500014424324
1750506136518540500,8.51754052734375,0.04468749836087227,0.028737500309944153,-0.022549999877810478
1750506136528145000,8.527144775390624,0.03987500071525574,0.05321250110864639,0.010449999943375587
1750506136537749500,8.53674951171875,0.023924998939037323,0.025162499397993088,0.007974999956786633
1750506136547354400,8.546354248046875,0.008112499490380287,-0.03478749841451645,-0.015124999918043613
1750506136556958700,8.555958740234376,-0.005362499970942736,-0.0775500014424324,-0.031075000762939453
1750506136566563300,8.565563232421875,-0.004124999977648258,-0.0798875018954277,-0.026124998927116394
1750506136576168000,8.57516796875,0.006874999962747097,-0.040837500244379044,0.0056374999694526196
1750506136585772500,8.5847724609375,0.020212499424815178,0.007974999956786633,0.0494999997317791
1750506136595377000,8.594376953125,0.025162499397993088,0.03244999796152115,0.07150000333786011
1750506136604981500,8.6039814453125,0.010449999943375587,0.026399999856948853,0.05444999784231186
1750506136614586000,8.613586181640626,-0.009074999950826168,0.006737499963492155,0.018975000828504562
1750506136624190700,8.623190673828125,-0.020075000822544098,-0.023787500336766243,-0.015124999918043613
1750506136633795300,8.63279541015625,-0.020075000822544098,-0.028599999845027924,-0.03478749841451645
1750506136643399700,8.642399658203125,-0.0017874999903142452,-0.0030249999836087227,-0.038362499326467514
1750506136653004300,8.65200439453125,0.009212499484419823,0.03492499887943268,-0.026124998927116394
1750506136662609000,8.66160888671875,0.012924999929964542,0.07397499680519104,-0.011549999937415123
1750506136672213500,8.671213623046874,0.009212499484419823,0.08249999582767487,-0.0017874999903142452
1750506136681818000,8.680818115234375,-0.004124999977648258,0.06792499870061874,-0.0005499999970197678
1750506136691422500,8.69042236328125,-0.020075000822544098,0.031212499365210533,-0.007837500423192978
1750506136701027000,8.700027099609375,-0.02488750033080578,-0.0042624999769032,-0.014024999924004078
1750506136710631700,8.709631591796875,-0.023787500336766243,-0.02736249938607216,-0.006599999964237213
1750506136720236300,8.719236328125,-0.009074999950826168,-0.03712499886751175,0.004399999976158142
1750506136729841000,8.7288408203125,-0.0005499999970197678,-0.038362499326467514,0.017737500369548798
1750506136739445500,8.738445556640626,-0.004124999977648258,-0.02736249938607216,0.028737500309944153
1750506136749049900,8.7480498046875,-0.009074999950826168,-0.015262499451637268,0.027499999850988388
1750506136758654500,8.757654541015626,-0.013887500390410423,-0.007837500423192978,0.016637500375509262
1750506136768259000,8.767259033203125,-0.013887500390410423,-0.016362499445676804,0.0019249999895691872
1750506136777863400,8.776863525390626,-0.015124999918043613,-0.010312499478459358,-0.014024999924004078
1750506136787468300,8.78646826171875,-0.010312499478459358,0.010449999943375587,-0.020075000822544098
1750506136797072600,8.79607275390625,0.0006874999962747097,0.03849999979138374,-0.015124999918043613
1750506136806677200,8.80567724609375,0.017875000834465027,0.06421250104904175,-0.0042624999769032
1750506136816281900,8.81528173828125,0.03368749842047691,0.055687498301267624,0.0006874999962747097
1750506136825886500,8.824886474609375,0.03492499887943268,0.011687500402331352,-0.01759999990463257
1750506136835490800,8.83449072265625,0.017875000834465027,-0.0518375001847744,-0.050599999725818634
1750506136845095400,8.844095458984375,-0.0005499999970197678,-0.10436250269412994,-0.07878749817609787
1750506136854700000,8.853699951171874,-0.012787500396370888,-0.1093124970793724,-0.08236250281333923
1750506136864304600,8.8633046875,-0.012787500396370888,-0.06778749823570251,-0.0518375001847744
1750506136873909200,8.8729091796875,-0.0017874999903142452,0.005499999970197678,-0.007837500423192978
1750506136883513600,8.882513671875,0.009212499484419823,0.06544999778270721,0.029975000768899918
1750506136893118200,8.8921181640625,0.015399999916553497,0.09226249903440475,0.04468749836087227
1750506136902722800,8.901722900390626,0.012924999929964542,0.06792499870061874,0.03492499887943268
1750506136912327400,8.911327392578125,0.008112499490380287,0.023924998939037323,0.004399999976158142
1750506136921932000,8.92093212890625,0.0031624999828636646,-0.007837500423192978,-0.02736249938607216
1750506136931536600,8.93053662109375,0.0006874999962747097,-0.040837500244379044,-0.048124998807907104
1750506136941141200,8.940141357421876,0.0031624999828636646,-0.04207500070333481,-0.06159999966621399
1750506136950745600,8.94974560546875,0.006874999962747097,-0.02502499893307686,-0.05912499874830246
1750506136960350200,8.95935009765625,0.0056374999694526196,-0.006599999964237213,-0.0518375001847744
1750506136969954800,8.968954833984375,0.0031624999828636646,0.015399999916553497,-0.045787498354911804
1750506136979559400,8.978559326171874,0.0019249999895691872,0.016499999910593033,-0.040837500244379044
1750506136989164000,8.9881640625,0.0006874999962747097,-0.0042624999769032,-0.04331250116229057
1750506136998768400,8.997768310546874,-0.004124999977648258,-0.02502499893307686,-0.04331250116229057
1750506137008373000,9.007373046875,-0.009074999950826168,-0.02736249938607216,-0.03712499886751175
1750506137017977600,9.0169775390625,-0.006599999964237213,-0.01759999990463257,-0.02736249938607216
1750506137027582200,9.026582275390625,0.0019249999895691872,0.0019249999895691872,-0.009074999950826168
1750506137037186600,9.0361865234375,0.004399999976158142,0.028737500309944153,0.017737500369548798
1750506137046791200,9.045791259765625,0.0031624999828636646,0.05692499876022339,0.03739999979734421
1750506137056395800,9.055395751953125,0.0006874999962747097,0.06668750196695328,0.043449997901916504
1750506137066000400,9.06500048828125,0.0006874999962747097,0.03973750025033951,0.028737500309944153
1750506137075605000,9.07460498046875,-0.0005499999970197678,-0.0042624999769032,0.0006874999962747097
1750506137085209300,9.084209228515626,0.0019249999895691872,-0.036024998873472214,-0.023787500336766243
1750506137094814000,9.09381396484375,-0.0005499999970197678,-0.04207500070333481,-0.028599999845027924
1750506137104418600,9.10341845703125,-0.006599999964237213,-0.012787500396370888,-0.016362499445676804
1750506137114023200,9.113023193359375,-0.013887500390410423,0.03616249933838844,0.0031624999828636646
1750506137123627500,9.12262744140625,-0.018837500363588333,0.06421250104904175,0.014162499457597733
1750506137133232000,9.132232177734375,-0.021312499418854713,0.08621250092983246,0.015399999916553497
1750506137142836500,9.14183642578125,-0.028599999845027924,0.08992499858140945,0.0019249999895691872
1750506137152441300,9.15144140625,-0.04207500070333481,0.08992499858140945,-0.031075000762939453
1750506137162045700,9.161045654296874,-0.0518375001847744,0.10092499852180481,-0.06778749823570251
1750506137171650300,9.170650390625,-0.04331250116229057,0.15702499449253082,-0.09336250275373459
1750506137181255000,9.1802548828125,0.027637500315904617,0.2853125035762787,-0.053075000643730164
1750506137190859500,9.189859619140625,0.12773749232292175,0.489362508058548,0.15578749775886536
1750506137200464000,9.1994638671875,0.20473749935626984,0.7752249836921692,0.5676000118255615
1750506137210068500,9.209068359375,0.23649999499320984,1.0623250007629395,1.099037528038025
1750506137219672800,9.2186728515625,0.196212500333786,1.3176624774932861,1.698812484741211
1750506137229277700,9.228277587890625,0.1264999955892563,1.453237533569336,2.3122000694274902
1750506137238882300,9.23788232421875,0.14121249318122864,1.4838999509811401,2.9486875534057617
1750506137248486700,9.247486572265625,0.16321249306201935,1.375137448310852,3.7232248783111572
1750506137258091300,9.25709130859375,0.16692499816417694,1.0390875339508057,4.552762508392334
1750506137267695900,9.26669580078125,0.13516250252723694,0.49665001034736633,5.190487384796143
1750506137277300200,9.27630029296875,0.004399999976158142,-0.18988749384880066,5.448299884796143
1750506137286904800,9.28590478515625,-0.10807500034570694,-0.8863250017166138,5.43853759765625
1750506137296509400,9.295509521484375,-0.089649997651577,-1.633912444114685,5.332250118255615
1750506137306114300,9.3051142578125,0.06792499870061874,-2.1115875244140625,5.113487243652344
1750506137315718700,9.31471875,0.20721249282360077,-2.391400098800659,4.952337265014648
1750506137325323000,9.324322998046876,0.13750000298023224,-2.7897374629974365,4.811812400817871
1750506137334927600,9.333927734375,-0.0835999995470047,-3.043837547302246,4.508762359619141
1750506137344532200,9.3435322265625,-0.3669874966144562,-3.019362449645996,4.142324924468994
1750506137354136800,9.35313671875,-0.6162750124931335,-2.71521258354187,3.800225019454956
1750506137363741200,9.3627412109375,-0.7360374927520752,-2.100724935531616,3.511887550354004
1750506137373346000,9.372345947265625,-0.7408499717712402,-1.3737624883651733,3.2736001014709473
1750506137382950400,9.381950439453124,-0.7005624771118164,-0.693274974822998,3.0159249305725098
1750506137392555000,9.391554931640625,-0.6443250179290771,-0.13983750343322754,2.6773998737335205
1750506137402159600,9.40115966796875,-0.5942749977111816,0.15826250612735748,2.2547249794006348
1750506137411764000,9.410763916015625,-0.5637499690055847,0.17778749763965607,1.799049973487854
1750506137421368600,9.42036865234375,-0.5295125246047974,0.0789249986410141,1.356850028038025
1750506137430973200,9.42997314453125,-0.4647499918937683,-0.02983750030398369,0.9475125074386597
1750506137440577800,9.439577880859375,-0.37070000171661377,-0.17036250233650208,0.5651249885559082
1750506137450182400,9.449182373046876,-0.26922500133514404,-0.2644124925136566,0.15344999730587006
1750506137459786800,9.458786865234375,-0.1825999915599823,-0.28517499566078186,-0.2839374840259552
1750506137469391400,9.468391357421876,-0.07864999771118164,-0.19965000450611115,-0.7360374927520752
1750506137478996000,9.477995849609375,0.04592499881982803,-0.0030249999836087227,-1.203950047492981
1750506137488600600,9.4876005859375,0.18521249294281006,0.2670249938964844,-1.64986252784729
1750506137498205200,9.497205078125,0.2927374839782715,0.46131250262260437,-2.0517749786376953
1750506137507809500,9.5068095703125,0.38554999232292175,0.552887499332428,-2.4219250679016113
1750506137517414100,9.5164140625,0.4978874921798706,0.6041749715805054,-2.7787375450134277
1750506137527018800,9.526018798828124,0.6384124755859375,0.6506500244140625,-3.1536998748779297
1750506137536623400,9.535623291015625,0.7814124822616577,0.6811749935150146,-3.5545125007629395
1750506137546228000,9.54522802734375,0.9352750182151794,0.7409874796867371,-3.9857125282287598
1750506137555832300,9.554832275390625,1.050225019454956,0.7422249913215637,-4.399862289428711
1750506137565437000,9.56443701171875,1.121037483215332,0.7556999921798706,-4.754199981689453
1750506137575041500,9.57404150390625,1.1222749948501587,0.802174985408783,-5.063300132751465
1750506137584646100,9.583646240234375,1.034274935722351,0.8375124931335449,-5.341875076293945
1750506137594250500,9.59325048828125,0.9450374841690063,0.9072250127792358,-5.549499988555908
1750506137603855000,9.602855224609375,0.8167499899864197,0.8094624876976013,-5.558024883270264
1750506137613459700,9.612459716796875,0.6653624773025513,0.6469374895095825,-5.313687324523926
1750506137623064000,9.62206396484375,0.5858874917030334,0.5871250033378601,-4.827487468719482
1750506137632668700,9.631668701171876,0.534600019454956,0.5113624930381775,-4.198287487030029
1750506137642273300,9.641273193359375,0.4930749833583832,0.5468375086784363,-3.591087579727173
1750506137651878000,9.6508779296875,0.454025000333786,0.6384124755859375,-3.0218374729156494
1750506137661482500,9.660482421875,0.40878748893737793,0.7092249989509583,-2.5074501037597656
1750506137671087000,9.670087158203126,0.3708375096321106,0.7789375185966492,-2.1250624656677246
1750506137680691500,9.67969140625,0.2732124924659729,0.7532249689102173,-1.869724988937378
1750506137690296300,9.68929638671875,0.11550000309944153,0.6115999817848206,-1.7439124584197998
1750506137699900700,9.698900634765625,-0.004124999977648258,0.4160749912261963,-1.7304375171661377
1750506137709505300,9.70850537109375,0.04097500070929527,0.5028374791145325,-1.9809625148773193
1750506137719110000,9.71810986328125,0.20102499425411224,1.1368499994277954,-2.3694000244140625
1750506137728714200,9.72771435546875,0.26221248507499695,0.5821750164031982,-1.5483875274658203
1750506137738318800,9.73731884765625,0.3488374948501587,-0.16664999723434448,-0.35241249203681946
1750506137747923500,9.74692333984375,0.22068749368190765,-0.19236250221729279,0.20473749935626984
1750506137757528000,9.756528076171875,-0.038362499326467514,-0.0775500014424324,0.48083749413490295
1750506137767132700,9.766132568359374,-0.2326499968767166,-0.20212499797344208,0.7581750154495239
1750506137776737000,9.775737060546875,-0.29864999651908875,-0.15207499265670776,0.8265125155448914
1750506137786341600,9.785341552734375,-0.22769999504089355,0.055687498301267624,0.7239375114440918
1750506137795946200,9.7949462890625,-0.08483749628067017,0.17778749763965607,0.5601750016212463
1750506137805550800,9.80455078125,0.029975000768899918,0.23649999499320984,0.3623124957084656
1750506137815155200,9.8141552734375,0.08249999582767487,0.2670249938964844,0.16073749959468842
1750506137824759800,9.823759765625,0.06792499870061874,0.28049999475479126,0.0056374999694526196
1750506137834364400,9.833364501953126,0.021449999883770943,0.284074991941452,-0.13983750343322754
1750506137843968800,9.84296875,-0.005362499970942736,0.3232625126838684,-0.3609375059604645
1750506137853573400,9.852573486328126,-0.020075000822544098,0.38554999232292175,-0.5735124945640564
1750506137863178000,9.862177978515625,-0.023787500336766243,0.2938374876976013,-0.5772249698638916
1750506137872782300,9.8717822265625,0.010449999943375587,0.09597499668598175,-0.4207499921321869
1750506137882387000,9.881386962890625,0.031212499365210533,-0.016362499445676804,-0.27665001153945923
1750506137891991600,9.890991455078124,0.009212499484419823,-0.07136250287294388,-0.1313125044107437
1750506137901596200,9.90059619140625,-0.026124998927116394,-0.09707500040531158,0.03368749842047691
1750506137911200800,9.91020068359375,-0.03959999978542328,-0.04455000162124634,0.1704999953508377
1750506137920805000,9.91980517578125,-0.035887498408555984,-0.0017874999903142452,0.26455000042915344
1750506137930409700,9.92940966796875,-0.028599999845027924,0.023924998939037323,0.295074999332428
1750506137940014000,9.93901416015625,-0.03712499886751175,0.043449997901916504,0.259737491607666
1750506137949619000,9.948618896484374,-0.05664999783039093,0.029975000768899918,0.17173749208450317
1750506137959223600,9.9582236328125,-0.07631249725818634,0.014162499457597733,0.05816249921917915
1750506137968827600,9.96782763671875,-0.08483749628067017,0.011687500402331352,-0.04455000162124634
1750506137978432500,9.9774326171875,-0.07631249725818634,0.011687500402331352,-0.12388750165700912
1750506137988036900,9.987036865234375,-0.05555000156164169,0.015399999916553497,-0.18383750319480896
1750506137997641500,9.996641357421876,-0.035887498408555984,0.015399999916553497,-0.2106499969959259
1750506138007246000,10.00624609375,-0.02488750033080578,0.020212499424815178,-0.1825999915599823
1750506138016850400,10.015850341796876,-0.03355000168085098,0.05073750019073486,-0.10559999942779541
1750506138026455000,10.025455078125,-0.04331250116229057,0.11797499656677246,0.0056374999694526196
1750506138036059600,10.0350595703125,-0.05664999783039093,0.148499995470047,0.10326249897480011
1750506138045664300,10.044664306640625,-0.07012499868869781,0.12278749793767929,0.13144999742507935
1750506138055268900,10.054268798828126,-0.0873124971985817,0.05816249921917915,0.10326249897480011
1750506138064873200,10.063873291015625,-0.10917499661445618,0.005499999970197678,0.06668750196695328
1750506138074477800,10.073477783203124,-0.10064999759197235,-0.045787498354911804,0.03739999979734421
1750506138084082400,10.08308251953125,-0.07864999771118164,-0.1153625026345253,-0.02502499893307686
1750506138093686800,10.092686767578124,-0.07012499868869781,-0.14464999735355377,-0.08483749628067017
1750506138103291400,10.10229150390625,-0.07864999771118164,-0.07507500052452087,-0.07631249725818634
1750506138112896000,10.11189599609375,-0.07012499868869781,0.08868750184774399,-0.01759999990463257
1750506138122500600,10.12150048828125,-0.020075000822544098,0.227974995970726,0.0494999997317791
1750506138132105200,10.131105224609374,0.026399999856948853,0.2572624981403351,0.06173750013113022
1750506138141709800,10.140709716796875,0.028875000774860382,0.19249999523162842,0.007974999956786633
1750506138151314200,10.150314208984375,0.0031624999828636646,0.06544999778270721,-0.060362499207258224
1750506138160918800,10.159918701171875,-0.026124998927116394,-0.06159999966621399,-0.11659999936819077
1750506138170523400,10.1695234375,-0.04331250116229057,-0.12388750165700912,-0.13612499833106995
1750506138180127700,10.179127685546876,-0.04455000162124634,-0.1313125044107437,-0.09583749622106552
1750506138189732600,10.188732666015625,-0.023787500336766243,-0.08483749628067017,-0.01759999990463257
1750506138199337000,10.1983369140625,0.0056374999694526196,-0.021312499418854713,0.06297499686479568
1750506138208941600,10.207941650390625,0.017875000834465027,0.021449999883770943,0.11426249891519547
1750506138218546200,10.217546142578126,0.011687500402331352,0.0471624992787838,0.13021250069141388
1750506138228150500,10.227150634765625,-0.007837500423192978,0.05197500064969063,0.13021250069141388
1750506138237755100,10.236755126953126,-0.021312499418854713,0.04592499881982803,0.11797499656677246
1750506138247359700,10.24635986328125,-0.023787500336766243,0.0019249999895691872,0.0849749967455864
1750506138256964400,10.25596435546875,-0.011549999937415123,-0.05431250110268593,0.03616249933838844
1750506138266569000,10.26556884765625,0.006874999962747097,-0.09831249713897705,-0.007837500423192978
1750506138276173300,10.27517333984375,0.028875000774860382,-0.13007499277591705,-0.03231250122189522
1750506138285778000,10.28477783203125,0.043449997901916504,-0.1116499975323677,-0.02736249938607216
1750506138295382500,10.294382568359374,0.04468749836087227,-0.06159999966621399,0.007974999956786633
1750506138304987000,10.30398681640625,0.04221250116825104,-0.01759999990463257,0.0494999997317791
1750506138314591500,10.313591552734374,0.03863750025629997,-0.0017874999903142452,0.07273750007152557
1750506138324196000,10.323196044921875,0.03739999979734421,-0.007837500423192978,0.07026249915361404
1750506138333800700,10.33280078125,0.03987500071525574,-0.02983750030398369,0.04221250116825104
1750506138343405000,10.342405029296875,0.04221250116825104,-0.04207500070333481,0.011687500402331352
1750506138353009700,10.352009765625,0.0471624992787838,-0.01759999990463257,-0.01759999990463257
1750506138362614300,10.3616142578125,0.06297499686479568,-0.0005499999970197678,-0.03231250122189522
1750506138372219000,10.371218994140625,0.07644999772310257,-0.0042624999769032,-0.04702499881386757
1750506138381823500,10.380823486328126,0.07397499680519104,-0.010312499478459358,-0.06655000150203705
1750506138391427800,10.390427734375,0.06297499686479568,-0.023787500336766243,-0.07259999960660934
1750506138401032400,10.400032470703126,0.043449997901916504,-0.01759999990463257,-0.07631249725818634
1750506138410636800,10.40963671875,0.021449999883770943,0.010449999943375587,-0.07012499868869781
1750506138420241400,10.419241455078126,0.008112499490380287,0.048262499272823334,-0.048124998807907104
1750506138429846000,10.428845947265625,0.004399999976158142,0.06916250288486481,-0.031075000762939453
1750506138439450600,10.43845068359375,0.008112499490380287,0.055687498301267624,-0.02983750030398369
1750506138449055000,10.448054931640625,0.011687500402331352,0.018975000828504562,-0.04331250116229057
1750506138458659600,10.45765966796875,0.014162499457597733,-0.023787500336766243,-0.06655000150203705
1750506138468264200,10.46726416015625,0.011687500402331352,-0.06655000150203705,-0.09459999948740005
1750506138477868800,10.476868896484374,-0.005362499970942736,-0.07507500052452087,-0.1116499975323677
1750506138487473200,10.48647314453125,-0.022549999877810478,-0.03712499886751175,-0.1116499975323677
1750506138497077500,10.496077392578124,-0.03231250122189522,0.010449999943375587,-0.0873124971985817
1750506138506682400,10.505682373046875,-0.035887498408555984,0.07150000333786011,-0.040837500244379044
1750506138516286700,10.51528662109375,-0.028599999845027924,0.13626250624656677,0.011687500402331352
1750506138525891300,10.524891357421875,-0.020075000822544098,0.16321249306201935,0.0494999997317791
1750506138535496000,10.534495849609375,-0.013887500390410423,0.11921250075101852,0.04839999973773956
1750506138545100300,10.544100341796875,-0.009074999950826168,0.026399999856948853,0.007974999956786633
1750506138554705000,10.553704833984375,-0.007837500423192978,-0.07136250287294388,-0.040837500244379044
1750506138564309500,10.5633095703125,-0.011549999937415123,-0.13255000114440918,-0.07631249725818634
1750506138573914000,10.5729140625,-0.022549999877810478,-0.1471250057220459,-0.09212499856948853
1750506138583518500,10.5825185546875,-0.03355000168085098,-0.12388750165700912,-0.09336250275373459
1750506138593123000,10.592123046875,-0.038362499326467514,-0.09336250275373459,-0.06778749823570251
1750506138602727700,10.601727783203126,-0.04455000162124634,-0.06531249731779099,-0.02983750030398369
1750506138612332300,10.611332275390625,-0.04688749834895134,-0.022549999877810478,0.007974999956786633
1750506138621936600,10.6209365234375,-0.04936249926686287,-0.010312499478459358,0.03973750025033951
1750506138631541200,10.630541259765625,-0.04688749834895134,0.0019249999895691872,0.0752125009894371
1750506138641145900,10.640145751953124,-0.03231250122189522,0.4503124952316284,0.40136250853538513
1750506138650750500,10.64975048828125,0.1106875017285347,0.7654625177383423,0.2890250086784363
1750506138660354800,10.659354736328124,0.08373750001192093,0.4515500068664551,0.13021250069141388
1750506138669959400,10.66895947265625,0.021449999883770943,-0.09336250275373459,-0.06283749639987946
1750506138679564000,10.67856396484375,-0.06407500058412552,-0.49293750524520874,-0.3156999945640564
1750506138689168600,10.688168701171875,-0.1434125006198883,-0.7103250026702881,-0.3609375059604645
1750506138698773000,10.69777294921875,-0.11412499845027924,-0.5979874730110168,-0.27912500500679016
