time,seconds_elapsed,z,y,x
1750506128124133400,0.12313330078125,0.005912499967962503,-0.002474999986588955,0.06270000338554382
1750506128133737700,0.13273779296875,0.009624999947845936,-0.012374999932944775,0.06627500057220459
1750506128143342300,0.14234228515625,0.014574999921023846,-0.029424998909235,0.060224998742341995
1750506128152946700,0.15194677734375,0.018149999901652336,-0.029424998909235,0.056512501090765
1750506128162551300,0.16155126953125,0.014574999921023846,-0.0013749999925494194,0.05898749828338623
1750506128172156000,0.171156005859375,0.002337499987334013,0.05004999786615372,0.06627500057220459
1750506128181760500,0.180760498046875,-0.011137500405311584,0.07933750003576279,0.07727500051259995
1750506128191365000,0.190365234375,-0.02213750034570694,0.07933750003576279,0.07369999587535858
1750506128200969700,0.1999697265625,-0.038087498396635056,0.07438749819993973,0.047987498342990875
1750506128210574300,0.20957421875,-0.06613750010728836,0.07438749819993973,0.0004124999977648258
1750506128220179000,0.219178955078125,-0.08318749815225601,0.05115000158548355,-0.06201250106096268
1750506128229783600,0.228783447265625,-0.05637500062584877,0.035337500274181366,-0.1303499937057495
1750506128239388200,0.23838818359375,-0.038087498396635056,0.03904999792575836,-0.18535000085830688
1750506128248992500,0.247992431640625,-0.05389999970793724,0.004812499973922968,-0.20116250216960907
1750506128258597000,0.25759716796875,-0.07466249912977219,-0.03671250119805336,-0.18535000085830688
1750506128268202000,0.267201904296875,-0.07713750004768372,-0.07590000331401825,-0.15963749587535858
1750506128277806300,0.276806396484375,-0.06737499684095383,-0.12347500026226044,-0.13887499272823334
1750506128287411000,0.286410888671875,-0.06984999775886536,-0.14918750524520874,-0.1303499937057495
1750506128297015600,0.296015625,-0.09171249717473984,-0.14423750340938568,-0.12787500023841858
1750506128306620200,0.3056201171875,-0.11990000307559967,-0.10999999940395355,-0.12553749978542328
1750506128316224800,0.315224853515625,-0.1321374922990799,-0.040424998849630356,-0.11453749984502792
1750506128325829400,0.324829345703125,-0.11371249705553055,0.06710000336170197,-0.07906249910593033
1750506128335433700,0.334433837890625,-0.07342500239610672,0.1746249943971634,-0.018012499436736107
1750506128345038600,0.34403857421875,-0.029424998909235,0.2441999912261963,0.047987498342990875
1750506128354643200,0.353643310546875,0.007149999961256981,0.3053874969482422,0.0919874981045723
1750506128364247800,0.363247802734375,0.03891250118613243,0.35420000553131104,0.09075000137090683
1750506128373852200,0.37285205078125,0.06338749825954437,0.3689124882221222,0.06146249920129776
1750506128383456800,0.382456787109375,0.07315000146627426,0.3102000057697296,0.016224998980760574
1750506128393061400,0.392061279296875,0.05967500060796738,0.202674999833107,-0.03629999980330467
1750506128402666000,0.401666015625,0.03162499889731407,0.10257499665021896,-0.08758749812841415
1750506128412270600,0.4112705078125,0.0035749999806284904,0.013337500393390656,-0.13158750534057617
1750506128421875200,0.420875244140625,-0.0038499999791383743,-0.05871250107884407,-0.15482500195503235
1750506128431479800,0.430479736328125,0.008387500420212746,-0.11247500032186508,-0.16458749771118164
1750506128441084400,0.44008447265625,0.02667500078678131,-0.1344749927520752,-0.15963749587535858
1750506128450689000,0.44968896484375,0.045099999755620956,-0.11371249705553055,-0.1438249945640564
1750506128460293600,0.459293701171875,0.0658624991774559,-0.018424998968839645,-0.12553749978542328
1750506128469898200,0.468898193359375,0.08662500232458115,0.10986249893903732,-0.10958749800920486
1750506128479502600,0.478502685546875,0.09515000134706497,0.19910000264644623,-0.09129999577999115
1750506128489107200,0.488107177734375,0.0999625027179718,0.19786250591278076,-0.07411249727010727
1750506128498711800,0.4977119140625,0.09886249899864197,0.09638749808073044,-0.07906249910593033
1750506128508316400,0.50731640625,0.08291249722242355,-0.020899999886751175,-0.12306249886751175
1750506128517921000,0.516921142578125,0.05609999969601631,-0.12594999372959137,-0.19263750314712524
1750506128527525600,0.526525634765625,0.03891250118613243,-0.20899999141693115,-0.2806375026702881
1750506128537130000,0.5361298828125,0.040150001645088196,-0.20528750121593475,-0.33687499165534973
1750506128546734800,0.54573486328125,0.04867500066757202,-0.24447499215602875,-0.33563750982284546
1750506128556339500,0.55533935546875,0.05115000158548355,-0.3018124997615814,-0.29534998536109924
1750506128565944000,0.564944091796875,0.0364375002682209,-0.32023748755455017,-0.22687499225139618
1750506128575548700,0.574548583984375,0.02186249941587448,-0.3385249972343445,-0.15234999358654022
1750506128585153300,0.5841533203125,0.01209999993443489,-0.3385249972343445,-0.08030000329017639
1750506128594758000,0.5937578125,0.005912499967962503,-0.3507624864578247,-0.025299999862909317
1750506128604362500,0.603362548828125,-0.0013749999925494194,-0.3630000054836273,-0.0008249999955296516
1750506128613966800,0.612966796875,-0.00989999994635582,-0.32381248474121094,-0.009349999949336052
1750506128623571500,0.622571533203125,-0.012374999932944775,-0.27857500314712524,-0.04001250118017197
1750506128633176000,0.632176025390625,0.0010999999940395355,-0.26276248693466187,-0.08511249721050262
1750506128642781000,0.641781005859375,0.03162499889731407,-0.2652375102043152,-0.14258749783039093
1750506128652385300,0.65138525390625,0.0681999996304512,-0.22495000064373016,-0.19882500171661377
1750506128661990000,0.660989990234375,0.09019999951124191,-0.1882375031709671,-0.22439999878406525
1750506128671594500,0.670594482421875,0.06462500244379044,-0.23223750293254852,-0.24158750474452972
1750506128681199000,0.68019921875,0.0340999998152256,-0.2162874937057495,-0.254925012588501
1750506128690803700,0.6898037109375,-0.002612499985843897,-0.1919499933719635,-0.25987499952316284
1750506128700408300,0.699408203125,-0.04661250114440918,-0.19552500545978546,-0.2513499855995178
1750506128710013000,0.709012939453125,-0.07713750004768372,-0.21147499978542328,-0.23787499964237213
1750506128719617500,0.718617431640625,-0.07837499678134918,-0.22728750109672546,-0.25382500886917114
1750506128729222100,0.72822216796875,-0.08566249907016754,-0.19552500545978546,-0.26963749527931213
1750506128738826800,0.73782666015625,-0.07466249912977219,-0.16499999165534973,-0.25011250376701355
1750506128748431000,0.74743115234375,-0.018424998968839645,-0.12099999934434891,-0.21587499976158142
1750506128758036000,0.757035888671875,0.06943749636411667,-0.052662499248981476,-0.16830000281333923
1750506128767640300,0.766640380859375,0.15619999170303345,-0.06971249729394913,-0.11082500219345093
1750506128777245000,0.776244873046875,0.22220000624656677,-0.13695000112056732,-0.0448249988257885
1750506128786849800,0.785849853515625,0.25891250371932983,-0.22123749554157257,-0.002062499988824129
1750506128796454400,0.795454345703125,0.23319999873638153,-0.20295000076293945,-0.009349999949336052
1750506128806059000,0.80505908203125,0.15015000104904175,-0.2139499932527542,-0.03258749842643738
1750506128815663600,0.81466357421875,0.08538749814033508,-0.18947499990463257,-0.10353749990463257
1750506128825268000,0.82426806640625,0.07438749819993973,-0.09047500044107437,-0.20858749747276306
1750506128834872800,0.833872802734375,0.08415000140666962,-0.055137500166893005,-0.30744999647140503
1750506128844477400,0.8434775390625,0.07067500054836273,-0.057475000619888306,-0.37097498774528503
1750506128854082000,0.85308203125,0.05609999969601631,-0.055137500166893005,-0.39297500252723694
1750506128863686700,0.862686767578125,0.07686249911785126,-0.0672374963760376,-0.39063748717308044
1750506128873291300,0.872291259765625,0.1073874980211258,-0.0037124999798834324,-0.3624500036239624
1750506128882896000,0.881895751953125,0.10986249893903732,0.1073874980211258,-0.29411250352859497
1750506128892500500,0.89150048828125,0.10615000128746033,0.2662000060081482,-0.18039999902248383
1750506128902104800,0.901104736328125,0.06091250106692314,0.37248748540878296,-0.03382499888539314
1750506128911709400,0.91070947265625,0.007149999961256981,0.35667499899864197,0.09693749994039536
1750506128921314000,0.92031396484375,-0.01966249942779541,0.23567499220371246,0.15798750519752502
1750506128930918700,0.929918701171875,-0.018424998968839645,0.1073874980211258,0.11769999563694
1750506128940523300,0.939523193359375,-0.016087500378489494,0.02928750030696392,0.011412499472498894
1750506128950127900,0.9491279296875,-0.03189999982714653,-0.0037124999798834324,-0.08387500047683716
1750506128959732500,0.958732421875,-0.050187498331069946,-0.00989999994635582,-0.11453749984502792
1750506128969337000,0.968337158203125,-0.07095000147819519,-0.047712501138448715,-0.09611249715089798
1750506128978941700,0.977941650390625,-0.11495000123977661,-0.08071249723434448,-0.06201250106096268
1750506128988546300,0.98754638671875,-0.12113749980926514,-0.07095000147819519,-0.0668250024318695
1750506128998151000,0.99715087890625,-0.11618749797344208,-0.0147124994546175,-0.08153750002384186
1750506129007755500,1.006755615234375,-0.10161250084638596,0.057337500154972076,-0.08153750002384186
1750506129017360100,1.016360107421875,-0.09790000319480896,0.13062499463558197,-0.05335000157356262
1750506129026964500,1.025964599609375,-0.029424998909235,0.10986249893903732,-0.020349999889731407
1750506129036569000,1.035569091796875,0.06091250106692314,0.08057499676942825,-0.0008249999955296516
1750506129046173700,1.045173583984375,0.10119999945163727,0.028049999848008156,-0.029012499377131462
1750506129055778600,1.054778564453125,0.0976250022649765,-0.00989999994635582,-0.11811249703168869
1750506129065383000,1.0643828125,0.08167500048875809,-0.018424998968839645,-0.22192500531673431
1750506129074987500,1.073987548828125,0.0681999996304512,0.013337500393390656,-0.27211248874664307
1750506129084592000,1.083592041015625,0.05486249923706055,0.045099999755620956,-0.24392500519752502
1750506129094196700,1.09319677734375,0.025437500327825546,0.014574999921023846,-0.17063750326633453
1750506129103801300,1.10280126953125,-0.047849997878074646,-0.09047500044107437,-0.1023000031709671
1750506129113406000,1.112406005859375,-0.0611874982714653,-0.14300000667572021,-0.07177499681711197
1750506129123010600,1.122010498046875,-0.02461249940097332,-0.1467124968767166,-0.08758749812841415
1750506129132615200,1.131615234375,0.015675000846385956,-0.06971249729394913,-0.11563749611377716
1750506129142219800,1.1412197265625,0.04138749837875366,0.02186249941587448,-0.13653749227523804
1750506129151824400,1.150824462890625,0.0658624991774559,0.11481250077486038,-0.15729999542236328
1750506129161428700,1.1604287109375,0.08538749814033508,0.2186249941587448,-0.15839999914169312
1750506129171033300,1.170033447265625,0.09391249716281891,0.22591249644756317,-0.147537499666214
1750506129180638000,1.179637939453125,0.08291249722242355,0.14409999549388885,-0.13158750534057617
1750506129190242800,1.189242919921875,0.04633750021457672,0.02928750030696392,-0.10711249709129333
1750506129199847200,1.19884716796875,-0.0038499999791383743,-0.0672374963760376,-0.07535000145435333
1750506129209451800,1.20845166015625,-0.04413750022649765,-0.10876250267028809,-0.030249999836087227
1750506129219056400,1.218056396484375,-0.059950001537799835,-0.07590000331401825,0.01993750035762787
1750506129228661000,1.227660888671875,-0.03918749839067459,-0.012374999932944775,0.03698749840259552
1750506129238265600,1.237265625,-0.0013749999925494194,0.06462500244379044,0.01251249946653843
1750506129247870200,1.2468701171875,0.03162499889731407,0.09391249716281891,-0.03506249934434891
1750506129257474800,1.256474853515625,0.04867500066757202,0.08662500232458115,-0.08758749812841415
1750506129267079400,1.266079345703125,0.05115000158548355,0.07933750003576279,-0.11935000121593475
1750506129276684000,1.27568408203125,0.04867500066757202,0.10257499665021896,-0.1120624989271164
1750506129286288600,1.28528857421875,0.045099999755620956,0.12086249887943268,-0.07411249727010727
1750506129295893200,1.294893310546875,0.040150001645088196,0.12209999561309814,-0.03753750026226044
1750506129305497900,1.304497802734375,0.045099999755620956,0.1293874979019165,-0.0032999999821186066
1750506129315102500,1.3141025390625,0.06091250106692314,0.1331000030040741,0.035750001668930054
1750506129324706800,1.323706787109375,0.0658624991774559,0.1391499936580658,0.06146249920129776
1750506129334311400,1.3333115234375,0.027912499383091927,0.14657500386238098,0.08470000326633453
1750506129343916000,1.342916015625,0.007149999961256981,0.11962500214576721,0.09693749994039536
1750506129353520600,1.352520751953125,0.0193875003606081,0.09281250089406967,0.07603749632835388
1750506129363125200,1.362125244140625,0.037675000727176666,0.10381250083446503,0.043175000697374344
1750506129372729900,1.371729736328125,0.06462500244379044,0.2063875049352646,0.023512499406933784
1750506129382334500,1.38133447265625,0.05843750014901161,0.3419624865055084,0.06751249730587006
1750506129391939000,1.39093896484375,0.04262499883770943,0.46777498722076416,0.15674999356269836
1750506129401543700,1.400543701171875,0.025437500327825546,0.6254875063896179,0.25203749537467957
1750506129411148300,1.410148193359375,-0.018424998968839645,0.6767749786376953,0.3436124920845032
1750506129420753000,1.4197529296875,-0.05389999970793724,0.6730625033378601,0.415800005197525
1750506129430357200,1.429357177734375,-0.06984999775886536,0.6852999925613403,0.47561249136924744
1750506129439962000,1.438962158203125,-0.0906125009059906,0.682824969291687,0.5268999934196472
1750506129449566700,1.448566650390625,-0.11618749797344208,0.6462500095367432,0.5733749866485596
1750506129459171000,1.458171142578125,-0.1344749927520752,0.6620625257492065,0.6209499835968018
1750506129468775700,1.467775634765625,-0.11990000307559967,0.8086374998092651,0.694237470626831
1750506129478380300,1.47738037109375,-0.09418749809265137,1.0224499702453613,0.8409500122070312
1750506129487985000,1.48698486328125,-0.13695000112056732,1.290024995803833,1.1023374795913696
1750506129497589500,1.496589599609375,-0.2835249900817871,1.5196499824523926,1.4261499643325806
1750506129507194000,1.506194091796875,-0.41071251034736633,1.739650011062622,1.687537431716919
1750506129516798700,1.515798828125,-0.48028749227523804,2.079274892807007,1.8390624523162842
1750506129526403300,1.5254033203125,-0.4460499882698059,2.4457125663757324,1.8695875406265259
1750506129536008000,1.535008056640625,-0.29218751192092896,2.630237579345703,1.825587511062622
1750506129545612500,1.544612548828125,-0.020899999886751175,2.084087371826172,1.7742999792099
1750506129555217200,1.554217041015625,0.30524998903274536,1.210687518119812,1.7670124769210815
1750506129564821500,1.563821533203125,0.5752999782562256,0.49472498893737793,1.8158249855041504
1750506129574426400,1.57342626953125,0.7279250025749207,0.010862499475479126,1.8732999563217163
1750506129584030700,1.58303076171875,0.7121124863624573,-0.21271249651908875,1.9148249626159668
1750506129593635600,1.592635498046875,0.5875374674797058,-0.31404998898506165,2.0308749675750732
1750506129603240200,1.602240234375,0.4628250002861023,-0.17971250414848328,2.2886874675750732
1750506129612844800,1.6118447265625,0.28325000405311584,0.15991249680519104,2.662412405014038
1750506129622449400,1.621449462890625,0.25891250371932983,-0.04166249930858612,2.863987445831299
1750506129632054000,1.631053955078125,0.4542999863624573,-0.1504250019788742,3.028987407684326
1750506129641658600,1.64065869140625,0.6558749675750732,-0.16376249492168427,3.316087484359741
1750506129651263200,1.65026318359375,0.7878749966621399,0.06338749825954437,3.692425012588501
1750506129660867600,1.65986767578125,0.8379250168800354,0.062150001525878906,3.941575050354004
1750506129670472200,1.66947216796875,0.7585874795913696,-0.31652501225471497,3.895237445831299
1750506129680076800,1.679076904296875,0.6118749976158142,-0.7697250247001648,3.6349499225616455
1750506129689681700,1.688681640625,0.49101248383522034,-1.4649250507354736,3.2830874919891357
1750506129699286300,1.698286376953125,0.43353748321533203,-1.7580749988555908,3.0362749099731445
1750506129708891000,1.707890869140625,0.3480125069618225,-1.56021249294281,3.09375
1750506129718495500,1.71749560546875,0.2527250051498413,-1.3818750381469727,3.219562530517578
1750506129728100000,1.72710009765625,0.202674999833107,-1.0630124807357788,3.3636624813079834
1750506129737704400,1.736704345703125,0.18438750505447388,-0.8589624762535095,3.422374963760376
1750506129747309000,1.74630908203125,0.18672500550746918,-0.7331500053405762,3.2830874919891357
1750506129756913700,1.75591357421875,0.19167499244213104,-0.5328124761581421,2.9874625205993652
1750506129766518300,1.765518310546875,0.19043749570846558,-0.4362874925136566,2.642887592315674
1750506129776123000,1.775122802734375,0.21972499787807465,-0.4460499882698059,2.3069748878479004
1750506129785727500,1.7847275390625,0.2576749920845032,-0.48028749227523804,2.0491623878479004
1750506129795332000,1.79433203125,0.29301249980926514,-0.4998124837875366,1.8231124877929688
1750506129804936700,1.803936767578125,0.297962486743927,-0.38733750581741333,1.5457749366760254
1750506129814541300,1.813541259765625,0.2917749881744385,-0.26276248693466187,1.2366750240325928
1750506129824146000,1.82314599609375,0.3016749918460846,-0.26647499203681946,0.9142374992370605
1750506129833750500,1.83275048828125,0.3431999981403351,-0.3092375099658966,0.5513749718666077
1750506129843355100,1.842355224609375,0.4030124843120575,-0.29823750257492065,0.13103750348091125
1750506129852959700,1.851959716796875,0.4970625042915344,-0.3190000057220459,-0.3624500036239624
1750506129862564000,1.861564208984375,0.5703499913215637,-0.3665750026702881,-0.9134125113487244
1750506129872168700,1.871168701171875,0.5703499913215637,-0.36410000920295715,-1.4950374364852905
1750506129881773300,1.880773193359375,0.5153499841690063,-0.3531000018119812,-2.0594749450683594
1750506129891378000,1.8903779296875,0.4470124840736389,-0.30799999833106995,-2.5249125957489014
1750506129900982500,1.899982421875,0.48606249690055847,-0.22605000436306,-2.823012590408325
1750506129910587100,1.909587158203125,0.46406251192092896,-0.2700499892234802,-2.972062587738037
1750506129920191700,1.919191650390625,0.4127750098705292,-0.2895750105381012,-3.1113500595092773
1750506129929796400,1.92879638671875,0.38596248626708984,-0.1284250020980835,-3.312925100326538
1750506129939401000,1.93840087890625,0.306487500667572,0.08786249905824661,-3.600024938583374
1750506129949005600,1.948005615234375,0.21972499787807465,0.26496249437332153,-3.982412576675415
1750506129958610200,1.957610107421875,0.22948749363422394,0.3689124882221222,-4.471087455749512
1750506129968214800,1.96721484375,0.48730000853538513,0.5752999782562256,-4.9842376708984375
1750506129977819400,1.9768193359375,0.822112500667572,0.4824874997138977,-5.232287406921387
1750506129987424000,1.986424072265625,0.8929250240325928,0.04881250113248825,-5.161337375640869
1750506129997028600,1.996028564453125,0.8111125230789185,-0.28847500681877136,-5.0025248527526855
1750506130006633000,2.005633056640625,0.6143500208854675,-0.28476250171661377,-4.882762432098389
1750506130016237800,2.01523779296875,0.43601250648498535,0.0010999999940395355,-4.792425155639648
1750506130025842400,2.024842529296875,0.40053749084472656,0.32243749499320984,-4.695899963378906
1750506130035446800,2.03444677734375,0.5092999935150146,0.5900124907493591,-4.616425037384033
1750506130045051400,2.044051513671875,0.7939249873161316,0.7853999733924866,-4.461325168609619
1750506130054656000,2.053656005859375,0.8879749774932861,0.7720624804496765,-4.001937389373779
1750506130064260600,2.063260498046875,0.7988749742507935,0.5948249697685242,-3.2566874027252197
1750506130073865200,2.072865234375,0.6876375079154968,0.492249995470047,-2.4003374576568604
1750506130083469800,2.0824697265625,0.4347749948501587,0.5350124835968018,-1.6904250383377075
1750506130093074400,2.092074462890625,0.1574375033378601,0.6925874948501587,-1.2762750387191772
1750506130112283600,2.11128369140625,-0.06737499684095383,0.559487521648407,-0.8463125228881836
1750506130121888300,2.12088818359375,-0.033137500286102295,0.3786749839782715,-0.7680749893188477
1750506130131492900,2.130492919921875,0.06462500244379044,0.1746249943971634,-0.696025013923645
1750506130141097500,2.140097412109375,0.12443749606609344,0.05004999786615372,-0.5409250259399414
1750506130150701800,2.149701904296875,0.11096250265836716,0.06104999780654907,-0.3148750066757202
1750506130160306700,2.159306640625,0.04633750021457672,0.15386250615119934,-0.09129999577999115
1750506130169911000,2.1689111328125,-0.04908749833703041,0.22591249644756317,0.07369999587535858
1750506130179515600,2.178515625,-0.14066250622272491,0.22110000252723694,0.1812250018119812
1750506130189120500,2.18812060546875,-0.19689999520778656,0.15015000104904175,0.22632500529289246
1750506130198724900,2.197724853515625,-0.2199999988079071,0.06710000336170197,0.23003749549388885
1750506130208329700,2.207329833984375,-0.20418749749660492,0.03657500073313713,0.20679999887943268
1750506130217934300,2.216934326171875,-0.16266250610351562,0.030387500301003456,0.17379999160766602
1750506130227538700,2.22653857421875,-0.12718750536441803,0.032862499356269836,0.1555124968290329
1750506130237143600,2.2361435546875,-0.09790000319480896,0.0085249999538064,0.15798750519752502
1750506130246748000,2.245747802734375,-0.08566249907016754,-0.0013749999925494194,0.17503750324249268
1750506130256352500,2.2553525390625,-0.0906125009059906,0.0193875003606081,0.17627499997615814
1750506130265957400,2.264957275390625,-0.09171249717473984,0.05857500061392784,0.18603749573230743
1750506130275561700,2.274561767578125,-0.09913749992847443,0.1293874979019165,0.2129874974489212
1750506130285166000,2.284166015625,-0.09790000319480896,0.20391249656677246,0.22632500529289246
1750506130294770700,2.293770751953125,-0.0906125009059906,0.19043749570846558,0.2129874974489212
1750506130304375600,2.30337548828125,-0.08813749998807907,0.10862500220537186,0.1592250019311905
1750506130313980200,2.312980224609375,-0.08318749815225601,0.04386249929666519,0.09569999575614929
1750506130323584800,2.322584716796875,-0.06861250102519989,0.03657500073313713,0.057750001549720764
1750506130333189400,2.332189453125,-0.028187500312924385,0.05238749831914902,0.07851249724626541
1750506130342794000,2.3417939453125,0.018149999901652336,0.08304999768733978,0.15674999356269836
1750506130352398600,2.351398681640625,0.040150001645088196,0.14891250431537628,0.23732499778270721
1750506130362003200,2.361003173828125,0.0364375002682209,0.19415000081062317,0.2690874934196472
1750506130371607600,2.370607666015625,0.004674999974668026,0.1966249942779541,0.23980000615119934
1750506130381212400,2.38021240234375,-0.025849999859929085,0.14409999549388885,0.1812250018119812
1750506130390816800,2.389816650390625,-0.03684999793767929,0.0658624991774559,0.11646249890327454
1750506130400421400,2.39942138671875,-0.030662499368190765,0.025575000792741776,0.07493750005960464
1750506130410026000,2.40902587890625,-0.016087500378489494,-0.00013749999925494194,0.07493750005960464
1750506130419630800,2.418630859375,-0.006324999965727329,-0.02694999985396862,0.09803749620914459
1750506130429235500,2.4282353515625,-0.012374999932944775,-0.025712499395012856,0.11275000125169754
1750506130438840000,2.437840087890625,-0.023375000804662704,-0.020899999886751175,0.10903749614953995
1750506130448444400,2.4474443359375,-0.040424998849630356,0.009624999947845936,0.0882750004529953
1750506130458049000,2.457049072265625,-0.05389999970793724,0.047575000673532486,0.05169999971985817
1750506130467653600,2.466653564453125,-0.050187498331069946,0.0658624991774559,0.02474999986588955
1750506130477258200,2.47625830078125,-0.03684999793767929,0.05362499877810478,0.01993750035762787
1750506130486862800,2.48586279296875,-0.025849999859929085,0.023099999874830246,0.021175000816583633
1750506130496467500,2.495467529296875,-0.013612499460577965,0.007287499960511923,0.006462499964982271
1750506130506072000,2.505072021484375,-0.0038499999791383743,-0.020899999886751175,-0.021587500348687172
1750506130515676700,2.5146767578125,0.0035749999806284904,-0.03189999982714653,-0.06435000151395798
1750506130525281300,2.52428125,0.018149999901652336,-0.01718750037252903,-0.08758749812841415
1750506130534886000,2.533885986328125,0.02667500078678131,0.02433750033378601,-0.06929999589920044
1750506130544490500,2.543490478515625,0.02914999984204769,0.06833750009536743,-0.024062499403953552
1750506130554095000,2.55309521484375,0.023099999874830246,0.08415000140666962,0.016224998980760574
1750506130563699500,2.562699462890625,0.008387500420212746,0.047575000673532486,0.021175000816583633
1750506130573304000,2.572303955078125,-0.012374999932944775,-0.00989999994635582,-0.004537499975413084
1750506130582908700,2.58190869140625,-0.023375000804662704,-0.035475000739097595,-0.03506249934434891
1750506130592513300,2.59151318359375,-0.016087500378489494,-0.020899999886751175,-0.05335000157356262
1750506130602118000,2.601117919921875,0.0035749999806284904,0.023099999874830246,-0.03629999980330467
1750506130611722500,2.610722412109375,0.023099999874830246,0.06833750009536743,0.005224999971687794
1750506130621327000,2.6203271484375,0.02186249941587448,0.07809999585151672,0.03451250120997429
1750506130630931700,2.629931640625,0.002337499987334013,0.057337500154972076,0.03217500075697899
1750506130640536300,2.639536376953125,-0.01732499897480011,0.025575000792741776,0.010174999944865704
1750506130650141000,2.649140869140625,-0.035612501204013824,-0.00013749999925494194,-0.014299999922513962
1750506130659745500,2.65874560546875,-0.040424998849630356,-0.002474999986588955,-0.020349999889731407
1750506130669350100,2.66835009765625,-0.03918749839067459,0.007287499960511923,0.003987499978393316
1750506130678954800,2.677954833984375,-0.03684999793767929,0.009624999947845936,0.02241249941289425
1750506130688559400,2.687559326171875,-0.035612501204013824,0.01209999993443489,0.01746249943971634
1750506130698164000,2.6971640625,-0.02461249940097332,0.013337500393390656,-0.009349999949336052
1750506130707768300,2.706768310546875,-0.00013749999925494194,0.018287500366568565,-0.0448249988257885
1750506130717373000,2.716373046875,0.032862499356269836,0.02681249938905239,-0.06806249916553497
1750506130726977500,2.7259775390625,0.05609999969601631,0.02433750033378601,-0.06077500060200691
1750506130736582100,2.73558203125,0.062150001525878906,0.020624998956918716,-0.04729999974370003
1750506130746186800,2.745186767578125,0.049912501126527786,0.0170499999076128,-0.01677500084042549
1750506130755791400,2.754791259765625,0.027912499383091927,0.015812499448657036,0.01993750035762787
1750506130765396000,2.76439599609375,0.005912499967962503,0.02928750030696392,0.043175000697374344
1750506130775000600,2.77400048828125,-0.007424999959766865,0.030387500301003456,0.05169999971985817
1750506130784605200,2.783605224609375,-0.008662499487400055,0.03657500073313713,0.04427500069141388
1750506130794209800,2.793209716796875,0.0035749999806284904,0.057337500154972076,0.021175000816583633
1750506130803814400,2.802814453125,0.025437500327825546,0.07686249911785126,-0.0008249999955296516
1750506130813419000,2.8124189453125,0.05843750014901161,0.08910000324249268,-0.015537500381469727
1750506130823023600,2.822023681640625,0.07919999957084656,0.0695749968290329,-0.013062499463558197
1750506130832628000,2.8316279296875,0.07315000146627426,0.0340999998152256,-0.01924999989569187
1750506130842232800,2.84123291015625,0.05238749831914902,-0.015949999913573265,-0.04729999974370003
1750506130851837200,2.850837158203125,0.027912499383091927,-0.06599999964237213,-0.07301250100135803
1750506130861441800,2.86044189453125,0.009624999947845936,-0.08071249723434448,-0.1023000031709671
1750506130871046700,2.870046630859375,0.01691249944269657,-0.0611874982714653,-0.12553749978542328
1750506130880651300,2.8796513671875,0.04262499883770943,-0.012374999932944775,-0.12787500023841858
1750506130890256000,2.889255859375,0.07562500238418579,0.028049999848008156,-0.1023000031709671
1750506130899860200,2.898860107421875,0.08896250277757645,0.04633750021457672,-0.05582499876618385
1750506130909464800,2.90846484375,0.07686249911785126,0.045099999755620956,-0.020349999889731407
1750506130919069400,2.9180693359375,0.04386249929666519,0.0193875003606081,-0.010587500408291817
1750506130928674000,2.927674072265625,0.007149999961256981,-0.0013749999925494194,-0.018012499436736107
1750506130938278700,2.937278564453125,-0.011137500405311584,-0.012374999932944775,-0.020349999889731407
1750506130947883500,2.946883544921875,-0.007424999959766865,-0.006187499966472387,-0.007012499962002039
1750506130957488000,2.956488037109375,0.0035749999806284904,0.020624998956918716,0.02474999986588955
1750506130967092700,2.9660927734375,0.010862499475479126,0.04028749838471413,0.057750001549720764
1750506130976697300,2.975697265625,0.002337499987334013,0.032862499356269836,0.06270000338554382
1750506130986302000,2.985302001953125,-0.007424999959766865,0.02186249941587448,0.040699999779462814
1750506130995906300,2.99490625,-0.008662499487400055,0.0010999999940395355,0.01993750035762787
1750506131005511000,3.004510986328125,-0.0038499999791383743,-0.007424999959766865,0.011412499472498894
1750506131015115500,3.014115478515625,-0.0013749999925494194,-0.01718750037252903,0.01993750035762787
1750506131024720100,3.02372021484375,-0.0013749999925494194,-0.015949999913573265,0.02722499892115593
1750506131034324700,3.03332470703125,-0.012374999932944775,-0.008662499487400055,0.03698749840259552
1750506131043929300,3.042929443359375,-0.030662499368190765,-0.002474999986588955,0.05169999971985817
1750506131053534000,3.052533935546875,-0.03684999793767929,0.004812499973922968,0.057750001549720764
1750506131063138600,3.062138671875,-0.03437500074505806,0.037812501192092896,0.060224998742341995
1750506131072743200,3.0717431640625,-0.02461249940097332,0.07081250101327896,0.06875000149011612
1750506131082347800,3.08134765625,-0.008662499487400055,0.07081250101327896,0.07122500240802765
1750506131091952000,3.0909521484375,-0.0013749999925494194,0.04262499883770943,0.06146249920129776
1750506131101556700,3.100556640625,-0.007424999959766865,0.007287499960511923,0.02969999983906746
1750506131111161300,3.110161376953125,-0.008662499487400055,-0.01966249942779541,-0.009349999949336052
1750506131120766000,3.119765869140625,-0.006324999965727329,-0.03671250119805336,-0.04853750020265579
1750506131130370600,3.12937060546875,-0.002612499985843897,-0.03423750028014183,-0.06435000151395798
1750506131139975200,3.13897509765625,0.0010999999940395355,-0.011137500405311584,-0.04977500066161156
1750506131149579800,3.148579833984375,0.004674999974668026,0.02681249938905239,-0.024062499403953552
1750506131159184400,3.158184326171875,0.009624999947845936,0.05238749831914902,-0.0057749999687075615
1750506131168789000,3.1677890625,0.008387500420212746,0.04881250113248825,0.0015124999918043613
1750506131178393600,3.1773935546875,0.002337499987334013,0.002337499987334013,-0.015537500381469727
1750506131187998200,3.186998291015625,-0.00989999994635582,-0.04413750022649765,-0.04853750020265579
1750506131197602800,3.196602783203125,-0.00989999994635582,-0.0611874982714653,-0.07782500237226486
1750506131207207200,3.206207275390625,-0.0013749999925494194,-0.040424998849630356,-0.08511249721050262
1750506131216811800,3.215811767578125,0.010862499475479126,0.002337499987334013,-0.07411249727010727
1750506131226416600,3.225416748046875,0.02433750033378601,0.04262499883770943,-0.05101250112056732
1750506131236021200,3.235021240234375,0.030387500301003456,0.07204999774694443,-0.027775000780820847
1750506131245625900,3.2446259765625,0.03162499889731407,0.09033749997615814,-0.010587500408291817
1750506131255230200,3.254230224609375,0.025437500327825546,0.08910000324249268,-0.004537499975413084
1750506131264834800,3.263834716796875,0.027912499383091927,0.0658624991774559,-0.018012499436736107
1750506131274439400,3.273439453125,0.03162499889731407,0.014574999921023846,-0.05829999968409538
1750506131284044000,3.2830439453125,0.023099999874830246,-0.03918749839067459,-0.11082500219345093
1750506131293648600,3.292648681640625,0.018149999901652336,-0.07218749821186066,-0.15839999914169312
1750506131303253200,3.302253173828125,0.008387500420212746,-0.07590000331401825,-0.17806249856948853
1750506131312857900,3.31185791015625,0.005912499967962503,-0.07466249912977219,-0.16458749771118164
1750506131322462500,3.32146240234375,0.005912499967962503,-0.04895000159740448,-0.13887499272823334
1750506131332067000,3.331067138671875,0.010862499475479126,0.002337499987334013,-0.09377499669790268
1750506131341671400,3.34067138671875,0.010862499475479126,0.04633750021457672,-0.03506249934434891
1750506131351276300,3.3502763671875,0.009624999947845936,0.07686249911785126,0.018699999898672104
1750506131360881000,3.359880859375,0.007149999961256981,0.045099999755620956,0.043175000697374344
1750506131370485200,3.3694853515625,0.0010999999940395355,-0.02213750034570694,0.018699999898672104
1750506131380089900,3.37908984375,-0.00989999994635582,-0.06847500056028366,-0.027775000780820847
1750506131389694700,3.38869482421875,-0.008662499487400055,-0.06971249729394913,-0.06806249916553497
1750506131399299300,3.39829931640625,0.008387500420212746,-0.020899999886751175,-0.08153750002384186
1750506131408904000,3.407904052734375,0.0340999998152256,0.04138749837875366,-0.05829999968409538
1750506131418508500,3.417508544921875,0.04867500066757202,0.06338749825954437,-0.018012499436736107
1750506131428113000,3.42711279296875,0.04262499883770943,0.04262499883770943,0.005224999971687794
1750506131437717500,3.436717529296875,0.015675000846385956,0.0010999999940395355,-0.0008249999955296516
1750506131447322000,3.446322021484375,-0.012374999932944775,-0.037950001657009125,-0.029012499377131462
1750506131456926500,3.455926513671875,-0.030662499368190765,-0.07095000147819519,-0.05458749830722809
1750506131466531300,3.46553125,-0.03437500074505806,-0.07466249912977219,-0.0705375000834465
1750506131476136000,3.475135986328125,-0.025849999859929085,-0.04413750022649765,-0.07411249727010727
1750506131485740500,3.484740478515625,-0.01732499897480011,-0.00013749999925494194,-0.08387500047683716
1750506131495345200,3.49434521484375,-0.008662499487400055,0.037812501192092896,-0.10587500035762787
1750506131504949800,3.50394970703125,-0.007424999959766865,0.05004999786615372,-0.10958749800920486
1750506131514554400,3.513554443359375,-0.016087500378489494,0.05609999969601631,-0.08758749812841415
1750506131524159000,3.523158935546875,-0.03189999982714653,0.09157499670982361,-0.03753750026226044
1750506131533763600,3.532763671875,-0.05389999970793724,0.14162500202655792,0.02969999983906746
1750506131543368000,3.542367919921875,-0.08084999769926071,0.22110000252723694,0.11522500216960907
1750506131552972500,3.55197265625,-0.10766249895095825,0.30896249413490295,0.2508000135421753
1750506131562577200,3.5615771484375,-0.11495000123977661,0.3969624936580658,0.4291374981403351
1750506131572182000,3.57118212890625,-0.10037499666213989,0.4629625082015991,0.6612374782562256
1750506131581786600,3.58078662109375,-0.08689999580383301,0.5667750239372253,0.9618124961853027
1750506131591391200,3.59039111328125,-0.033137500286102295,0.7891125082969666,1.3576749563217163
1750506131600995600,3.59999560546875,0.02186249941587448,1.0261625051498413,1.917162537574768
1750506131610600200,3.60960009765625,0.04867500066757202,1.3340250253677368,2.6233625411987305
1750506131620204800,3.619204833984375,0.0976250022649765,1.644362449645996,3.451662540435791
1750506131629809400,3.628809326171875,0.19043749570846558,1.7591749429702759,4.35696268081665
1750506131639414000,3.6384140625,0.3137750029563904,1.6785999536514282,5.218262672424316
1750506131649018400,3.648018310546875,0.29067498445510864,1.101925015449524,5.816937446594238
1750506131658623000,3.657623046875,0.14272500574588776,0.29919999837875366,6.002562522888184
1750506131668227600,3.6672275390625,0.01209999993443489,-0.48262500762939453,5.98675012588501
1750506131677832400,3.67683251953125,-0.0906125009059906,-1.3231624364852905,5.952512264251709
1750506131687437000,3.68643701171875,-0.06737499684095383,-1.8961249589920044,5.898749828338623
1750506131697041700,3.696041748046875,-0.008662499487400055,-2.210175037384033,5.907275199890137
1750506131706646300,3.705646240234375,-0.033137500286102295,-2.3091750144958496,5.8474626541137695
1750506131716251000,3.7152509765625,-0.11495000123977661,-2.100174903869629,5.5738372802734375
1750506131725855200,3.724855224609375,-0.23718750476837158,-1.6554999351501465,5.136449813842773
1750506131735460000,3.734460205078125,-0.27994999289512634,-1.0630124807357788,4.612299919128418
1750506131745064400,3.744064453125,-0.19071249663829803,-0.4545750021934509,4.13462495803833
1750506131754669000,3.7536689453125,-0.07837499678134918,-0.07823749631643295,3.667949914932251
1750506131764273700,3.763273681640625,-0.011137500405311584,-0.007424999959766865,3.081512451171875
1750506131773878300,3.772878173828125,0.014574999921023846,-0.1882375031709671,2.371737480163574
1750506131783483000,3.78248291015625,0.03162499889731407,-0.5205749869346619,1.5922499895095825
1750506131793087500,3.79208740234375,0.0658624991774559,-0.8529124855995178,0.8335250020027161
1750506131802692000,3.801692138671875,0.12086249887943268,-1.0642499923706055,0.1714625060558319
1750506131812296700,3.811296630859375,0.16596250236034393,-1.131350040435791,-0.39544999599456787
1750506131821901000,3.820901123046875,0.20996250212192535,-1.0690624713897705,-0.8915500044822693
1750506131831505700,3.830505615234375,0.2857249975204468,-0.8577250242233276,-1.3325124979019165
1750506131841110500,3.840110595703125,0.41029998660087585,-0.4923875033855438,-1.7186124324798584
1750506131850715100,3.849715087890625,0.5570124983787537,-0.10271249711513519,-1.9849499464035034
1750506131860319500,3.859319580078125,0.6595875024795532,0.15015000104904175,-2.1290500164031982
1750506131869924000,3.868924072265625,0.7231125235557556,0.27719998359680176,-2.258574962615967
1750506131879528700,3.87852880859375,0.7719249725341797,0.2516250014305115,-2.467437505722046
1750506131889133300,3.88813330078125,0.7988749742507935,0.12815000116825104,-2.768012523651123
1750506131898738000,3.897738037109375,0.8281624913215637,0.04633750021457672,-3.0893499851226807
1750506131908342500,3.907342529296875,0.865975022315979,0.006049999967217445,-3.342212438583374
1750506131917947100,3.916947021484375,0.909974992275238,0.020624998956918716,-3.5072124004364014
1750506131927551700,3.9265517578125,0.8929250240325928,-0.055137500166893005,-3.5767874717712402
1750506131937156000,3.936156005859375,0.8001124858856201,-0.26881250739097595,-3.5767874717712402
1750506131946761000,3.945760986328125,0.7011125087738037,-0.443574994802475,-3.5364999771118164
1750506131956365600,3.955365478515625,0.6351125240325928,-0.49857500195503235,-3.460737466812134
1750506131965970200,3.96497021484375,0.6448749899864197,-0.3385249972343445,-3.3739750385284424
1750506131975574500,3.974574462890625,0.757349967956543,-0.040424998849630356,-3.2139248847961426
1750506131985179100,3.98417919921875,0.8159250020980835,0.0658624991774559,-2.9512999057769775
1750506131994783700,3.99378369140625,0.8001124858856201,0.06710000336170197,-2.714250087738037
1750506132004388400,4.003388427734375,0.7291625142097473,0.02681249938905239,-2.5664374828338623
1750506132013993000,4.012992919921875,0.6131125092506409,-0.02447500079870224,-2.506624937057495
1750506132023597600,4.02259765625,0.5227749943733215,0.04138749837875366,-2.534674882888794
1750506132033202200,4.0322021484375,0.47753748297691345,0.17338749766349792,-2.5016748905181885
1750506132042806800,4.041806884765625,0.4127750098705292,0.22714999318122864,-2.284287452697754
1750506132052411100,4.0514111328125,0.36024999618530273,0.2626250088214874,-1.9274749755859375
1750506132062016000,4.06101611328125,0.29548749327659607,0.23691250383853912,-1.5328500270843506
1750506132071620600,4.07062060546875,0.18438750505447388,0.20514999330043793,-1.2335125207901
1750506132081225200,4.08022509765625,0.04633750021457672,0.24667499959468842,-1.119937539100647
1750506132090829600,4.08982958984375,-0.06737499684095383,0.381012499332428,-1.1479874849319458
1750506132100434200,4.09943408203125,-0.10271249711513519,0.5717250108718872,-1.2189375162124634
1750506132110038800,4.109038818359375,-0.04413750022649765,0.730537474155426,-1.2066999673843384
1750506132119643400,4.118643310546875,0.020624998956918716,0.7255874872207642,-1.024649977684021
1750506132129248000,4.128248046875,0.010862499475479126,0.6155874729156494,-0.7607874870300293
1750506132138852600,4.1378525390625,-0.08195000141859055,0.5435374975204468,-0.5627874732017517
1750506132148457200,4.147457275390625,-0.2237125039100647,0.5300624966621399,-0.4797374904155731
1750506132158061800,4.157061767578125,-0.34952500462532043,0.5142499804496765,-0.45045000314712524
1750506132167666200,4.166666259765625,-0.42899999022483826,0.42996248602867126,-0.4113999903202057
1750506132177271000,4.17627099609375,-0.4655750095844269,0.37248748540878296,-0.38087499141693115
1750506132186875600,4.185875732421875,-0.48399999737739563,0.3431999981403351,-0.3478749990463257
1750506132196480000,4.19547998046875,-0.4998124837875366,0.32848748564720154,-0.3209249973297119
1750506132206084900,4.2050849609375,-0.49004998803138733,0.34814998507499695,-0.31735000014305115
1750506132215689500,4.214689453125,-0.4558124840259552,0.38967499136924744,-0.32711249589920044
1750506132225293800,4.2242939453125,-0.353237509727478,0.48372501134872437,-0.3086875081062317
1750506132234898700,4.233898681640625,-0.23594999313354492,0.4604874849319458,-0.17434999346733093
1750506132244503300,4.24350341796875,-0.1601874977350235,0.41401249170303345,-0.04606249928474426
1750506132254107600,4.253107666015625,-0.1284250020980835,0.45801249146461487,-0.014299999922513962
1750506132263712300,4.262712158203125,-0.1321374922990799,0.45925000309944153,-0.05211250111460686
1750506132273316900,4.27231689453125,-0.1381874978542328,0.37248748540878296,-0.1120624989271164
1750506132282921500,4.28192138671875,-0.1284250020980835,0.23567499220371246,-0.1498750001192093
1750506132292526000,4.291526123046875,-0.11495000123977661,0.10381250083446503,-0.147537499666214
1750506132302130700,4.301130615234375,-0.11013749986886978,0.006049999967217445,-0.12058749794960022
1750506132311735300,4.3107353515625,-0.10642500221729279,-0.045237500220537186,-0.11687500029802322
1750506132321340000,4.32033984375,-0.07095000147819519,-0.07218749821186066,-0.12430000305175781
1750506132330944500,4.329944580078125,-0.02461249940097332,-0.10395000129938126,-0.10106249898672104
1750506132340549400,4.33954931640625,0.01209999993443489,-0.10023749619722366,-0.07301250100135803
1750506132350153500,4.349153564453125,0.0193875003606081,-0.0611874982714653,-0.04853750020265579
1750506132359758300,4.35875830078125,0.007149999961256981,0.002337499987334013,-0.025299999862909317
1750506132369363000,4.368363037109375,-0.0038499999791383743,0.04262499883770943,-0.0057749999687075615
1750506132378967600,4.377967529296875,-0.007424999959766865,0.06338749825954437,0.003987499978393316
1750506132388572200,4.387572265625,-0.002612499985843897,0.07686249911785126,0.013749999925494194
1750506132398176800,4.3971767578125,0.013337500393390656,0.062150001525878906,0.02969999983906746
1750506132407781400,4.406781494140625,0.008387500420212746,0.01209999993443489,0.04193750023841858
1750506132417386000,4.416385986328125,-0.01732499897480011,-0.06366249918937683,0.035750001668930054
1750506132426990300,4.425990234375,-0.052662499248981476,-0.11976250261068344,0.014987500384449959
1750506132436595000,4.435594970703125,-0.08442500233650208,-0.13323749601840973,0.008937500417232513
1750506132446199600,4.445199462890625,-0.0929500013589859,-0.0989999994635582,0.03946249932050705
1750506132455804400,4.454804443359375,-0.09171249717473984,-0.02694999985396862,0.08703749626874924
1750506132465408800,4.46440869140625,-0.07961250096559525,0.045099999755620956,0.12622499465942383
1750506132475013400,4.474013427734375,-0.07713750004768372,0.10381250083446503,0.13722500205039978
1750506132484618000,4.483617919921875,-0.08195000141859055,0.12457499653100967,0.1237500011920929
1750506132494222600,4.49322265625,-0.08689999580383301,0.10381250083446503,0.09322500228881836
1750506132503827200,4.5028271484375,-0.07961250096559525,0.0658624991774559,0.04427500069141388
1750506132513431800,4.512431884765625,-0.059950001537799835,0.0035749999806284904,-0.018012499436736107
1750506132523036200,4.5220361328125,-0.03918749839067459,-0.07823749631643295,-0.07535000145435333
1750506132532641000,4.53164111328125,-0.02461249940097332,-0.1307625025510788,-0.12058749794960022
1750506132542245400,4.541245361328125,-0.02461249940097332,-0.10766249895095825,-0.12182500213384628
1750506132551850000,4.55085009765625,-0.03684999793767929,-0.028187500312924385,-0.05829999968409538
1750506132561454600,4.56045458984375,-0.04166249930858612,0.07686249911785126,0.025987500324845314
1750506132571059200,4.57005908203125,-0.04166249930858612,0.12691250443458557,0.08951249718666077
1750506132580663800,4.579663818359375,-0.04661250114440918,0.1256749927997589,0.10298749804496765
1750506132590268400,4.589268310546875,-0.045375000685453415,0.08304999768733978,0.08346249908208847
1750506132599873000,4.598873046875,-0.038087498396635056,0.028049999848008156,0.056512501090765
1750506132609477600,4.6084775390625,-0.029424998909235,-0.0013749999925494194,0.02969999983906746
1750506132619082200,4.618082275390625,-0.013612499460577965,-0.00013749999925494194,0.013749999925494194
1750506132628686800,4.627686767578125,0.0010999999940395355,-0.00013749999925494194,0.002749999985098839
1750506132638291500,4.63729150390625,0.007149999961256981,-0.011137500405311584,-0.010587500408291817
1750506132647895800,4.646895751953125,0.002337499987334013,-0.002474999986588955,-0.021587500348687172
1750506132657500400,4.65650048828125,-0.007424999959766865,0.0010999999940395355,-0.026537500321865082
1750506132667105000,4.66610498046875,-0.007424999959766865,0.025575000792741776,-0.03135000169277191
1750506132676709600,4.675709716796875,-0.005087499972432852,0.03904999792575836,-0.03506249934434891
1750506132686314200,4.685314208984375,0.004674999974668026,0.05857500061392784,-0.03382499888539314
1750506132695918800,4.6949189453125,0.018149999901652336,0.05857500061392784,-0.024062499403953552
1750506132705523500,4.7045234375,0.027912499383091927,0.04881250113248825,-0.03135000169277191
1750506132715128000,4.714128173828125,0.023099999874830246,0.023099999874830246,-0.0411125011742115
1750506132724732700,4.723732666015625,0.007149999961256981,-0.0013749999925494194,-0.04606249928474426
1750506132734337300,4.733337158203125,-0.008662499487400055,-0.00989999994635582,-0.04853750020265579
1750506132743942000,4.74294189453125,-0.01966249942779541,0.009624999947845936,-0.03629999980330467
1750506132753546500,4.75254638671875,-0.020899999886751175,0.045099999755620956,-0.0032999999821186066
1750506132763151000,4.762151123046875,-0.011137500405311584,0.08910000324249268,0.03698749840259552
1750506132772755500,4.77175537109375,-0.0013749999925494194,0.09033749997615814,0.06270000338554382
1750506132782360000,4.781360107421875,-0.0013749999925494194,0.05004999786615372,0.052937500178813934
1750506132791964700,4.790964599609375,-0.008662499487400055,-0.002474999986588955,0.02241249941289425
1750506132801569300,4.8005693359375,-0.01732499897480011,-0.050187498331069946,-0.0057749999687075615
1750506132811174000,4.810173828125,-0.023375000804662704,-0.059950001537799835,-0.020349999889731407
1750506132820778500,4.819778564453125,-0.016087500378489494,-0.04647500067949295,-0.022824998944997787
1750506132830383000,4.829383056640625,-0.0038499999791383743,-0.018424998968839645,-0.015537500381469727
1750506132839987700,4.83898779296875,0.005912499967962503,0.013337500393390656,0.007699999958276749
1750506132849592300,4.84859228515625,0.005912499967962503,0.04633750021457672,0.03451250120997429
1750506132859197000,4.858197021484375,-0.00013749999925494194,0.0658624991774559,0.050462499260902405
1750506132868801500,4.867801513671875,-0.002612499985843897,0.06710000336170197,0.04675000160932541
1750506132878406100,4.87740625,0.009624999947845936,0.04633750021457672,0.02722499892115593
1750506132888010800,4.8870107421875,0.020624998956918716,0.009624999947845936,-0.0008249999955296516
1750506132897615000,4.896614990234375,0.02914999984204769,-0.023237500339746475,-0.03629999980330467
1750506132907219700,4.9062197265625,0.02914999984204769,-0.04413750022649765,-0.06806249916553497
1750506132916824300,4.91582421875,0.02433750033378601,-0.05142499879002571,-0.07782500237226486
1750506132926429000,4.925428955078125,0.015675000846385956,-0.040424998849630356,-0.0765874981880188
1750506132936033500,4.935033447265625,0.013337500393390656,-0.011137500405311584,-0.06311249732971191
1750506132945638100,4.94463818359375,0.020624998956918716,0.020624998956918716,-0.03382499888539314
1750506132955242800,4.95424267578125,0.02433750033378601,0.05857500061392784,-0.0057749999687075615
1750506132964847400,4.963847412109375,0.02667500078678131,0.08910000324249268,0.02241249941289425
1750506132974452000,4.973451904296875,0.030387500301003456,0.07438749819993973,0.043175000697374344
1750506132984056600,4.983056640625,0.030387500301003456,0.02433750033378601,0.03946249932050705
1750506132993661200,4.9926611328125,0.025437500327825546,-0.03918749839067459,0.014987500384449959
1750506133003265800,5.002265869140625,0.01209999993443489,-0.08195000141859055,-0.0057749999687075615
1750506133012870100,5.0118701171875,0.002337499987334013,-0.0989999994635582,-0.01924999989569187
1750506133022474800,5.021474853515625,-0.002612499985843897,-0.07095000147819519,-0.021587500348687172
1750506133032079400,5.031079345703125,0.0035749999806284904,-0.02694999985396862,-0.013062499463558197
1750506133041684000,5.04068408203125,0.013337500393390656,0.010862499475479126,-0.0008249999955296516
1750506133051288600,5.05028857421875,0.018149999901652336,0.057337500154972076,0.013749999925494194
1750506133060893200,5.05989306640625,0.02186249941587448,0.06833750009536743,0.03451250120997429
1750506133070497800,5.069497802734375,0.02433750033378601,0.05238749831914902,0.03217500075697899
1750506133080102400,5.079102294921875,0.01691249944269657,0.028049999848008156,0.01993750035762787
1750506133089707300,5.088707275390625,0.009624999947845936,-0.020899999886751175,-0.002062499988824129
1750506133099311600,5.0983115234375,0.007149999961256981,-0.04413750022649765,-0.03258749842643738
1750506133108916200,5.107916259765625,0.005912499967962503,-0.04166249930858612,-0.05335000157356262
1750506133118520600,5.1175205078125,0.002337499987334013,-0.02447500079870224,-0.05335000157356262
1750506133128125400,5.12712548828125,-0.0013749999925494194,-0.0013749999925494194,-0.04001250118017197
1750506133137730000,5.13672998046875,0.0010999999940395355,0.0170499999076128,-0.025299999862909317
1750506133147334700,5.146334716796875,0.004674999974668026,0.010862499475479126,-0.011824999935925007
1750506133156939300,5.155939208984375,0.013337500393390656,-0.007424999959766865,-0.009349999949336052
1750506133166544000,5.1655439453125,0.02186249941587448,-0.00494999997317791,-0.002062499988824129
1750506133176148500,5.1751484375,0.030387500301003456,0.010862499475479126,0.011412499472498894
1750506133185753000,5.184753173828125,0.035337500274181366,0.047575000673532486,0.02722499892115593
1750506133195357400,5.194357421875,0.030387500301003456,0.05609999969601631,0.033275000751018524
1750506133204962000,5.203962158203125,0.02186249941587448,0.05004999786615372,0.014987500384449959
1750506133214566700,5.213566650390625,0.020624998956918716,0.01209999993443489,-0.002062499988824129
1750506133224171300,5.223171142578125,0.013337500393390656,-0.02447500079870224,-0.021587500348687172
1750506133233775900,5.23277587890625,0.007149999961256981,-0.028187500312924385,-0.024062499403953552
1750506133243380500,5.24238037109375,0.004674999974668026,-0.00494999997317791,-0.0057749999687075615
1750506133252985000,5.251985107421875,0.004674999974668026,0.0340999998152256,0.013749999925494194
1750506133262589700,5.261589599609375,0.005912499967962503,0.037812501192092896,0.005224999971687794
1750506133272194300,5.2711943359375,0.007149999961256981,0.020624998956918716,-0.020349999889731407
1750506133281799000,5.280798828125,0.007149999961256981,0.0085249999538064,-0.04729999974370003
1750506133291403500,5.290403564453125,0.008387500420212746,0.0170499999076128,-0.06558749824762344
1750506133301008100,5.300008056640625,0.009624999947845936,0.05004999786615372,-0.06201250106096268
1750506133310612700,5.30961279296875,0.008387500420212746,0.062150001525878906,-0.05101250112056732
1750506133320217300,5.31921728515625,-0.00013749999925494194,0.04881250113248825,-0.05706249922513962
1750506133329822000,5.328822021484375,-0.011137500405311584,0.015812499448657036,-0.08030000329017639
1750506133339426600,5.338426513671875,-0.02213750034570694,-0.02213750034570694,-0.11082500219345093
1750506133349031200,5.34803125,-0.03684999793767929,-0.03918749839067459,-0.13763749599456787
1750506133358635800,5.3576357421875,-0.052662499248981476,-0.033137500286102295,-0.16458749771118164
1750506133368240000,5.367240234375,-0.07218749821186066,-0.00013749999925494194,-0.18658749759197235
1750506133377844700,5.3768447265625,-0.08566249907016754,0.04633750021457672,-0.2110625058412552
1750506133387449300,5.386449462890625,-0.09542500227689743,0.09515000134706497,-0.24034999310970306
1750506133397054000,5.396053955078125,-0.10889999568462372,0.15262499451637268,-0.283112496137619
1750506133406658600,5.405658447265625,-0.12718750536441803,0.2381500005722046,-0.3502124845981598
1750506133416263200,5.41526318359375,-0.13942499458789825,0.34814998507499695,-0.37097498774528503
1750506133425867800,5.42486767578125,-0.16871249675750732,0.4446749985218048,-0.28792500495910645
1750506133435472400,5.434472412109375,-0.19071249663829803,0.559487521648407,-0.13282500207424164
1750506133445077000,5.444076904296875,-0.19318750500679016,0.5802500247955322,0.06998749822378159
1750506133454681600,5.453681640625,-0.18095000088214874,0.5667750239372253,0.24598750472068787
1750506133464286000,5.463285888671875,-0.1639000028371811,0.564300000667572,0.41456249356269836
1750506133473890600,5.472890625,-0.13942499458789825,0.6022499799728394,0.6514750123023987
1750506133483495200,5.4824951171875,-0.09418749809265137,0.7536374926567078,1.0742875337600708
1750506133493099800,5.492099853515625,-0.050187498331069946,0.9981124997138977,1.8671125173568726
1750506133502704400,5.501704345703125,-0.016087500378489494,1.1642124652862549,2.9935123920440674
1750506133512309000,5.51130908203125,-0.002612499985843897,1.1800249814987183,4.24943733215332
1750506133521913600,5.52091357421875,-0.008662499487400055,0.9882124662399292,5.2195000648498535
1750506133531518200,5.530518310546875,-0.15771250426769257,0.7623000144958496,5.5860748291015625
1750506133541122800,5.540122802734375,-0.3777124881744385,0.28338751196861267,5.529837608337402
1750506133550727400,5.5497275390625,-0.510812520980835,-0.2932874858379364,5.289074897766113
1750506133560332000,5.55933203125,-0.46681249141693115,-0.598675012588501,5.0826873779296875
1750506133569936600,5.5689365234375,-0.38376250863075256,-0.8967750072479248,5.086400032043457
1750506133579541000,5.578541015625,-0.28476250171661377,-1.0555875301361084,5.133975028991699
1750506133589145600,5.5881455078125,-0.2139499932527542,-1.1350624561309814,5.1499247550964355
1750506133598750200,5.597750244140625,-0.233474999666214,-1.473449945449829,5.100975036621094
1750506133608354800,5.607354736328125,-0.2994749844074249,-1.8363125324249268,4.882349967956543
1750506133617959400,5.61695947265625,-0.3922874927520752,-2.000075101852417,4.498724937438965
1750506133627564000,5.62656396484375,-0.4729999899864197,-1.9438375234603882,4.024624824523926
1750506133637168600,5.636168701171875,-0.47657498717308044,-1.6664999723434448,3.5506625175476074
1750506133646773200,5.645773193359375,-0.4020499885082245,-1.2205874919891357,3.1279873847961426
1750506133656377600,5.655377685546875,-0.2909500002861023,-0.7159624695777893,2.795650005340576
1750506133665982200,5.664982177734375,-0.22495000064373016,-0.4081000089645386,2.5525500774383545
1750506133675587000,5.674587158203125,-0.21147499978542328,-0.38733750581741333,2.287450075149536
1750506133685191700,5.684191650390625,-0.20047499239444733,-0.5328124761581421,1.9221124649047852
1750506133694796000,5.693796142578125,-0.18947499990463257,-0.7294374704360962,1.479912519454956
1750506133704400600,5.703400634765625,-0.1662375032901764,-0.8394374847412109,1.0070500373840332
1750506133714005200,5.713005126953125,-0.11990000307559967,-0.8002499938011169,0.5611374974250793
1750506133723609900,5.72260986328125,-0.06984999775886536,-0.6488624811172485,0.1592250019311905
1750506133733214500,5.73221435546875,-0.029424998909235,-0.443574994802475,-0.22192500531673431
1750506133742819000,5.741819091796875,-0.005087499972432852,-0.2517625093460083,-0.6190249919891357
1750506133752423400,5.75142333984375,0.01691249944269657,-0.10147500038146973,-1.0515999794006348
1750506133762028300,5.7610283203125,0.05486249923706055,0.006049999967217445,-1.5060374736785889
1750506133771632600,5.770632568359375,0.12086249887943268,0.11481250077486038,-1.9164749383926392
1750506133781237200,5.7802373046875,0.202674999833107,0.21986250579357147,-2.2328624725341797
1750506133790841900,5.789841796875,0.2917749881744385,0.35420000553131104,-2.5016748905181885
1750506133800446500,5.799446533203125,0.41029998660087585,0.5422999858856201,-2.781487464904785
1750506133810051000,5.809051025390625,0.5447750091552734,0.7317749857902527,-3.127162456512451
1750506133819655700,5.81865576171875,0.6448749899864197,0.7818250060081482,-3.5230250358581543
1750506133829260300,5.82826025390625,0.7108749747276306,0.6242499947547913,-3.9506499767303467
1750506133838865000,5.837864990234375,0.7378249764442444,0.4092000126838684,-4.383087635040283
1750506133848469500,5.847469482421875,0.7011125087738037,0.17833749949932098,-4.742374897003174
1750506133858073900,5.857073974609375,0.6558749675750732,0.009624999947845936,-5.019712448120117
1750506133867678500,5.866678466796875,0.6863999962806702,0.02928750030696392,-5.152812480926514
1750506133877283000,5.876282958984375,0.7463499903678894,0.1648624986410141,-5.081999778747559
1750506133886887700,5.8858876953125,0.8758749961853027,0.38225001096725464,-4.817999839782715
1750506133896492300,5.8954921875,1.044450044631958,0.5827249884605408,-4.395325183868408
1750506133906097000,5.905096923828125,1.1140249967575073,0.6168249845504761,-3.9359374046325684
1750506133915701500,5.914701416015625,1.111549973487854,0.5740625262260437,-3.5890250205993652
1750506133925306000,5.92430615234375,1.0089750289916992,0.4824874997138977,-3.3483998775482178
1750506133934910700,5.93391064453125,0.8232125043869019,0.33467498421669006,-3.139400005340576
1750506133944515300,5.943515380859375,0.6118749976158142,0.15757499635219574,-2.8804874420166016
1750506133954119700,5.95311962890625,0.3749625086784363,-0.08071249723434448,-2.546912431716919
1750506133963724300,5.962724365234375,0.21367499232292175,-0.2554749846458435,-2.2097625732421875
1750506133973329000,5.972328857421875,0.1891999989748001,-0.2700499892234802,-1.8554250001907349
1750506133982933800,5.981933837890625,0.24901250004768372,-0.14794999361038208,-1.436324954032898
1750506133992538000,5.9915380859375,0.3125374913215637,0.04881250113248825,-0.980650007724762
1750506134002143000,6.00114306640625,0.306487500667572,0.2796750068664551,-0.5787374973297119
1750506134011747300,6.010747314453125,0.21848750114440918,0.44948750734329224,-0.30992498993873596
1750506134021352000,6.02035205078125,0.11096250265836716,0.5130124688148499,-0.18906250596046448
1750506134030956500,6.02995654296875,0.032862499356269836,0.4665375053882599,-0.16458749771118164
1750506134040561200,6.03956103515625,-0.002612499985843897,0.3199625015258789,-0.13887499272823334
1750506134050165800,6.049165771484375,-0.018424998968839645,0.15386250615119934,-0.06311249732971191
1750506134059770400,6.058770263671875,-0.038087498396635056,0.030387500301003456,0.02969999983906746
1750506134069375000,6.068375,-0.07342500239610672,-0.07823749631643295,0.09927500039339066
1750506134078979300,6.077979248046875,-0.1223749965429306,-0.16142499446868896,0.12251249700784683
1750506134088584200,6.087584228515625,-0.14918750524520874,-0.16747500002384186,0.10903749614953995
1750506134098188500,6.0971884765625,-0.1284250020980835,-0.08923749625682831,0.09446249902248383
1750506134107793200,6.106793212890625,-0.0648999959230423,0.03904999792575836,0.10546249896287918
1750506134117397800,6.116397705078125,0.0035749999806284904,0.1611499935388565,0.1518000066280365
1750506134127002400,6.12600244140625,0.0364375002682209,0.2283875048160553,0.2032250016927719
1750506134136607000,6.13560693359375,0.02186249941587448,0.21615000069141388,0.23608750104904175
1750506134146211600,6.145211669921875,-0.01966249942779541,0.12333749979734421,0.21779999136924744
1750506134155816200,6.154816162109375,-0.06861250102519989,0.0193875003606081,0.142037495970726
1750506134165420800,6.1644208984375,-0.0929500013589859,-0.045237500220537186,0.05898749828338623
1750506134175025200,6.174025146484375,-0.08566249907016754,-0.05142499879002571,0.011412499472498894
1750506134184630000,6.183630126953125,-0.06613750010728836,0.007287499960511923,0.0004124999977648258
1750506134194234400,6.193234375,-0.029424998909235,0.05609999969601631,-0.007012499962002039
1750506134203839000,6.2028388671875,-0.005087499972432852,0.062150001525878906,-0.027775000780820847
1750506134213443300,6.212443359375,-0.00013749999925494194,0.04881250113248825,-0.05101250112056732
1750506134223048200,6.222048095703125,-0.011137500405311584,0.030387500301003456,-0.06201250106096268
1750506134232652800,6.23165283203125,-0.01966249942779541,0.0340999998152256,-0.04977500066161156
1750506134242257400,6.24125732421875,-0.01966249942779541,0.04138749837875366,-0.01924999989569187
1750506134251862000,6.250862060546875,-0.020899999886751175,0.05486249923706055,0.016224998980760574
1750506134261466400,6.26046630859375,-0.01484999991953373,0.030387500301003456,0.03698749840259552
1750506134271071000,6.270071044921875,-0.008662499487400055,-0.020899999886751175,0.023512499406933784
1750506134280675600,6.279675537109375,-0.005087499972432852,-0.07218749821186066,-0.015537500381469727
1750506134290280200,6.2892802734375,-0.008662499487400055,-0.08442500233650208,-0.04853750020265579
1750506134299884500,6.298884521484375,-0.005087499972432852,-0.050187498331069946,-0.05458749830722809
1750506134309489400,6.308489501953125,0.008387500420212746,0.025575000792741776,-0.025299999862909317
1750506134319094000,6.318093994140625,0.02186249941587448,0.10009999573230743,0.02969999983906746
1750506134328698400,6.327698486328125,0.02667500078678131,0.14038750529289246,0.08703749626874924
1750506134338303200,6.33730322265625,0.01209999993443489,0.11233749985694885,0.1237500011920929
1750506134347907800,6.346907958984375,-0.013612499460577965,0.037812501192092896,0.12251249700784683
1750506134357512400,6.356512451171875,-0.038087498396635056,-0.045237500220537186,0.09075000137090683
1750506134367116800,6.36611669921875,-0.04413750022649765,-0.10271249711513519,0.04922499880194664
1750506134376721400,6.375721435546875,-0.03684999793767929,-0.11866249889135361,0.016224998980760574
1750506134386326000,6.385325927734375,-0.01966249942779541,-0.09542500227689743,-0.0032999999821186066
1750506134395930600,6.3949306640625,-0.0013749999925494194,-0.042899999767541885,0.010174999944865704
1750506134405535500,6.404535400390625,0.009624999947845936,-0.007424999959766865,0.04193750023841858
1750506134415139800,6.414139892578125,-0.00013749999925494194,0.004812499973922968,0.055275000631809235
1750506134424744400,6.423744384765625,-0.02461249940097332,-0.007424999959766865,0.038224998861551285
1750506134434349000,6.43334912109375,-0.052662499248981476,-0.035475000739097595,0.006462499964982271
1750506134443953700,6.44295361328125,-0.06984999775886536,-0.04647500067949295,-0.027775000780820847
1750506134453558300,6.452558349609375,-0.06366249918937683,-0.04647500067949295,-0.05101250112056732
1750506134463162600,6.46216259765625,-0.04413750022649765,-0.045237500220537186,-0.05829999968409538
1750506134472767500,6.471767578125,-0.02461249940097332,-0.015949999913573265,-0.06806249916553497
1750506134482371800,6.481371826171875,-0.0038499999791383743,0.0170499999076128,-0.08030000329017639
1750506134491976400,6.4909765625,0.009624999947845936,0.037812501192092896,-0.10106249898672104
1750506134501581000,6.5005810546875,0.020624998956918716,0.05115000158548355,-0.11935000121593475
1750506134511185700,6.510185546875,0.03162499889731407,0.0340999998152256,-0.11453749984502792
1750506134520790300,6.519790283203125,0.025437500327825546,0.004812499973922968,-0.09735000133514404
1750506134530395000,6.529394775390625,0.01691249944269657,0.006049999967217445,-0.07906249910593033
1750506134539999500,6.53899951171875,0.014574999921023846,0.03904999792575836,-0.05706249922513962
1750506134549604000,6.54860400390625,0.01691249944269657,0.0658624991774559,-0.027775000780820847
1750506134559208700,6.558208740234375,0.020624998956918716,0.07562500238418579,-0.0032999999821186066
1750506134568813000,6.56781298828125,0.023099999874830246,0.035337500274181366,0.002749999985098839
1750506134578417700,6.577417724609375,0.02433750033378601,-0.04413750022649765,-0.014299999922513962
1750506134588022300,6.587022216796875,0.020624998956918716,-0.10271249711513519,-0.03753750026226044
1750506134597627000,6.596626953125,0.014574999921023846,-0.11247500032186508,-0.04001250118017197
1750506134607231500,6.6062314453125,0.010862499475479126,-0.07095000147819519,-0.009349999949336052
1750506134616835800,6.6158359375,0.01691249944269657,-0.00989999994635582,0.035750001668930054
1750506134626440700,6.625440673828125,0.018149999901652336,0.02928750030696392,0.06751249730587006
1750506134636045300,6.63504541015625,0.013337500393390656,0.06710000336170197,0.06146249920129776
1750506134645650000,6.64464990234375,0.01209999993443489,0.08057499676942825,0.033275000751018524
1750506134655254300,6.654254150390625,0.014574999921023846,0.06710000336170197,0.016224998980760574
1750506134664859000,6.66385888671875,0.01691249944269657,0.04028749838471413,0.021175000816583633
1750506134674463500,6.67346337890625,0.014574999921023846,-0.01347499992698431,0.014987500384449959
1750506134684068000,6.683068115234375,0.007149999961256981,-0.0611874982714653,-0.014299999922513962
1750506134693672700,6.692672607421875,0.0010999999940395355,-0.08442500233650208,-0.05101250112056732
1750506134703277300,6.70227734375,-0.0013749999925494194,-0.08799999952316284,-0.08511249721050262
1750506134712881700,6.711881591796875,0.009624999947845936,-0.08071249723434448,-0.09006249904632568
1750506134722486300,6.721486328125,0.02186249941587448,-0.037950001657009125,-0.06311249732971191
1750506134732091000,6.7310908203125,0.02914999984204769,0.025575000792741776,-0.014299999922513962
1750506134741695500,6.740695556640625,0.025437500327825546,0.08910000324249268,0.030937500298023224
1750506134751300000,6.750300048828125,0.015675000846385956,0.12209999561309814,0.06270000338554382
1750506134760904700,6.75990478515625,0.005912499967962503,0.08304999768733978,0.06270000338554382
1750506134770509000,6.769509033203125,-0.002612499985843897,-0.00013749999925494194,0.02474999986588955
1750506134780114000,6.779114013671875,-0.006324999965727329,-0.08071249723434448,-0.03135000169277191
1750506134789718500,6.788718505859375,-0.0038499999791383743,-0.14423750340938568,-0.07301250100135803
1750506134799323000,6.798322998046875,-0.002612499985843897,-0.14300000667572021,-0.09487500041723251
1750506134808927500,6.807927490234375,-0.0013749999925494194,-0.09047500044107437,-0.07782500237226486
1750506134818532000,6.817531982421875,-0.0038499999791383743,-0.012374999932944775,-0.029012499377131462
1750506134828136400,6.827136474609375,-0.007424999959766865,0.08538749814033508,0.02969999983906746
1750506134837741000,6.836740966796875,-0.008662499487400055,0.14409999549388885,0.07246249914169312
1750506134847345700,6.846345703125,-0.008662499487400055,0.13667500019073486,0.07603749632835388
1750506134856950500,6.855950439453125,-0.005087499972432852,0.07204999774694443,0.03217500075697899
1750506134866555000,6.865554931640625,0.0035749999806284904,-0.015949999913573265,-0.030249999836087227
1750506134876159700,6.87515966796875,0.01209999993443489,-0.0989999994635582,-0.08387500047683716
1750506134885764000,6.88476416015625,0.014574999921023846,-0.14176249504089355,-0.11453749984502792
1750506134895368700,6.89436865234375,0.01209999993443489,-0.13571250438690186,-0.1083500012755394
1750506134904973300,6.903973388671875,0.014574999921023846,-0.10766249895095825,-0.0765874981880188
1750506134914578000,6.913577880859375,0.015675000846385956,-0.03918749839067459,-0.03506249934434891
1750506134924182300,6.923182373046875,0.014574999921023846,0.04028749838471413,0.01251249946653843
1750506134933787100,6.932787109375,0.010862499475479126,0.11357499659061432,0.04922499880194664
1750506134943391500,6.9423916015625,0.004674999974668026,0.14533749222755432,0.06627500057220459
1750506134952996000,6.95199609375,0.008387500420212746,0.1073874980211258,0.052937500178813934
1750506134962600700,6.9616005859375,0.008387500420212746,0.02433750033378601,0.008937500417232513
1750506134972205300,6.971205322265625,0.0010999999940395355,-0.05142499879002571,-0.0387750007212162
1750506134981810000,6.980809814453125,-0.006324999965727329,-0.08923749625682831,-0.0668250024318695
1750506134991414500,6.99041455078125,-0.00989999994635582,-0.08923749625682831,-0.0765874981880188
1750506135001019100,7.00001904296875,-0.00989999994635582,-0.059950001537799835,-0.07301250100135803
1750506135010623700,7.009623779296875,-0.007424999959766865,-0.00494999997317791,-0.05458749830722809
1750506135020228000,7.01922802734375,0.002337499987334013,0.04881250113248825,-0.029012499377131462
1750506135029832700,7.028832763671875,0.01209999993443489,0.08786249905824661,-0.0032999999821186066
1750506135039437300,7.038437255859375,0.015675000846385956,0.11357499659061432,0.014987500384449959
1750506135049042000,7.0480419921875,0.01691249944269657,0.10257499665021896,0.03217500075697899
1750506135058646500,7.057646484375,0.015675000846385956,0.05362499877810478,0.03217500075697899
1750506135068251100,7.067251220703125,0.008387500420212746,-0.025712499395012856,0.007699999958276749
1750506135077855700,7.076855712890625,0.0010999999940395355,-0.10147500038146973,-0.03382499888539314
1750506135087460000,7.086460205078125,-0.006324999965727329,-0.1284250020980835,-0.06558749824762344
1750506135097064700,7.096064697265625,-0.008662499487400055,-0.10642500221729279,-0.07301250100135803
1750506135106669300,7.10566943359375,-0.006324999965727329,-0.04413750022649765,-0.04606249928474426
1750506135116274000,7.11527392578125,-0.006324999965727329,0.03904999792575836,0.0015124999918043613
1750506135125878500,7.12487841796875,-0.006324999965727329,0.10986249893903732,0.045512501150369644
1750506135135483100,7.134483154296875,-0.012374999932944775,0.1391499936580658,0.06393750011920929
1750506135145087500,7.14408740234375,-0.013612499460577965,0.0976250022649765,0.03698749840259552
1750506135154692400,7.1536923828125,-0.011137500405311584,0.018287500366568565,-0.03753750026226044
1750506135164296700,7.163296630859375,-0.005087499972432852,-0.05623750016093254,-0.12182500213384628
1750506135173901300,7.1729013671875,0.002337499987334013,-0.09542500227689743,-0.18287499248981476
1750506135183506000,7.182505859375,0.008387500420212746,-0.08689999580383301,-0.19263750314712524
1750506135193110500,7.192110595703125,0.01209999993443489,-0.055137500166893005,-0.1621125042438507
1750506135202715100,7.201715087890625,0.0035749999806284904,-0.00989999994635582,-0.13158750534057617
1750506135212319700,7.21131982421875,-0.005087499972432852,0.03904999792575836,-0.12430000305175781
1750506135221924400,7.22092431640625,0.002337499987334013,0.07315000146627426,-0.1340624988079071
1750506135231528700,7.23052880859375,0.015675000846385956,0.09886249899864197,-0.15963749587535858
1750506135241133300,7.24013330078125,0.027912499383091927,0.1073874980211258,-0.18411250412464142
1750506135250738000,7.249738037109375,0.035337500274181366,0.10862500220537186,-0.19882500171661377
1750506135260342500,7.259342529296875,0.02433750033378601,0.10986249893903732,-0.17806249856948853
1750506135269947100,7.268947021484375,-0.002612499985843897,0.10986249893903732,-0.13282500207424164
1750506135279551700,7.2785517578125,-0.03918749839067459,0.12815000116825104,-0.1023000031709671
1750506135289156400,7.28815625,-0.08195000141859055,0.16238750517368317,-0.09253749996423721
1750506135298760700,7.2977607421875,-0.12361250072717667,0.22591249644756317,-0.08882500231266022
1750506135308365300,7.307365234375,-0.11742500215768814,0.36024999618530273,-0.05458749830722809
1750506135317970000,7.316969970703125,0.009624999947845936,0.5545374751091003,0.11027500033378601
1750506135327574500,7.326574462890625,0.1929125040769577,0.761062502861023,0.6076124906539917
1750506135337179100,7.33617919921875,0.31872498989105225,0.9686874747276306,1.608062505722046
1750506135346783500,7.345783447265625,0.2796750068664551,0.9381625056266785,2.997225046157837
1750506135356388400,7.355388427734375,0.0719124972820282,0.7878749966621399,4.227437496185303
1750506135365993000,7.364992919921875,-0.1859000027179718,0.4885374903678894,4.934875011444092
1750506135375597300,7.374597412109375,-0.353237509727478,-0.11618749797344208,5.225550174713135
1750506135385202000,7.384201904296875,-0.4338124990463257,-1.1631125211715698,5.450362682342529
1750506135394806500,7.393806640625,-0.47052499651908875,-2.0928874015808105,5.616600036621094
1750506135404411100,7.4034111328125,-0.443574994802475,-2.551037549972534,5.717937469482422
1750506135414015700,7.413015625,-0.427762508392334,-2.8833749294281006,5.738699913024902
1750506135423620000,7.4226201171875,-0.44852501153945923,-2.961474895477295,5.614124774932861
1750506135433225000,7.432224853515625,-0.5230500102043152,-2.7990875244140625,5.454074859619141
1750506135442829300,7.441829345703125,-0.6623374819755554,-2.5020875930786133,5.257312297821045
1750506135452434000,7.451433837890625,-0.7893875241279602,-1.9621249437332153,4.9861626625061035
1750506135462038500,7.46103857421875,-0.8699625134468079,-1.3256374597549438,4.701537609100342
1750506135471643000,7.470642822265625,-0.895675003528595,-0.7404375076293945,4.432724952697754
1750506135481247700,7.480247802734375,-0.9017249941825867,-0.27857500314712524,4.239675045013428
1750506135490852400,7.489852294921875,-0.9224874973297119,-0.10147500038146973,4.018575191497803
1750506135500456700,7.499456787109375,-0.939674973487854,-0.04413750022649765,3.6581873893737793
1750506135510061300,7.509061279296875,-0.9469624757766724,-0.047712501138448715,3.207324981689453
1750506135519666000,7.518666015625,-0.939674973487854,-0.08923749625682831,2.7186501026153564
1750506135529270500,7.5282705078125,-0.9176750183105469,-0.07699999958276749,2.203162431716919
1750506135538875100,7.537875244140625,-0.8749125003814697,0.014574999921023846,1.6935875415802002
1750506135548479500,7.5474794921875,-0.7759125232696533,0.09281250089406967,1.2171499729156494
1750506135558084400,7.55708447265625,-0.6220499873161316,0.09157499670982361,0.772475004196167
1750506135567688700,7.566688720703125,-0.4655750095844269,0.04386249929666519,0.3436124920845032
1750506135577293300,7.576293212890625,-0.3324750065803528,-0.04413750022649765,-0.08277499675750732
1750506135586898000,7.58589794921875,-0.19813749194145203,-0.08195000141859055,-0.5189250111579895
1750506135596502500,7.59550244140625,-0.057612501084804535,-0.03423750028014183,-0.9561749696731567
1750506135606107100,7.605107177734375,0.08291249722242355,0.0340999998152256,-1.382562518119812
1750506135615711700,7.614711669921875,0.19772499799728394,0.13667500019073486,-1.8176125288009644
1750506135625316000,7.624316162109375,0.28325000405311584,0.22591249644756317,-2.272049903869629
1750506135634920700,7.633920654296875,0.3492499887943268,0.24667499959468842,-2.727725028991699
1750506135644525300,7.643525390625,0.4298250079154968,0.22962500154972076,-3.157824993133545
1750506135654130000,7.6531298828125,0.555774986743927,0.28091248869895935,-3.546262502670288
1750506135663734500,7.662734619140625,0.638824999332428,0.3077250123023987,-3.8541250228881836
1750506135673339100,7.672339111328125,0.6290624737739563,0.23691250383853912,-4.100937366485596
1750506135682943500,7.681943603515625,0.5691124796867371,0.11715000122785568,-4.308562278747559
1750506135692548000,7.691548095703125,0.5361124873161316,0.015812499448657036,-4.490612506866455
1750506135702152700,7.701152587890625,0.5972999930381775,0.09391249716281891,-4.6776123046875
1750506135711757300,7.71075732421875,0.7866374850273132,0.30896249413490295,-4.838900089263916
1750506135721362000,7.72036181640625,0.9381625056266785,0.4372499883174896,-4.921949863433838
1750506135730966500,7.729966552734375,0.9649749994277954,0.3932499885559082,-4.989049911499023
1750506135740571100,7.739571044921875,0.9234499931335449,0.3774375021457672,-5.099050045013428
1750506135750175500,7.749175537109375,0.8331124782562256,0.42377498745918274,-5.215099811553955
1750506135759780000,7.758780029296875,0.9222124814987183,0.5765374898910522,-5.200524806976318
1750506135769384700,7.768384765625,1.0920250415802002,0.6107749938964844,-4.771662712097168
1750506135778989300,7.7779892578125,1.1335500478744507,0.48496249318122864,-4.0288872718811035
1750506135788594000,7.787593994140625,0.9869750142097473,0.32491248846054077,-3.227400064468384
1750506135798198500,7.797198486328125,0.6595875024795532,0.17586250603199005,-2.6043875217437744
1750506135807803000,7.806802978515625,0.33701249957084656,0.1966249942779541,-2.3355751037597656
1750506135817407500,7.816407470703125,0.20143750309944153,0.3676750063896179,-2.3050498962402344
1750506135827012000,7.82601220703125,0.2759625017642975,0.5777750015258789,-2.182812452316284
1750506135836616700,7.83561669921875,0.42625001072883606,0.6852999925613403,-1.7441874742507935
1750506135846221300,7.84522119140625,0.48124998807907104,0.603487491607666,-1.0894124507904053
1750506135855826000,7.854825927734375,0.3737249970436096,0.42625001072883606,-0.44440001249313354
1750506135865430500,7.864430419921875,0.1293874979019165,0.3151499927043915,-0.013062499463558197
1750506135875035100,7.87403515625,-0.11371249705553055,0.21738749742507935,0.1812250018119812
1750506135884639500,7.883639404296875,-0.25066250562667847,0.03904999792575836,0.2532750070095062
1750506135894244000,7.893244140625,-0.2750000059604645,-0.11123749613761902,0.25203749537467957
1750506135903848700,7.9028486328125,-0.21518750488758087,-0.1845249980688095,0.20198750495910645
1750506135913453300,7.912453369140625,-0.1344749927520752,-0.1699499934911728,0.14327499270439148
1750506135923057700,7.9220576171875,-0.06737499684095383,-0.0648999959230423,0.08951249718666077
1750506135932662300,7.931662353515625,-0.02213750034570694,0.05857500061392784,0.0541750006377697
1750506135942267000,7.941266845703125,-0.016087500378489494,0.09886249899864197,0.043175000697374344
1750506135951871500,7.95087158203125,-0.029424998909235,0.07438749819993973,0.047987498342990875
1750506135961476000,7.96047607421875,-0.052662499248981476,0.014574999921023846,0.07493750005960464
1750506135971080700,7.970080810546875,-0.09171249717473984,-0.06971249729394913,0.10422500222921371
1750506135980685300,7.979685302734375,-0.1284250020980835,-0.13571250438690186,0.10670000314712524
1750506135990290000,7.9892900390625,-0.1467124968767166,-0.12223749607801437,0.0919874981045723
1750506135999894300,7.998894287109375,-0.12594999372959137,-0.062424998730421066,0.06875000149011612
1750506136009499000,8.008498779296875,-0.07218749821186066,0.02186249941587448,0.043175000697374344
1750506136019103500,8.018103515625,-0.011137500405311584,0.09391249716281891,0.0541750006377697
1750506136028708000,8.0277080078125,0.02667500078678131,0.16609999537467957,0.09446249902248383
1750506136038312700,8.037312744140625,0.03162499889731407,0.22343750298023224,0.14079999923706055
1750506136047917000,8.0469169921875,-0.00013749999925494194,0.21367499232292175,0.16279999911785126
1750506136057521700,8.056521728515625,-0.04908749833703041,0.16238750517368317,0.13474999368190765
1750506136067126300,8.066126220703126,-0.08084999769926071,0.06710000336170197,0.06751249730587006
1750506136076731000,8.07573095703125,-0.08689999580383301,-0.028187500312924385,-0.015537500381469727
1750506136086335500,8.08533544921875,-0.057612501084804535,-0.062424998730421066,-0.07411249727010727
1750506136095940000,8.094940185546875,-0.0013749999925494194,-0.07466249912977219,-0.08635000139474869
1750506136105544700,8.104544677734374,0.04867500066757202,-0.040424998849630356,-0.08387500047683716
1750506136115149000,8.114149169921875,0.0681999996304512,0.014574999921023846,-0.06558749824762344
1750506136124753700,8.123753662109374,0.05609999969601631,0.059812501072883606,-0.03258749842643738
1750506136134358300,8.133358154296875,0.0364375002682209,0.08415000140666962,-0.009349999949336052
1750506136143963000,8.142962890625,0.0193875003606081,0.05238749831914902,-0.013062499463558197
1750506136153567200,8.152567138671875,0.007149999961256981,-0.011137500405311584,-0.04729999974370003
1750506136163171800,8.162171875,0.009624999947845936,-0.0611874982714653,-0.09129999577999115
1750506136172776400,8.1717763671875,0.025437500327825546,-0.08442500233650208,-0.11453749984502792
1750506136182381000,8.181381103515625,0.04633750021457672,-0.07590000331401825,-0.10711249709129333
1750506136191985700,8.190985595703125,0.05967500060796738,-0.050187498331069946,-0.07906249910593033
1750506136201590000,8.200590087890625,0.05362499877810478,-0.035475000739097595,-0.05101250112056732
1750506136211194600,8.210194580078126,0.04743750020861626,-0.033137500286102295,-0.04235000163316727
1750506136220799200,8.21979931640625,0.037675000727176666,-0.03918749839067459,-0.04977500066161156
1750506136230403800,8.22940380859375,0.020624998956918716,-0.042899999767541885,-0.05211250111460686
1750506136240008400,8.239008544921875,0.010862499475479126,-0.04647500067949295,-0.0448249988257885
1750506136249613000,8.248613037109376,0.004674999974668026,-0.04895000159740448,-0.03382499888539314
1750506136259217700,8.2582177734375,0.004674999974668026,-0.045237500220537186,-0.03135000169277191
1750506136268822000,8.267822021484376,0.014574999921023846,-0.028187500312924385,-0.03506249934434891
1750506136278426600,8.277426513671875,0.02433750033378601,0.007287499960511923,-0.029012499377131462
1750506136288031200,8.28703125,0.0364375002682209,0.04028749838471413,-0.013062499463558197
1750506136297635600,8.296635498046875,0.037675000727176666,0.05004999786615372,-0.010587500408291817
1750506136307240200,8.306240234375,0.02667500078678131,0.0340999998152256,-0.022824998944997787
1750506136316844800,8.3158447265625,0.009624999947845936,0.0085249999538064,-0.04358749836683273
1750506136326449700,8.32544970703125,-0.012374999932944775,-0.01718750037252903,-0.05101250112056732
1750506136336054000,8.335053955078125,-0.03189999982714653,-0.012374999932944775,-0.027775000780820847
1750506136345658400,8.344658447265624,-0.040424998849630356,0.0170499999076128,0.025987500324845314
1750506136355263000,8.354262939453125,-0.04166249930858612,0.06462500244379044,0.0919874981045723
1750506136364867300,8.363867431640625,-0.030662499368190765,0.08057499676942825,0.14822499454021454
1750506136374472200,8.37347216796875,-0.023375000804662704,0.05362499877810478,0.16775000095367432
1750506136384076800,8.383076904296875,-0.030662499368190765,-0.015949999913573265,0.1494625061750412
1750506136393681400,8.392681396484376,-0.04413750022649765,-0.08442500233650208,0.11522500216960907
1750506136403285800,8.40228564453125,-0.04908749833703041,-0.13199999928474426,0.082225002348423
1750506136412890400,8.411890380859376,-0.050187498331069946,-0.1344749927520752,0.060224998742341995
1750506136422495000,8.421494873046875,-0.040424998849630356,-0.0966624990105629,0.050462499260902405
1750506136432099600,8.431099609375,-0.02708750031888485,-0.029424998909235,0.04922499880194664
1750506136441704200,8.4407041015625,-0.012374999932944775,0.02681249938905239,0.04922499880194664
1750506136451308500,8.45030859375,-0.00013749999925494194,0.06338749825954437,0.030937500298023224
1750506136460913200,8.4599130859375,0.009624999947845936,0.04386249929666519,-0.008249999955296516
1750506136470517800,8.469517822265624,0.01691249944269657,-0.0037124999798834324,-0.05829999968409538
1750506136480122000,8.4791220703125,0.030387500301003456,-0.07218749821186066,-0.10477499663829803
1750506136489726700,8.488726806640624,0.0340999998152256,-0.0989999994635582,-0.12787500023841858
1750506136499331300,8.498331298828125,0.037675000727176666,-0.07699999958276749,-0.11811249703168869
1750506136508936000,8.50793603515625,0.04633750021457672,-0.025712499395012856,-0.0765874981880188
1750506136518540500,8.51754052734375,0.04743750020861626,0.028049999848008156,-0.021587500348687172
1750506136528145000,8.527144775390624,0.04262499883770943,0.05238749831914902,0.011412499472498894
1750506136537749500,8.53674951171875,0.02667500078678131,0.02433750033378601,0.008937500417232513
1750506136547354400,8.546354248046875,0.010862499475479126,-0.035475000739097595,-0.014299999922513962
1750506136556958700,8.555958740234376,-0.002612499985843897,-0.07823749631643295,-0.030249999836087227
1750506136566563300,8.565563232421875,-0.0013749999925494194,-0.08071249723434448,-0.025299999862909317
1750506136576168000,8.57516796875,0.009624999947845936,-0.04166249930858612,0.006462499964982271
1750506136585772500,8.5847724609375,0.023099999874830246,0.007287499960511923,0.050462499260902405
1750506136595377000,8.594376953125,0.027912499383091927,0.03162499889731407,0.07246249914169312
1750506136604981500,8.6039814453125,0.013337500393390656,0.025575000792741776,0.055275000631809235
1750506136614586000,8.613586181640626,-0.006324999965727329,0.006049999967217445,0.01993750035762787
1750506136624190700,8.623190673828125,-0.01732499897480011,-0.02447500079870224,-0.014299999922513962
1750506136633795300,8.63279541015625,-0.01732499897480011,-0.029424998909235,-0.03382499888539314
1750506136643399700,8.642399658203125,0.0010999999940395355,-0.0037124999798834324,-0.03753750026226044
1750506136653004300,8.65200439453125,0.01209999993443489,0.0340999998152256,-0.025299999862909317
1750506136662609000,8.66160888671875,0.015675000846385956,0.07315000146627426,-0.010587500408291817
1750506136672213500,8.671213623046874,0.01209999993443489,0.08181250095367432,-0.0008249999955296516
1750506136681818000,8.680818115234375,-0.0013749999925494194,0.06710000336170197,0.0004124999977648258
1750506136691422500,8.69042236328125,-0.01732499897480011,0.030387500301003456,-0.007012499962002039
1750506136701027000,8.700027099609375,-0.02213750034570694,-0.00494999997317791,-0.013062499463558197
1750506136710631700,8.709631591796875,-0.020899999886751175,-0.028187500312924385,-0.0057749999687075615
1750506136720236300,8.719236328125,-0.006324999965727329,-0.037950001657009125,0.005224999971687794
1750506136729841000,8.7288408203125,0.002337499987334013,-0.03918749839067459,0.018699999898672104
1750506136739445500,8.738445556640626,-0.0013749999925494194,-0.028187500312924385,0.02969999983906746
1750506136749049900,8.7480498046875,-0.006324999965727329,-0.015949999913573265,0.028462499380111694
1750506136758654500,8.757654541015626,-0.011137500405311584,-0.008662499487400055,0.01746249943971634
1750506136768259000,8.767259033203125,-0.011137500405311584,-0.01718750037252903,0.002749999985098839
1750506136777863400,8.776863525390626,-0.012374999932944775,-0.011137500405311584,-0.013062499463558197
1750506136787468300,8.78646826171875,-0.007424999959766865,0.009624999947845936,-0.01924999989569187
1750506136797072600,8.79607275390625,0.0035749999806284904,0.037812501192092896,-0.014299999922513962
1750506136806677200,8.80567724609375,0.020624998956918716,0.06338749825954437,-0.0032999999821186066
1750506136816281900,8.81528173828125,0.0364375002682209,0.05486249923706055,0.0015124999918043613
1750506136825886500,8.824886474609375,0.037675000727176666,0.010862499475479126,-0.01677500084042549
1750506136835490800,8.83449072265625,0.020624998956918716,-0.052662499248981476,-0.04977500066161156
1750506136845095400,8.844095458984375,0.002337499987334013,-0.10518749803304672,-0.07782500237226486
1750506136854700000,8.853699951171874,-0.00989999994635582,-0.10999999940395355,-0.08153750002384186
1750506136864304600,8.8633046875,-0.00989999994635582,-0.06847500056028366,-0.05101250112056732
1750506136873909200,8.8729091796875,0.0010999999940395355,0.004812499973922968,-0.007012499962002039
1750506136883513600,8.882513671875,0.01209999993443489,0.06462500244379044,0.030937500298023224
1750506136893118200,8.8921181640625,0.018149999901652336,0.09157499670982361,0.045512501150369644
1750506136902722800,8.901722900390626,0.015675000846385956,0.06710000336170197,0.035750001668930054
1750506136912327400,8.911327392578125,0.010862499475479126,0.023099999874830246,0.005224999971687794
1750506136921932000,8.92093212890625,0.005912499967962503,-0.008662499487400055,-0.026537500321865082
1750506136931536600,8.93053662109375,0.0035749999806284904,-0.04166249930858612,-0.04729999974370003
1750506136941141200,8.940141357421876,0.005912499967962503,-0.042899999767541885,-0.06077500060200691
1750506136950745600,8.94974560546875,0.009624999947845936,-0.025712499395012856,-0.05829999968409538
1750506136960350200,8.95935009765625,0.008387500420212746,-0.007424999959766865,-0.05101250112056732
1750506136969954800,8.968954833984375,0.005912499967962503,0.014574999921023846,-0.0448249988257885
1750506136979559400,8.978559326171874,0.004674999974668026,0.015812499448657036,-0.04001250118017197
1750506136989164000,8.9881640625,0.0035749999806284904,-0.00494999997317791,-0.04235000163316727
1750506136998768400,8.997768310546874,-0.0013749999925494194,-0.025712499395012856,-0.04235000163316727
1750506137008373000,9.007373046875,-0.006324999965727329,-0.028187500312924385,-0.03629999980330467
1750506137017977600,9.0169775390625,-0.0038499999791383743,-0.018424998968839645,-0.026537500321865082
1750506137027582200,9.026582275390625,0.004674999974668026,0.0010999999940395355,-0.008249999955296516
1750506137037186600,9.0361865234375,0.007149999961256981,0.028049999848008156,0.018699999898672104
1750506137046791200,9.045791259765625,0.005912499967962503,0.05609999969601631,0.038224998861551285
1750506137056395800,9.055395751953125,0.0035749999806284904,0.0658624991774559,0.04427500069141388
1750506137066000400,9.06500048828125,0.0035749999806284904,0.03904999792575836,0.02969999983906746
1750506137075605000,9.07460498046875,0.002337499987334013,-0.00494999997317791,0.0015124999918043613
1750506137085209300,9.084209228515626,0.004674999974668026,-0.03671250119805336,-0.022824998944997787
1750506137094814000,9.09381396484375,0.002337499987334013,-0.042899999767541885,-0.027775000780820847
1750506137104418600,9.10341845703125,-0.0038499999791383743,-0.01347499992698431,-0.015537500381469727
1750506137114023200,9.113023193359375,-0.011137500405311584,0.035337500274181366,0.003987499978393316
1750506137123627500,9.12262744140625,-0.016087500378489494,0.06338749825954437,0.014987500384449959
1750506137133232000,9.132232177734375,-0.018424998968839645,0.08538749814033508,0.016224998980760574
1750506137142836500,9.14183642578125,-0.025849999859929085,0.08910000324249268,0.002749999985098839
1750506137152441300,9.15144140625,-0.03918749839067459,0.08910000324249268,-0.030249999836087227
1750506137162045700,9.161045654296874,-0.04908749833703041,0.10009999573230743,-0.0668250024318695
1750506137171650300,9.170650390625,-0.040424998849630356,0.15633749961853027,-0.09253749996423721
1750506137181255000,9.1802548828125,0.030387500301003456,0.28462499380111694,-0.05211250111460686
1750506137190859500,9.189859619140625,0.13062499463558197,0.4885374903678894,0.15674999356269836
1750506137200464000,9.1994638671875,0.20748749375343323,0.7745375037193298,0.5684249997138977
1750506137210068500,9.209068359375,0.23925000429153442,1.0616375207901,1.0998624563217163
1750506137219672800,9.2186728515625,0.1989624947309494,1.3169749975204468,1.699774980545044
1750506137229277700,9.228277587890625,0.1293874979019165,1.452549934387207,2.3130249977111816
1750506137238882300,9.23788232421875,0.14396250247955322,1.4830750226974487,2.949512481689453
1750506137248486700,9.247486572265625,0.16596250236034393,1.3743125200271606,3.7241873741149902
1750506137258091300,9.25709130859375,0.16967499256134033,1.0383999347686768,4.553724765777588
1750506137267695900,9.26669580078125,0.13791249692440033,0.4959625005722046,5.191450119018555
1750506137277300200,9.27630029296875,0.007149999961256981,-0.19071249663829803,5.449124813079834
1750506137286904800,9.28590478515625,-0.10518749803304672,-0.8870124816894531,5.439362525939941
1750506137296509400,9.295509521484375,-0.08689999580383301,-1.634737491607666,5.333075046539307
1750506137306114300,9.3051142578125,0.07067500054836273,-2.112412452697754,5.114449977874756
1750506137315718700,9.31471875,0.20996250212192535,-2.3922250270843506,4.953162670135498
1750506137325323000,9.324322998046876,0.14038750529289246,-2.7904250621795654,4.8126373291015625
1750506137334927600,9.333927734375,-0.08084999769926071,-3.0446624755859375,4.509725093841553
1750506137344532200,9.3435322265625,-0.3642374873161316,-3.0201873779296875,4.1431498527526855
1750506137354136800,9.35313671875,-0.6133875250816345,-2.71589994430542,3.8010499477386475
1750506137363741200,9.3627412109375,-0.7331500053405762,-2.101412534713745,3.5127124786376953
1750506137373345800,9.372345703125,-0.738099992275238,-1.3744499683380127,3.2745625972747803
1750506137382950400,9.381950439453124,-0.6978124976158142,-0.6939625144004822,3.0167500972747803
1750506137392555000,9.391554931640625,-0.6415749788284302,-0.1405249983072281,2.6783623695373535
1750506137402159600,9.40115966796875,-0.5915250182151794,0.15757499635219574,2.2556874752044678
1750506137411764000,9.410763916015625,-0.5608624815940857,0.17710000276565552,1.799875020980835
1750506137421368600,9.42036865234375,-0.5267624855041504,0.07809999585151672,1.3576749563217163
1750506137430973200,9.42997314453125,-0.4620000123977661,-0.030662499368190765,0.9483374953269958
1750506137440577800,9.439577880859375,-0.3679499924182892,-0.17118750512599945,0.5659499764442444
1750506137450182400,9.449182373046876,-0.26647499203681946,-0.2652375102043152,0.15427500009536743
1750506137459786800,9.458786865234375,-0.17971250414848328,-0.28600001335144043,-0.283112496137619
1750506137469391400,9.468391357421876,-0.07590000331401825,-0.20047499239444733,-0.7350749969482422
1750506137478996000,9.477995849609375,0.04867500066757202,-0.0037124999798834324,-1.202987551689148
1750506137488600600,9.4876005859375,0.18796250224113464,0.2662000060081482,-1.648900032043457
1750506137498205200,9.497205078125,0.29548749327659607,0.4604874849319458,-2.050950050354004
1750506137507809500,9.5068095703125,0.38830000162124634,0.5520625114440918,-2.421099901199341
1750506137517414100,9.5164140625,0.5007749795913696,0.603487491607666,-2.7777750492095947
1750506137527018800,9.526018798828124,0.6413000226020813,0.6498249769210815,-3.1528749465942383
1750506137536623400,9.535623291015625,0.7841625213623047,0.6803500056266785,-3.5535500049591064
1750506137546228000,9.54522802734375,0.9381625056266785,0.7402999997138977,-3.9848873615264893
1750506137555832300,9.554832275390625,1.0529749393463135,0.7415375113487244,-4.3990373611450195
1750506137565437000,9.56443701171875,1.123787522315979,0.7548750042915344,-4.753375053405762
1750506137575041500,9.57404150390625,1.1250250339508057,0.8013499975204468,-5.062475204467773
1750506137584646100,9.583646240234375,1.037024974822998,0.8368250131607056,-5.340912342071533
1750506137594250500,9.59325048828125,0.9479249715805054,0.9063999652862549,-5.548675060272217
1750506137603855000,9.602855224609375,0.8196374773979187,0.8086374998092651,-5.557199954986572
1750506137613459700,9.612459716796875,0.6681125164031982,0.6462500095367432,-5.312862396240234
1750506137623064000,9.62206396484375,0.5887749791145325,0.5863000154495239,-4.826662540435791
1750506137632668700,9.631668701171876,0.5373499989509583,0.5105375051498413,-4.197462558746338
1750506137642273300,9.641273193359375,0.49582499265670776,0.5460125207901001,-3.5902624130249023
1750506137651878000,9.6508779296875,0.4567750096321106,0.6375874876976013,-3.0208749771118164
1750506137661482500,9.660482421875,0.4115374982357025,0.7085375189781189,-2.506624937057495
1750506137671087000,9.670087158203126,0.3737249970436096,0.7781124711036682,-2.124237537384033
1750506137680691500,9.67969140625,0.2759625017642975,0.7525374889373779,-1.868899941444397
1750506137690296300,9.68929638671875,0.11838749796152115,0.6107749938964844,-1.7430875301361084
1750506137699900700,9.698900634765625,-0.0013749999925494194,0.4152500033378601,-1.7296124696731567
1750506137709505300,9.70850537109375,0.04386249929666519,0.5020124912261963,-1.9800000190734863
1750506137719110000,9.71810986328125,0.20391249656677246,1.136162519454956,-2.368575096130371
1750506137728714200,9.72771435546875,0.26496249437332153,0.5814874768257141,-1.5475624799728394
1750506137738318800,9.73731884765625,0.3517250120639801,-0.16747500002384186,-0.35144999623298645
1750506137747923500,9.74692333984375,0.22343750298023224,-0.19318750500679016,0.2055625021457672
1750506137757528000,9.756528076171875,-0.035612501204013824,-0.07823749631643295,0.4816625118255615
1750506137767132700,9.766132568359374,-0.22990000247955322,-0.20295000076293945,0.7590000033378601
1750506137776737000,9.775737060546875,-0.2957625091075897,-0.1527625024318695,0.8274750113487244
1750506137786341600,9.785341552734375,-0.22495000064373016,0.05486249923706055,0.724762499332428
1750506137795946200,9.7949462890625,-0.08195000141859055,0.17710000276565552,0.5611374974250793
1750506137805550800,9.80455078125,0.032862499356269836,0.23567499220371246,0.36313748359680176
1750506137815155200,9.8141552734375,0.08538749814033508,0.2662000060081482,0.1615625023841858
1750506137824759800,9.823759765625,0.07067500054836273,0.2796750068664551,0.006462499964982271
1750506137834364400,9.833364501953126,0.02433750033378601,0.28338751196861267,-0.13887499272823334
1750506137843968800,9.84296875,-0.002612499985843897,0.32243749499320984,-0.3601124882698059
1750506137853573400,9.852573486328126,-0.01732499897480011,0.38472500443458557,-0.5726875066757202
1750506137863178000,9.862177978515625,-0.020899999886751175,0.29315000772476196,-0.5762624740600586
1750506137872782300,9.8717822265625,0.013337500393390656,0.09515000134706497,-0.4199250042438507
1750506137882387000,9.881386962890625,0.0340999998152256,-0.01718750037252903,-0.27568748593330383
1750506137891991600,9.890991455078124,0.01209999993443489,-0.07218749821186066,-0.1303499937057495
1750506137901596200,9.90059619140625,-0.023375000804662704,-0.09776250272989273,0.03451250120997429
1750506137911200800,9.91020068359375,-0.03684999793767929,-0.045237500220537186,0.1714625060558319
1750506137920805000,9.91980517578125,-0.033137500286102295,-0.002474999986588955,0.26551249623298645
1750506137930409700,9.92940966796875,-0.025849999859929085,0.023099999874830246,0.296037495136261
1750506137940014000,9.93901416015625,-0.03437500074505806,0.04262499883770943,0.2605625092983246
1750506137949619000,9.948618896484374,-0.05389999970793724,0.02928750030696392,0.17256249487400055
1750506137959223600,9.9582236328125,-0.07342500239610672,0.013337500393390656,0.05898749828338623
1750506137968827600,9.96782763671875,-0.08195000141859055,0.010862499475479126,-0.04358749836683273
1750506137978432500,9.9774326171875,-0.07342500239610672,0.010862499475479126,-0.12306249886751175
1750506137988036900,9.987036865234375,-0.052662499248981476,0.014574999921023846,-0.18287499248981476
1750506137997641500,9.996641357421876,-0.033137500286102295,0.014574999921023846,-0.20982499420642853
1750506138007246000,10.00624609375,-0.02213750034570694,0.0193875003606081,-0.1816374957561493
1750506138016850400,10.015850341796876,-0.030662499368190765,0.05004999786615372,-0.10477499663829803
1750506138026455000,10.025455078125,-0.040424998849630356,0.11715000122785568,0.006462499964982271
1750506138036059600,10.0350595703125,-0.05389999970793724,0.14767499268054962,0.10422500222921371
1750506138045664300,10.044664306640625,-0.06737499684095383,0.12209999561309814,0.13227500021457672
1750506138055268900,10.054268798828126,-0.08442500233650208,0.057337500154972076,0.10422500222921371
1750506138064873200,10.063873291015625,-0.10642500221729279,0.004812499973922968,0.06751249730587006
1750506138074477800,10.073477783203124,-0.09790000319480896,-0.04647500067949295,0.038224998861551285
1750506138084082400,10.08308251953125,-0.07590000331401825,-0.11618749797344208,-0.024062499403953552
1750506138093686800,10.092686767578124,-0.06737499684095383,-0.14547500014305115,-0.08387500047683716
1750506138103291400,10.10229150390625,-0.07590000331401825,-0.07590000331401825,-0.07535000145435333
1750506138112896000,10.11189599609375,-0.06737499684095383,0.08786249905824661,-0.01677500084042549
1750506138122500600,10.12150048828125,-0.01732499897480011,0.22714999318122864,0.050462499260902405
1750506138132105200,10.131105224609374,0.02914999984204769,0.2564375102519989,0.06270000338554382
1750506138141709800,10.140709716796875,0.03162499889731407,0.19167499244213104,0.008937500417232513
1750506138151314200,10.150314208984375,0.005912499967962503,0.06462500244379044,-0.05953750014305115
1750506138160918800,10.159918701171875,-0.023375000804662704,-0.062424998730421066,-0.11563749611377716
1750506138170523400,10.1695234375,-0.040424998849630356,-0.1247124969959259,-0.13529999554157257
1750506138180127700,10.179127685546876,-0.04166249930858612,-0.13199999928474426,-0.09487500041723251
1750506138189732600,10.188732666015625,-0.020899999886751175,-0.08566249907016754,-0.01677500084042549
1750506138199337000,10.1983369140625,0.008387500420212746,-0.02213750034570694,0.06393750011920929
1750506138208941600,10.207941650390625,0.020624998956918716,0.020624998956918716,0.11522500216960907
1750506138218546200,10.217546142578126,0.014574999921023846,0.04633750021457672,0.13103750348091125
1750506138228150500,10.227150634765625,-0.005087499972432852,0.05115000158548355,0.13103750348091125
1750506138237755100,10.236755126953126,-0.018424998968839645,0.045099999755620956,0.11879999935626984
1750506138247359700,10.24635986328125,-0.020899999886751175,0.0010999999940395355,0.0859375
1750506138256964400,10.25596435546875,-0.008662499487400055,-0.055137500166893005,0.03698749840259552
1750506138266569000,10.26556884765625,0.009624999947845936,-0.0989999994635582,-0.007012499962002039
1750506138276173300,10.27517333984375,0.03162499889731407,-0.1307625025510788,-0.03135000169277191
1750506138285778000,10.28477783203125,0.04633750021457672,-0.11247500032186508,-0.026537500321865082
1750506138295382500,10.294382568359374,0.04743750020861626,-0.062424998730421066,0.008937500417232513
1750506138304987000,10.30398681640625,0.045099999755620956,-0.018424998968839645,0.050462499260902405
1750506138314591500,10.313591552734374,0.04138749837875366,-0.002474999986588955,0.07369999587535858
1750506138324196000,10.323196044921875,0.040150001645088196,-0.008662499487400055,0.07122500240802765
1750506138333800700,10.33280078125,0.04262499883770943,-0.030662499368190765,0.043175000697374344
1750506138343405000,10.342405029296875,0.045099999755620956,-0.042899999767541885,0.01251249946653843
1750506138353009700,10.352009765625,0.049912501126527786,-0.018424998968839645,-0.01677500084042549
1750506138362614300,10.3616142578125,0.0658624991774559,-0.0013749999925494194,-0.03135000169277191
1750506138372219000,10.371218994140625,0.07919999957084656,-0.00494999997317791,-0.04606249928474426
1750506138381823500,10.380823486328126,0.07686249911785126,-0.011137500405311584,-0.06558749824762344
1750506138391427800,10.390427734375,0.0658624991774559,-0.02447500079870224,-0.07177499681711197
1750506138401032400,10.400032470703126,0.04633750021457672,-0.018424998968839645,-0.07535000145435333
1750506138410636800,10.40963671875,0.02433750033378601,0.009624999947845936,-0.06929999589920044
1750506138420241400,10.419241455078126,0.010862499475479126,0.047575000673532486,-0.04729999974370003
1750506138429846000,10.428845947265625,0.007149999961256981,0.06833750009536743,-0.030249999836087227
1750506138439450600,10.43845068359375,0.010862499475479126,0.05486249923706055,-0.029012499377131462
1750506138449055000,10.448054931640625,0.014574999921023846,0.018287500366568565,-0.04235000163316727
1750506138458659600,10.45765966796875,0.01691249944269657,-0.02447500079870224,-0.06558749824762344
1750506138468264200,10.46726416015625,0.014574999921023846,-0.0672374963760376,-0.09377499669790268
1750506138477868800,10.476868896484374,-0.002612499985843897,-0.07590000331401825,-0.11082500219345093
1750506138487473200,10.48647314453125,-0.01966249942779541,-0.037950001657009125,-0.11082500219345093
1750506138497077500,10.496077392578124,-0.029424998909235,0.009624999947845936,-0.08635000139474869
1750506138506682400,10.505682373046875,-0.033137500286102295,0.07081250101327896,-0.04001250118017197
1750506138516286700,10.51528662109375,-0.025849999859929085,0.13557499647140503,0.01251249946653843
1750506138525891300,10.524891357421875,-0.01732499897480011,0.16238750517368317,0.050462499260902405
1750506138535496000,10.534495849609375,-0.011137500405311584,0.11838749796152115,0.04922499880194664
1750506138545100300,10.544100341796875,-0.006324999965727329,0.025575000792741776,0.008937500417232513
1750506138554705000,10.553704833984375,-0.005087499972432852,-0.07218749821186066,-0.04001250118017197
1750506138564309500,10.5633095703125,-0.008662499487400055,-0.13323749601840973,-0.07535000145435333
1750506138573914000,10.5729140625,-0.01966249942779541,-0.14794999361038208,-0.09129999577999115
1750506138583518500,10.5825185546875,-0.030662499368190765,-0.1247124969959259,-0.09253749996423721
1750506138593123000,10.592123046875,-0.035612501204013824,-0.09418749809265137,-0.0668250024318695
1750506138602727700,10.601727783203126,-0.04166249930858612,-0.06599999964237213,-0.029012499377131462
1750506138612332300,10.611332275390625,-0.04413750022649765,-0.023237500339746475,0.008937500417232513
1750506138621936600,10.6209365234375,-0.04661250114440918,-0.011137500405311584,0.040699999779462814
1750506138631541200,10.630541259765625,-0.04413750022649765,0.0010999999940395355,0.07603749632835388
1750506138641145900,10.640145751953124,-0.029424998909235,0.44948750734329224,0.40232500433921814
1750506138650750500,10.64975048828125,0.11343749612569809,0.7646374702453613,0.28984999656677246
1750506138660354800,10.659354736328124,0.08662500232458115,0.4507249891757965,0.13103750348091125
1750506138669959400,10.66895947265625,0.02433750033378601,-0.09418749809265137,-0.06201250106096268
1750506138679564000,10.67856396484375,-0.0611874982714653,-0.4936249852180481,-0.3148750066757202
1750506138689168600,10.688168701171875,-0.14066250622272491,-0.7111499905586243,-0.3601124882698059
1750506138698773000,10.69777294921875,-0.11137499660253525,-0.598675012588501,-0.27816250920295715
