time,seconds_elapsed,z,y,x
1750560847148721700,0.0637216796875,0.0009219999774359167,-0.02603200078010559,1.5109800100326538
1750560847158326800,0.073326904296875,0.34123700857162476,0.05182600021362305,1.3493670225143433
1750560847167931400,0.082931396484375,0.48599499464035034,0.18724200129508972,1.1956559419631958
1750560847177536300,0.092536376953125,0.07477899640798569,0.20992299914360046,0.7423679828643799
1750560847187141000,0.10214111328125,-0.0916529968380928,0.20569799840450287,0.6538779735565186
1750560847196746200,0.111746337890625,-0.21708999574184418,0.2167000025510788,0.9197099804878235
1750560847206351000,0.12135107421875,-0.45605000853538513,0.09234499931335449,1.0950100421905518
1750560847215955700,0.130955810546875,-0.465036004781723,-0.006266999989748001,1.328644037246704
1750560847225560600,0.140560546875,-0.5974239706993103,0.14320500195026398,0.8815240263938904
1750560847235165400,0.15016552734375,-0.4112190008163452,0.2651920020580292,0.17054499685764313
1750560847244770300,0.159770263671875,-0.593097984790802,0.27756500244140625,-0.3107840120792389
1750560847254375200,0.169375244140625,-0.7505649924278259,0.20552800595760345,-0.6420649886131287
1750560847263980000,0.17897998046875,-0.4630280137062073,0.22977399826049805,-0.3561739921569824
1750560847273585000,0.1885849609375,-0.6137629747390747,0.32817500829696655,-0.23622800409793854
1750560847283189500,0.198189453125,-0.3101930022239685,0.15250100195407867,-0.07493200153112411
1750560847292794600,0.207794677734375,0.48610201478004456,0.1157979965209961,-0.5480459928512573
1750560847302399500,0.2173994140625,0.12154699862003326,-0.0005760000203736126,-0.4297179877758026
1750560847312004400,0.22700439453125,0.11618799716234207,-0.22938600182533264,0.2691720128059387
1750560847321609000,0.23660888671875,0.17229199409484863,-0.16530899703502655,0.4087750017642975
1750560847331213800,0.2462138671875,0.6185200214385986,0.12016399949789047,0.5516380071640015
1750560847340818700,0.255818603515625,0.35896700620651245,0.33879101276397705,0.5417649745941162
1750560847350423600,0.265423583984375,0.0874980017542839,0.16187000274658203,0.3181860148906708
1750560847360028700,0.275028564453125,-0.03211100026965141,-0.008793000131845474,0.5513120293617249
1750560847369633300,0.28463330078125,-0.4324510097503662,0.10461299866437912,0.588778018951416
1750560847379238100,0.294238037109375,-1.3687820434570312,-0.08880700170993805,0.18101799488067627
1750560847388843000,0.303843017578125,-1.7691489458084106,-0.18492400646209717,-0.10202600061893463
1750560847398447900,0.31344775390625,-1.0758949518203735,-0.0793749988079071,-0.2792699933052063
1750560847408052700,0.323052734375,-1.0182240009307861,-0.006891999859362841,-0.2795569896697998
1750560847417657600,0.33265771484375,-0.5330510139465332,-0.41523200273513794,-0.09940800070762634
1750560847427262500,0.342262451171875,0.7115079760551453,-0.1400279998779297,-0.08850999921560287
1750560847436867000,0.3518671875,1.067080020904541,-0.2532329857349396,0.2487030029296875
1750560847446472000,0.361471923828125,1.003788948059082,-0.4526830017566681,0.8462520241737366
1750560847456077000,0.3710771484375,1.0297160148620605,-0.311039000749588,1.1631250381469727
1750560847465682000,0.380681884765625,0.7966729998588562,-0.19054700434207916,1.4086689949035645
1750560847475286800,0.390286865234375,0.7095180153846741,-0.12625199556350708,1.167726993560791
1750560847484891400,0.399891357421875,1.116487979888916,0.0642080008983612,0.3266400098800659
1750560847494496300,0.409496337890625,0.9405879974365234,0.20946399867534637,-0.3600060045719147
1750560847504101000,0.41910107421875,-0.5063400268554688,0.20458100736141205,-0.6074069738388062
1750560847513706000,0.4287060546875,-1.884443998336792,0.1292019933462143,-0.18470899760723114
1750560847523310800,0.438310791015625,-2.951594114303589,0.3094100058078766,0.7025259733200073
1750560847532915700,0.447915771484375,-3.1704230308532715,0.38029998540878296,1.358260989189148
1750560847542520600,0.4575205078125,-2.23416805267334,0.45912399888038635,1.029526948928833
1750560847552125200,0.467125244140625,-0.4921169877052307,0.2545810043811798,0.07953000068664551
1750560847561730300,0.476730224609375,0.9748830199241638,-0.28287699818611145,-0.4653469920158386
1750560847571335000,0.4863349609375,1.466055989265442,-0.3573870062828064,-0.48763900995254517
1750560847580939800,0.495939697265625,1.277374029159546,0.10263799875974655,-0.42710500955581665
1750560847590545000,0.505544921875,-0.0993800014257431,0.19229400157928467,0.0021150000393390656
1750560847600149500,0.5151494140625,-0.8278089761734009,-0.021626999601721764,0.38795098662376404
1750560847609754400,0.52475439453125,-0.9510380029678345,0.038339000195264816,0.3179570138454437
1750560847619359200,0.534359130859375,-0.529125988483429,0.12549200654029846,0.4230259954929352
1750560847628963800,0.5439638671875,-0.5084959864616394,0.1355780065059662,0.5005519986152649
1750560847638569000,0.55356884765625,-0.84027099609375,0.1550689935684204,0.2514890134334564
1750560847648173800,0.563173828125,-0.9498670101165771,0.05750500038266182,0.16373099386692047
1750560847657778700,0.57277880859375,-0.5811859965324402,-0.06745699793100357,0.2072180062532425
1750560847667383600,0.582383544921875,-0.617264986038208,-0.09829399734735489,-0.08725299686193466
1750560847676988200,0.59198828125,-0.4723840057849884,-0.14666999876499176,-0.2801699936389923
1750560847686593000,0.601593017578125,-0.31480300426483154,-0.005745000205934048,-0.6257140040397644
1750560847696198000,0.611197998046875,-0.23340900242328644,0.09060700237751007,-1.0301259756088257
1750560847705802800,0.620802734375,-0.006388000212609768,-0.09615500271320343,-0.9752939939498901
1750560847715407600,0.63040771484375,0.4722979962825775,-0.19705699384212494,-0.4645859897136688
1750560847725012500,0.640012451171875,0.7471290230751038,-0.10430700331926346,0.192562997341156
1750560847734617300,0.649617431640625,0.6623470187187195,-0.22806000709533691,0.563634991645813
1750560847744222000,0.659221923828125,1.5010499954223633,-0.2651189863681793,0.8198519945144653
1750560847753826800,0.668826904296875,1.7778630256652832,-0.060717999935150146,0.8709200024604797
1750560847763431700,0.678431640625,1.5550780296325684,0.0920339971780777,0.5417069792747498
1750560847773036500,0.68803662109375,1.0887409448623657,0.20265799760818481,0.2855660021305084
1750560847782641700,0.6976416015625,0.29119598865509033,0.234375,0.12289199978113174
1750560847792246300,0.707246337890625,-0.6102460026741028,0.2455340027809143,0.00431300001218915
1750560847801851100,0.71685107421875,-0.9955589771270752,0.21231600642204285,0.014527999795973301
1750560847811456000,0.7264560546875,-0.7051979899406433,0.19197900593280792,-0.13115599751472473
1750560847821060600,0.736060546875,-0.1280509978532791,0.05609399825334549,-0.46462100744247437
1750560847830665700,0.745665771484375,0.38352400064468384,0.0073379999957978725,-0.44406598806381226
1750560847840270600,0.7552705078125,0.42133399844169617,-0.011082000099122524,0.027212999761104584
1750560847849875500,0.76487548828125,0.11412599682807922,-0.02722799964249134,0.5095009803771973
1750560847859480000,0.77447998046875,-0.2052920013666153,-0.09634199738502502,0.7129520177841187
1750560847869085000,0.7840849609375,-0.19802099466323853,-0.15797999501228333,0.7842879891395569
1750560847878689800,0.793689697265625,0.06951200217008591,-0.20764200389385223,0.4861440062522888
1750560847888295000,0.803294921875,0.26583099365234375,-0.06798499822616577,-0.12755200266838074
1750560847897899500,0.8128994140625,0.14081299304962158,0.02007799968123436,-0.5740079879760742
1750560847907504400,0.82250439453125,-0.14361199736595154,0.01755700074136257,-0.8276399970054626
1750560847917109200,0.832109130859375,-0.42474299669265747,0.04381699860095978,-0.7119979858398438
1750560847926713900,0.8417138671875,-0.4598119854927063,0.00045200000749900937,-0.29029300808906555
1750560847936319000,0.851319091796875,-0.3195970058441162,-0.14452600479125977,0.2133529931306839
1750560847945923800,0.860923828125,0.06239999830722809,-0.2631320059299469,0.6243799924850464
1750560847955528700,0.87052880859375,0.5389630198478699,-0.32771700620651245,0.7096880078315735
1750560847965133600,0.880133544921875,0.7446960210800171,-0.29278799891471863,0.4547420144081116
1750560847974738200,0.88973828125,0.7779039740562439,-0.18296700716018677,0.15418900549411774
1750560847984343000,0.899343017578125,0.4396800100803375,-0.09655199944972992,-0.13166600465774536
1750560847993948200,0.9089482421875,-0.057704001665115356,-0.04761800169944763,-0.2269359976053238
1750560848003553000,0.918552978515625,-0.5029910206794739,-0.05851300060749054,-0.10641100257635117
1750560848013157600,0.92815771484375,-0.5912789702415466,-0.06226399913430214,0.029393000528216362
1750560848022762500,0.937762451171875,-0.23283399641513824,-0.09464100003242493,0.23198199272155762
1750560848032367400,0.947367431640625,0.3137519955635071,-0.049706000834703445,0.30909299850463867
1750560848041972200,0.95697216796875,0.678525984287262,0.029843999072909355,0.19465599954128265
1750560848051577000,0.9665771484375,0.565097987651825,0.07788199931383133,0.056738998740911484
1750560848061182000,0.976181884765625,0.1706099957227707,0.09422200173139572,0.014510000124573708
1750560848070786800,0.985786865234375,-0.08830299973487854,0.12304399907588959,0.0438929982483387
1750560848080391400,0.995391357421875,-0.19870999455451965,0.1295190006494522,0.07645899802446365
1750560848089996500,1.00499658203125,-0.09218200296163559,0.06354299932718277,-0.01882999949157238
1750560848099601400,1.014601318359375,0.11035899817943573,0.08717799931764603,-0.09153799712657928
1750560848109206300,1.024206298828125,0.2503879964351654,0.07160799950361252,-0.02092899940907955
1750560848118811100,1.03381103515625,0.13220000267028809,0.03378799930214882,0.10566899925470352
1750560848128415700,1.043415771484375,-0.03457700088620186,0.09795600175857544,0.19623200595378876
1750560848138020600,1.0530205078125,-0.2187580019235611,0.12333299964666367,0.1993360072374344
1750560848147625500,1.06262548828125,-0.3959139883518219,0.08538399636745453,0.018084000796079636
1750560848157230600,1.072230712890625,-0.45608898997306824,0.1236720010638237,-0.11924800276756287
1750560848166835200,1.081835205078125,-0.2778260111808777,0.1259479969739914,-0.1736000031232834
1750560848176440000,1.091440185546875,-0.12757399678230286,0.08401499688625336,-0.11736799776554108
1750560848186045000,1.101044921875,0.09766999632120132,0.04140299931168556,0.04435700178146362
1750560848195649800,1.11064990234375,0.2497369945049286,0.02560799941420555,0.11434599757194519
1750560848205254700,1.120254638671875,0.3285300135612488,0.002454000059515238,0.1646919995546341
1750560848214859500,1.129859619140625,0.32628801465034485,0.06912799924612045,0.11263900250196457
1750560848224464400,1.13946435546875,0.15118800103664398,0.05346899852156639,0.06726100295782089
1750560848234069000,1.149069091796875,-0.06713899970054626,0.036483000963926315,0.12289900332689285
1750560848243673900,1.158673828125,-0.12079299986362457,0.07193700224161148,0.04291800037026405
1750560848253278700,1.16827880859375,0.04968399927020073,0.08505000174045563,-0.0871950015425682
1750560848262883800,1.1778837890625,0.23835399746894836,0.016882000491023064,-0.25827500224113464
1750560848272488400,1.187488525390625,0.26632800698280334,0.04962899908423424,-0.34471800923347473
1750560848282093300,1.19709326171875,0.15689800679683685,0.048840999603271484,-0.22993400692939758
1750560848291698200,1.2066982421875,-0.05210300162434578,0.06454599648714066,-0.12184800207614899
1750560848301302800,1.216302734375,-0.321027010679245,0.0525050014257431,-0.07071399688720703
1750560848310908000,1.225907958984375,-0.3711180090904236,0.060718998312950134,-0.11923400312662125
1750560848320512800,1.2355126953125,-0.225150004029274,0.04205400124192238,-0.18638299405574799
1750560848330117600,1.24511767578125,0.08412499725818634,-0.02674099989235401,-0.13096199929714203
1750560848339722500,1.254722412109375,0.4846529960632324,-0.06386099755764008,-0.09798400104045868
1750560848349327400,1.264327392578125,0.587257981300354,-0.037199001759290695,-0.1488720029592514
1750560848358932200,1.27393212890625,0.4130460023880005,0.04576199874281883,-0.17273299396038055
1750560848368537000,1.283537109375,0.13684900104999542,0.05564599856734276,-0.08515399694442749
1750560848378141700,1.2931416015625,-0.08099699765443802,0.06511999666690826,-0.10030700266361237
1750560848387746600,1.30274658203125,-0.13934600353240967,0.06556200236082077,0.06508100032806396
1750560848397351400,1.312351318359375,-0.1656849980354309,0.05381200090050697,0.1822260022163391
1750560848406956300,1.321956298828125,-0.12879399955272675,0.05119699984788895,0.22630099952220917
1750560848416561200,1.33156103515625,0.05343399941921234,0.07658100128173828,0.17451100051403046
1750560848426166000,1.341166015625,0.19440099596977234,0.057895999401807785,0.09919799864292145
1750560848435771000,1.35077099609375,0.11631999909877777,0.059025999158620834,0.007290999870747328
1750560848445375700,1.360375732421875,-0.17328600585460663,0.06608899682760239,0.029083000496029854
1750560848454980600,1.369980712890625,-0.4341849982738495,0.09486600011587143,0.025072000920772552
1750560848464585500,1.37958544921875,-0.47470399737358093,0.09244299679994583,0.05160300061106682
1750560848474190300,1.3891904296875,-0.2305240035057068,0.061368998140096664,-0.019850999116897583
1750560848483795200,1.398795166015625,0.12254700064659119,0.013224000111222267,-0.12548600137233734
1750560848493399800,1.40839990234375,0.3505750000476837,0.005590000189840794,-0.20418000221252441
1750560848503005000,1.4180048828125,0.4236829876899719,0.00672899978235364,-0.20418399572372437
1750560848512609500,1.427609619140625,0.20124800503253937,-0.01686899922788143,-0.15815599262714386
1750560848522214400,1.43721435546875,-0.06236099824309349,-0.01331700012087822,-0.07231699675321579
1750560848531819300,1.4468193359375,-0.351857990026474,0.018597999587655067,0.012257000431418419
1750560848541424000,1.456424072265625,-0.4691469967365265,0.0309820007532835,0.1354150027036667
1750560848551029000,1.466029052734375,-0.3343769907951355,0.04641399905085564,0.13039399683475494
1750560848560633900,1.4756337890625,-0.046619001775979996,0.06666299700737,0.031964998692274094
1750560848570238700,1.48523876953125,0.15314799547195435,0.03076699934899807,-0.054072000086307526
1750560848579843600,1.494843505859375,0.17486199736595154,0.00798300001770258,-0.08889500051736832
1750560848589448400,1.504448486328125,-0.04973800107836723,0.014530999585986137,-0.06913000345230103
1750560848599053300,1.51405322265625,-0.26601800322532654,0.03734999895095825,-0.06758499890565872
1750560848608658000,1.523657958984375,-0.2771030068397522,0.08197999745607376,-0.04069500043988228
1750560848618263000,1.533262939453125,-0.145578995347023,0.05926400050520897,0.05915899947285652
1750560848627867600,1.54286767578125,0.13753299415111542,-0.02629300020635128,0.19081899523735046
1750560848637472500,1.552472412109375,0.37018901109695435,-0.009658999741077423,0.2584399878978729
1750560848647077400,1.562077392578125,0.3995639979839325,-0.022005999460816383,0.29421699047088623
1750560848656682200,1.57168212890625,0.15314699709415436,-0.021501999348402023,0.2684299945831299
1750560848666287000,1.581287109375,-0.10570000112056732,-0.012981999665498734,0.11920599639415741
1750560848675892000,1.59089208984375,-0.2541559934616089,0.04161699861288071,-0.1135609969496727
1750560848685496800,1.600496826171875,-0.29863500595092773,0.08056499809026718,-0.21849900484085083
1750560848695101700,1.610101806640625,-0.2402919977903366,0.06777899712324142,-0.22493499517440796
1750560848704706600,1.61970654296875,-0.09242399781942368,-0.0063669998198747635,-0.1353919953107834
1750560848714311200,1.629311279296875,0.12646999955177307,-0.07503800094127655,0.029258999973535538
1750560848723916000,1.638916015625,0.1798810064792633,-0.10913299769163132,0.13944900035858154
1750560848733521000,1.64852099609375,0.13933700323104858,-0.09766200184822083,0.19442300498485565
1750560848743125800,1.658125732421875,0.02225000038743019,-0.039795998483896255,0.16242699325084686
1750560848752730600,1.667730712890625,0.052257999777793884,0.004751000087708235,0.03504899889230728
1750560848762335500,1.67733544921875,0.07652200013399124,-0.00931399967521429,-0.10219299793243408
1750560848771940400,1.6869404296875,0.03280699998140335,0.015448000282049179,-0.15420599281787872
1750560848781545000,1.696544921875,-0.04274800047278404,-0.00026199998683296144,-0.11437500268220901
1750560848791150000,1.706150146484375,-0.2071249932050705,-0.025969000533223152,-0.04970899969339371
1750560848800755000,1.7157548828125,-0.1969670057296753,-0.020241999998688698,0.02554599940776825
1750560848810359800,1.72535986328125,-0.054375000298023224,-0.03803100064396858,0.09918999671936035
1750560848819964400,1.73496435546875,0.12243600189685822,-0.06247499957680702,0.0030690000858157873
1750560848829569300,1.7445693359375,0.2773379981517792,-0.03541899845004082,-0.08474499732255936
1750560848839174400,1.75417431640625,0.14133000373840332,-0.039368998259305954,-0.06606099754571915
1750560848848779300,1.763779296875,-0.11612500250339508,-0.0624070018529892,0.008743000216782093
1750560848858384100,1.773384033203125,-0.2740449905395508,-0.0400409996509552,-0.036035001277923584
1750560848867988700,1.78298876953125,-0.2562589943408966,-0.051649000495672226,-0.019964000210165977
1750560848877593600,1.792593505859375,-0.09198799729347229,-0.04800700023770332,-0.01654900051653385
1750560848887198500,1.802198486328125,0.21879899501800537,-0.050011999905109406,0.04935299977660179
1750560848896803300,1.81180322265625,0.4664140045642853,-0.08525700122117996,0.0599760003387928
1750560848906408400,1.821408447265625,0.5062710046768188,-0.10194999724626541,-0.07478699833154678
1750560848916013000,1.831012939453125,0.3509109914302826,-0.06404700130224228,-0.23503999412059784
1750560848925618000,1.840617919921875,-0.04102800041437149,-0.029704999178647995,-0.3129349946975708
1750560848935222800,1.850222900390625,-0.40424200892448425,0.030316999182105064,-0.1286579966545105
1750560848944827400,1.859827392578125,-0.5497329831123352,0.022698000073432922,0.12548500299453735
1750560848954432500,1.8694326171875,-0.3867200016975403,0.033806998282670975,0.18655100464820862
1750560848964037400,1.879037353515625,-0.06254100054502487,0.056449998170137405,0.14704599976539612
1750560848973642000,1.88864208984375,0.1574140042066574,0.034327998757362366,0.0348070003092289
1750560848983246800,1.898246826171875,0.19073499739170074,0.07434599846601486,-0.04638399928808212
1750560848992851700,1.907851806640625,0.04848700016736984,0.08519600331783295,0.0330829992890358
1750560849002456300,1.917456298828125,-0.09945599734783173,0.07661300152540207,0.10392100363969803
1750560849012061400,1.9270615234375,-0.09104199707508087,0.08623500168323517,0.1976040005683899
1750560849021666000,1.936666015625,0.06471200287342072,0.09802500158548355,0.19419600069522858
1750560849031271200,1.946271240234375,0.1300330013036728,0.08590000122785568,0.07765500247478485
1750560849040876000,1.9558759765625,0.13352100551128387,0.0588809996843338,-0.016992000862956047
1750560849050480600,1.965480712890625,0.055233001708984375,0.06033099815249443,-0.01464099995791912
1750560849060085500,1.97508544921875,-0.04065300151705742,0.04058700054883957,0.0030330000445246696
1750560849069690400,1.9846904296875,-0.14084100723266602,-0.013326000422239304,0.10297700017690659
1750560849079295500,1.99429541015625,-0.05951299890875816,-0.06591600179672241,0.08438000082969666
1750560849088900400,2.003900390625,0.2642129957675934,-0.06679099798202515,-0.04410399869084358
1750560849098505000,2.0135048828125,0.5543469786643982,-0.05649900063872337,-0.04825200140476227
1750560849108109800,2.02310986328125,0.4538620114326477,-0.10869800299406052,0.05073900148272514
1750560849117714700,2.032714599609375,0.14157900214195251,-0.10016299784183502,0.2986280024051666
1750560849127319600,2.042319580078125,-0.14017300307750702,-0.04345500096678734,0.37661999464035034
1750560849136924400,2.05192431640625,-0.32190701365470886,-0.06405100226402283,0.24816900491714478
1750560849146529300,2.061529296875,-0.2995539903640747,0.0270990002900362,-0.032659001648426056
1750560849156134000,2.0711337890625,-0.21448799967765808,0.07283099740743637,-0.2039099931716919
1750560849165738800,2.08073876953125,-0.2604439854621887,0.025086000561714172,-0.23624500632286072
1750560849175343900,2.09034375,-0.433459997177124,0.015250000171363354,-0.12893299758434296
1750560849184948700,2.09994873046875,-0.5961369872093201,0.03973099961876869,-0.10234600305557251
1750560849194553600,2.1095537109375,-0.5949649810791016,-0.0075599998235702515,-0.17801900207996368
1750560849204158200,2.119158203125,-0.4271810054779053,-0.056331999599933624,-0.1741729974746704
1750560849213763000,2.12876318359375,-0.21758699417114258,-0.09185700118541718,-0.09698499739170074
1750560849223368000,2.138367919921875,0.08169200271368027,-0.1165039986371994,-0.02576499991118908
1750560849232972800,2.147972900390625,0.4249970018863678,-0.10193599760532379,0.0994269996881485
1750560849242577700,2.15757763671875,0.6444309949874878,-0.0538409985601902,0.11361899971961975
1750560849252182500,2.1671826171875,0.5674830079078674,0.0018949999939650297,0.040024999529123306
1750560849261787400,2.176787353515625,0.25453099608421326,0.04625599831342697,-0.04684099927544594
1750560849271392000,2.18639208984375,-0.08190900087356567,0.08469100296497345,-0.11198200285434723
1750560849280997000,2.1959970703125,-0.26729699969291687,0.07829400151968002,-0.004683000035583973
1750560849290602000,2.20560205078125,-0.3121449947357178,0.060906000435352325,0.13677099347114563
1750560849300206600,2.21520654296875,-0.10805100202560425,0.057041000574827194,0.14527300000190735
1750560849309811500,2.2248115234375,0.20280900597572327,0.047026000916957855,0.01655299961566925
1750560849319416300,2.234416259765625,0.41995200514793396,0.029357999563217163,-0.023587999865412712
1750560849329021200,2.244021240234375,0.423211008310318,-0.03510100021958351,-0.023521000519394875
1750560849338626000,2.2536259765625,0.25760599970817566,-0.06584200263023376,0.0030769999139010906
1750560849348231200,2.263231201171875,0.12707200646400452,-0.06584300100803375,-0.005932999774813652
1750560849357835800,2.272835693359375,0.03529699891805649,-0.02888300083577633,-0.129613995552063
1750560849367440600,2.282440673828125,0.02811099961400032,-0.028849000111222267,-0.24529999494552612
1750560849377045500,2.29204541015625,0.008496999740600586,-0.04972900077700615,-0.21461400389671326
1750560849386650400,2.301650390625,-0.08613999933004379,-0.03918499872088432,-0.1705940067768097
1750560849396255200,2.311255126953125,-0.17173899710178375,-0.055011000484228134,-0.1032010018825531
1750560849405860000,2.320860107421875,-0.21058900654315948,-0.09092800319194794,0.06405600160360336
1750560849415465000,2.33046484375,-0.14414100348949432,-0.07578200101852417,0.12883399426937103
1750560849425069800,2.34006982421875,0.028984999284148216,-0.06323699653148651,0.07653699815273285
1750560849434674400,2.34967431640625,0.25253400206565857,-0.08041100203990936,-0.052597999572753906
1750560849444279600,2.359279541015625,0.42669299244880676,-0.03091599978506565,-0.08241300284862518
1750560849453884400,2.368884521484375,0.3363179862499237,-0.007797999773174524,-0.09976299852132797
1750560849463489000,2.378489013671875,0.05973700061440468,0.012133000418543816,0.020831000059843063
1750560849473094000,2.388093994140625,-0.1986680030822754,0.03097499907016754,0.12916299700737
1750560849482698800,2.39769873046875,-0.37389400601387024,0.04198899865150452,0.1021369993686676
1750560849492303600,2.4073037109375,-0.35699498653411865,0.017183000221848488,0.08658500015735626
1750560849501908500,2.416908447265625,-0.23384599387645721,0.03825800120830536,0.019951999187469482
1750560849511513300,2.426513427734375,-0.05180500075221062,0.021407999098300934,-0.014930999837815762
1750560849521118200,2.4361181640625,0.1734289973974228,0.03464699909090996,-0.05190100148320198
1750560849530722800,2.445722900390625,0.15084299445152283,-0.010369000025093555,-0.09655100107192993
1750560849540328000,2.455327880859375,-0.004627999849617481,-0.03139900043606758,0.030136000365018845
1750560849549932500,2.4649326171875,-0.13418400287628174,0.004040999803692102,0.16166499257087708
1750560849559537700,2.47453759765625,-0.2928690016269684,-0.018209999427199364,0.2932319939136505
1750560849569142500,2.484142578125,-0.305990993976593,-0.01822900027036667,0.3391309976577759
1750560849578747100,2.4937470703125,-0.03512800112366676,0.03240000084042549,0.2348109930753708
1750560849588352000,2.50335205078125,0.2949880063533783,0.031043000519275665,0.07519999891519547
1750560849597956900,2.512956787109375,0.5940859913825989,0.02874699980020523,-0.03215600177645683
1750560849607561700,2.522561767578125,0.6323249936103821,0.06630200147628784,-0.0819230005145073
1750560849617166600,2.53216650390625,0.35485100746154785,0.057976000010967255,-0.09257099777460098
1750560849626771500,2.541771484375,-0.16265100240707397,0.029714999720454216,-0.015313000418245792
1750560849636376300,2.551376220703125,-0.4879249930381775,0.03653800114989281,0.02466999925673008
1750560849645981200,2.560981201171875,-0.4637640118598938,0.008481999859213829,0.11092499643564224
1750560849655586000,2.5705859375,-0.19268499314785004,-0.03364799916744232,0.1927890032529831
1750560849665191000,2.58019091796875,0.10298699885606766,-0.03528600186109543,0.19196200370788574
1750560849674795500,2.58979541015625,0.2915639877319336,-0.002727000042796135,0.0914120003581047
1750560849684400400,2.599400390625,0.43108201026916504,-0.014077999629080296,-0.04884300008416176
1750560849694005500,2.609005615234375,0.4030900001525879,0.016812000423669815,-0.14711099863052368
1750560849703610400,2.6186103515625,0.2578350007534027,0.02930299937725067,-0.24827399849891663
1750560849713215000,2.628215087890625,0.13810299336910248,0.014960000291466713,-0.23184899985790253
1750560849722819800,2.63781982421875,0.035002000629901886,-0.01915699988603592,-0.21741099655628204
1750560849732425000,2.647425048828125,-0.19923800230026245,-0.07155799865722656,-0.10583999752998352
1750560849742029600,2.657029541015625,-0.37771499156951904,-0.06341700255870819,0.013612000271677971
1750560849751634400,2.666634521484375,-0.4931870102882385,-0.08497700095176697,0.1122869998216629
1750560849761239600,2.676239501953125,-0.4508819878101349,-0.0718889981508255,0.20057199895381927
1750560849770844200,2.68584423828125,-0.18133999407291412,-0.04901000112295151,0.24119800329208374
1750560849780449000,2.695448974609375,0.2612529993057251,-0.014317000284790993,0.10760100185871124
1750560849790054000,2.705053955078125,0.5715479850769043,-0.020269999280571938,0.005688999779522419
1750560849799659000,2.714658935546875,0.5213630199432373,0.002785000018775463,-0.017483999952673912
1750560849809263600,2.724263671875,0.19453400373458862,0.03791999816894531,0.01728699915111065
1750560849818868500,2.733868408203125,-0.3183630108833313,0.03218799829483032,0.1102370023727417
1750560849828473000,2.74347314453125,-0.5487290024757385,0.05768299847841263,0.09765700250864029
1750560849838078000,2.753077880859375,-0.5199229717254639,0.09528599679470062,0.004858000203967094
1750560849847682800,2.762682861328125,-0.4363510012626648,0.05589599907398224,-0.007375999819487333
1750560849857288000,2.772287841796875,-0.21445900201797485,0.017141999676823616,-0.18015700578689575
1750560849866892500,2.781892578125,-0.06251999735832214,-0.0049749999307096004,-0.2938390076160431
1750560849876497400,2.791497314453125,0.022089000791311264,-0.049835000187158585,-0.2861489951610565
1750560849886102300,2.801102294921875,0.0067079998552799225,-0.030827999114990234,-0.1672549992799759
1750560849895707100,2.81070703125,-0.01915300078690052,-0.03784099966287613,-0.06122099980711937
1750560849905312000,2.82031201171875,-0.0476979985833168,-0.07802899926900864,-0.022703999653458595
1750560849914916900,2.829916748046875,-0.014379000291228294,-0.0722069963812828,-0.022088000550866127
1750560849924521700,2.839521728515625,-0.06430099904537201,-0.045517999678850174,-0.058375000953674316
1750560849934126600,2.849126708984375,-0.141185000538826,-0.03781000152230263,-0.15504500269889832
1750560849943731500,2.8587314453125,-0.1947149932384491,0.0011650000233203173,-0.22916799783706665
1750560849953336000,2.868336181640625,-0.23153500258922577,-0.0029460000805556774,-0.0902630016207695
1750560849962941000,2.87794091796875,-0.15210199356079102,-0.009948000311851501,0.10014600306749344
1750560849972545800,2.8875458984375,0.00003400000059627928,0.01919800043106079,0.18280500173568726
1750560849982150700,2.897150634765625,0.19376899302005768,0.020049000158905983,0.13094499707221985
1750560849991755500,2.906755615234375,0.36953699588775635,-0.012427999638020992,-0.023445000872015953
1750560850001360400,2.9163603515625,0.5222569704055786,-0.004393999930471182,-0.1412159949541092
1750560850010965200,2.92596533203125,0.4852510094642639,-0.04903300106525421,-0.08949600160121918
1750560850020570400,2.9355703125,0.29535600543022156,-0.03363100066781044,0.012489000335335732
1750560850030175000,2.945175048828125,0.07820399850606918,-0.0004459999909158796,0.09140300005674362
1750560850039779800,2.95477978515625,-0.1062450036406517,-0.013356000185012817,0.13400399684906006
1750560850049384400,2.964384521484375,-0.0926709994673729,-0.003647000063210726,0.07010100036859512
1750560850058989600,2.973989501953125,-0.04249899834394455,0.013278000056743622,0.004366000182926655
1750560850068594400,2.983594482421875,0.022610999643802643,0.03994600102305412,-0.07432299852371216
1750560850078199300,2.99319921875,0.10306400060653687,0.04942300170660019,-0.0718970000743866
1750560850087804000,3.002803955078125,0.17619800567626953,0.016846999526023865,-0.09376399964094162
1750560850097408800,3.01240869140625,0.24379700422286987,0.021136999130249023,-0.029006000608205795
1750560850107014000,3.022013916015625,0.24025499820709229,0.03162899985909462,-0.010596999898552895
1750560850116618800,3.03161865234375,0.08633700013160706,-0.016950000077486038,0.07606799900531769
1750560850126223400,3.041223388671875,-0.036042001098394394,-0.014359000138938427,0.1391959935426712
1750560850135828200,3.050828125,-0.08026300370693207,0.012589000165462494,0.059822000563144684
1750560850145433300,3.060433349609375,-0.06289199739694595,-0.00019200000679120421,0.05128299817442894
1750560850155038200,3.0700380859375,0.06457299739122391,0.0190420001745224,0.06519100069999695
1750560850164642800,3.079642822265625,0.23925499618053436,0.03527500107884407,0.03375200182199478
1750560850174247700,3.08924755859375,0.26927798986434937,-0.014101999811828136,-0.028658000752329826
1750560850183852800,3.098852783203125,0.13054899871349335,0.005747999995946884,-0.006694999989122152
1750560850193457400,3.10845751953125,-0.013398000039160252,0.01002699974924326,0.027844000607728958
1750560850203062300,3.118062255859375,-0.19013899564743042,-0.011495999991893768,0.05280100181698799
1750560850212667100,3.127667236328125,-0.24860000610351562,-0.015174999833106995,0.07221700251102448
1750560850222272000,3.13727197265625,-0.22381600737571716,0.02500299923121929,0.059714000672101974
1750560850231876900,3.146876953125,-0.1869560033082962,0.013251000083982944,0.024203000590205193
1750560850241481500,3.1564814453125,-0.1236020028591156,-0.0026100000832229853,-0.011745000258088112
1750560850251086300,3.16608642578125,0.023840000852942467,-0.04341299831867218,-0.09113900363445282
1750560850260691200,3.175691162109375,0.08337599784135818,-0.06502600014209747,-0.1561869978904724
1750560850270296300,3.18529638671875,0.033973999321460724,-0.05951999872922897,-0.15703000128269196
1750560850279901000,3.19490087890625,-0.1076280027627945,-0.0399009995162487,0.01312199980020523
1750560850289505800,3.204505859375,-0.2039639949798584,-0.045003000646829605,0.1653980016708374
1750560850299110700,3.214110595703125,-0.18835699558258057,-0.010985000059008598,0.16631700098514557
1750560850308715300,3.22371533203125,-0.03715100139379501,-0.02504800073802471,0.11232999712228775
1750560850318320000,3.233320068359375,0.07439599931240082,-0.038658998906612396,0.00139999995008111
1750560850327925000,3.242925048828125,0.16311399638652802,-0.04789400100708008,-0.1515049934387207
1750560850337529900,3.25252978515625,0.21334800124168396,-0.04009300097823143,-0.12841899693012238
1750560850347135000,3.262135009765625,0.15896199643611908,-0.035868000239133835,-0.016969000920653343
1750560850356739600,3.271739501953125,0.15313300490379333,0.031092999503016472,0.011117000132799149
1750560850366344400,3.281344482421875,0.2547549903392792,0.029032999649643898,-0.03491700068116188
1750560850375949300,3.29094921875,0.3338499963283539,0.02835099957883358,-0.10632699728012085
1750560850385554200,3.30055419921875,0.29803600907325745,0.0507269985973835,-0.1663070023059845
1750560850395158800,3.31015869140625,0.13027699291706085,0.06201000139117241,-0.10869699716567993
1750560850404764000,3.319763916015625,-0.161190003156662,0.03670100122690201,0.05673599988222122
1750560850414368500,3.329368408203125,-0.395702987909317,0.04137299954891205,0.17426399886608124
1750560850423973600,3.3389736328125,-0.4245710074901581,0.04650900140404701,0.17963799834251404
1750560850433578200,3.348578125,-0.34783801436424255,0.03407900035381317,0.09825599938631058
1750560850443183000,3.35818310546875,-0.1563359946012497,0.09074900299310684,0.020201999694108963
1750560850452788200,3.367788330078125,0.11349199712276459,0.10949800163507462,-0.08487600088119507
1750560850462392800,3.377392822265625,0.2489130049943924,0.103363998234272,-0.15068599581718445
1750560850471997700,3.386997802734375,0.25506100058555603,0.06368999928236008,-0.12491600215435028
1750560850481602600,3.3966025390625,0.22028400003910065,0.04962100088596344,-0.010998000390827656
1750560850491207400,3.40620751953125,0.15128499269485474,0.013899000361561775,0.08295699954032898
1750560850500812000,3.41581201171875,0.17093700170516968,-0.005293999798595905,0.18213100731372833
1750560850510417200,3.425417236328125,0.07057599723339081,-0.013028999790549278,0.19235900044441223
1750560850520021800,3.435021728515625,-0.05511099845170975,-0.0013800000306218863,0.10851400345563889
1750560850529627000,3.444626953125,-0.1539520025253296,0.061473000794649124,0.0181099995970726
1750560850539231700,3.454231689453125,-0.16897200047969818,0.06694699823856354,-0.05279399827122688
1750560850548836400,3.46383642578125,-0.1312830001115799,0.042256999760866165,-0.15238900482654572
1750560850558441200,3.473441162109375,-0.1033490002155304,0.009219000115990639,-0.16990399360656738
1750560850568046000,3.483046142578125,0.011427000164985657,-0.027719000354409218,-0.12240099906921387
1750560850577651000,3.49265087890625,0.17891299724578857,-0.0702269971370697,-0.029391000047326088
1750560850587255800,3.502255859375,0.2983269989490509,-0.0948840007185936,-0.004614000208675861
1750560850596860700,3.511860595703125,0.4320000112056732,-0.06424999982118607,-0.08675800263881683
1750560850606465300,3.52146533203125,0.24242499470710754,-0.08573000133037567,-0.045643001794815063
1750560850616070100,3.531070068359375,-0.05527900159358978,-0.10712599754333496,0.007021000143140554
1750560850625675300,3.54067529296875,-0.3006359934806824,-0.03729100152850151,-0.07326599955558777
1750560850635280100,3.550280029296875,-0.42924100160598755,-0.05356600135564804,-0.15759499371051788
1750560850644885000,3.559885009765625,-0.3449830114841461,-0.03014400042593479,-0.22972099483013153
1750560850654489600,3.569489501953125,-0.11758799850940704,-0.04015199840068817,-0.2086540013551712
1750560850664094700,3.5790947265625,0.0710190013051033,-0.028774000704288483,-0.16684399545192719
1750560850673699300,3.58869921875,0.10713200271129608,-0.008969999849796295,-0.06728299707174301
1750560850683304200,3.59830419921875,-0.0804309993982315,-0.004207000136375427,0.12357000261545181
1750560850692909000,3.607908935546875,-0.30120399594306946,0.024723000824451447,0.16764399409294128
1750560850702514000,3.617513916015625,-0.3014650046825409,0.02725600078701973,0.06855800002813339
1750560850712118800,3.627118896484375,-0.20716699957847595,0.02531599998474121,-0.019386999309062958
1750560850721723400,3.636723388671875,-0.05215299874544144,0.03579699993133545,-0.00038499999209307134
1750560850731328500,3.64632861328125,0.07889799773693085,0.061243001371622086,0.09325599670410156
1750560850740933400,3.655933349609375,0.22912999987602234,0.06340999901294708,0.12093300372362137
1750560850750538200,3.665538330078125,0.2813510000705719,0.07258299738168716,0.07878900319337845
1750560850760143000,3.67514306640625,0.17629900574684143,0.07278099656105042,0.09669200330972672
1750560850769747700,3.684747802734375,-0.04790399968624115,0.07775600254535675,0.07767000049352646
1750560850779352600,3.6943525390625,-0.3032670021057129,0.03818599879741669,0.020284999161958694
1750560850788957700,3.703957763671875,-0.2628740072250366,0.045761000365018845,0.0430000014603138
1750560850798562600,3.7135625,-0.03566500172019005,0.012649999931454659,0.07948900014162064
1750560850808167200,3.723167236328125,0.2131350040435791,-0.03960999846458435,0.11394999921321869
1750560850817772000,3.73277197265625,0.3689109981060028,0.01614299975335598,0.14472199976444244
1750560850827377000,3.742376953125,0.34682801365852356,0.024111999198794365,0.02674099989235401
1750560850836981800,3.751981689453125,0.204135000705719,0.002876000013202429,-0.02244899980723858
1750560850846586600,3.761586669921875,0.1764490008354187,0.02860100008547306,-0.09746100008487701
1750560850856191500,3.77119140625,0.07392500340938568,-0.010219999589025974,-0.1726990044116974
1750560850865796400,3.78079638671875,0.06483999639749527,-0.025016000494360924,-0.21428599953651428
1750560850875401200,3.790401123046875,0.01343700010329485,-0.007329000160098076,-0.16925300657749176
1750560850885006000,3.800006103515625,-0.08215200155973434,-0.0083619998767972,-0.005009000189602375
1750560850894610700,3.809610595703125,-0.132409006357193,-0.04298499971628189,0.20027600228786469
1750560850904215800,3.8192158203125,-0.11263799667358398,0.019658999517560005,0.22384099662303925
1750560850913820700,3.828820556640625,0.03815000131726265,0.024296000599861145,0.175135999917984
1750560850923425300,3.83842529296875,0.1815820038318634,0.013395999558269978,0.054558999836444855
1750560850933030100,3.848030029296875,0.139615997672081,0.04381699860095978,-0.04323799908161163
1750560850942634800,3.857634765625,-0.07874999940395355,0.03783600032329559,0.044411998242139816
1750560850952239900,3.867239990234375,-0.32684099674224854,0.06414499878883362,0.055038999766111374
1750560850961844700,3.8768447265625,-0.4317780137062073,0.054575998336076736,-0.04762199893593788
1750560850971449600,3.88644970703125,-0.3372269868850708,0.014715000055730343,-0.10795900225639343
1750560850981054200,3.89605419921875,-0.02922300063073635,-0.043779999017715454,-0.11200600117444992
1750560850990659300,3.905659423828125,0.25130701065063477,-0.10548599809408188,-0.05891599878668785
1750560851000264200,3.91526416015625,0.33072200417518616,-0.12580299377441406,0.09669899940490723
1750560851009869000,3.924869140625,0.20528000593185425,-0.12455400079488754,0.16366100311279297
1750560851019473700,3.9344736328125,-0.018856000155210495,-0.07484199851751328,0.11299099773168564
1750560851029078500,3.94407861328125,-0.17288999259471893,-0.006082000210881233,-0.02488500066101551
1750560851038683600,3.95368359375,-0.14497900009155273,-0.008898000232875347,-0.2126459926366806
1750560851048288300,3.963288330078125,-0.006680000107735395,0.04879000037908554,-0.24223800003528595
1750560851057893000,3.97289306640625,0.05743199959397316,0.01860800012946129,-0.15099899470806122
1750560851067498000,3.982498046875,-0.03018300049006939,0.012501999735832214,-0.01663699932396412
1750560851077102800,3.992102783203125,-0.13907000422477722,0.028882000595331192,0.1674489974975586
1750560851086707700,4.001707763671875,-0.12547600269317627,0.05193899944424629,0.13720600306987762
1750560851096312600,4.0113125,-0.04253700003027916,0.030632000416517258,0.030341999605298042
1750560851105917400,4.02091748046875,0.06880199909210205,0.008321000263094902,-0.02384600043296814
1750560851115522300,4.030522216796875,0.028224999085068703,0.04650000110268593,-0.057516999542713165
1750560851125127200,4.040127197265625,-0.11459799855947495,0.039806999266147614,-0.07291100174188614
1750560851134731800,4.049731689453125,-0.17975200712680817,0.024504000321030617,-0.05050700157880783
1750560851144337000,4.0593369140625,-0.1525759994983673,0.029719000682234764,-0.02385599911212921
1750560851153941800,4.068941650390625,-0.021929999813437462,-0.01447799988090992,0.08550000190734863
1750560851163546600,4.078546630859375,0.028707999736070633,-0.04696499928832054,0.1459980010986328
1750560851173151500,4.0881513671875,0.08538100123405457,-0.061021000146865845,0.07542499899864197
1750560851182756000,4.097756103515625,0.18386000394821167,-0.0347759984433651,-0.1145080029964447
1750560851192361000,4.10736083984375,0.27182599902153015,-0.01192499976605177,-0.15671400725841522
1750560851201965600,4.116965576171875,0.2880440056324005,-0.039482999593019485,-0.11375000327825546
1750560851211570700,4.12657080078125,0.22695599496364594,-0.043226998299360275,0.031904999166727066
1750560851221175600,4.136175537109375,0.15908999741077423,-0.024614999070763588,0.07938800007104874
1750560851230780400,4.145780517578125,-0.05004600062966347,-0.043765000998973846,0.15802699327468872
1750560851240385300,4.15538525390625,-0.10940500348806381,-0.0360880009829998,0.21590900421142578
1750560851249990000,4.164989990234375,-0.16503499448299408,0.03453899919986725,0.10133299976587296
1750560851259594800,4.1745947265625,-0.3897939920425415,-0.00443299999460578,-0.03439199924468994
1750560851269200000,4.184199951171875,-0.4507730007171631,0.0440870001912117,-0.18749800324440002
1750560851278804700,4.1938046875,-0.2445490062236786,0.10217899829149246,-0.25657200813293457
1750560851288409600,4.20340966796875,0.06437300145626068,0.008426000364124775,-0.1997089982032776
1750560851298014200,4.21301416015625,0.372530996799469,-0.06741300225257874,-0.1450749933719635
1750560851307619000,4.222619140625,0.542589008808136,-0.07164900004863739,-0.10637100040912628
1750560851317224200,4.23222412109375,0.26396700739860535,-0.09901999682188034,0.05033000186085701
1750560851326828800,4.241828857421875,-0.14005599915981293,-0.1217620000243187,0.1787160038948059
1750560851336433700,4.25143359375,-0.41233399510383606,-0.05142100155353546,0.10556899756193161
1750560851346038500,4.26103857421875,-0.5168150067329407,-0.013067999854683876,-0.06529399752616882
1750560851355643400,4.270643310546875,-0.43570899963378906,-0.036566998809576035,-0.26542899012565613
1750560851365248300,4.280248291015625,-0.34674298763275146,0.0032500000670552254,-0.35165101289749146
1750560851374853000,4.28985302734375,0.20585699379444122,0.001914000022225082,-0.08121000230312347
1750560851384458000,4.2994580078125,0.562205970287323,-0.05139100179076195,0.06401599943637848
1750560851394062800,4.309062744140625,0.7950509786605835,-0.07643099874258041,0.19762900471687317
1750560851403667500,4.31866748046875,0.9138410091400146,0.006585999857634306,0.2667990028858185
1750560851413272600,4.3282724609375,0.679876983165741,0.02964800037443638,0.20905999839305878
1750560851422877400,4.33787744140625,0.09365099668502808,-0.04007299989461899,0.22174100577831268
1750560851432482000,4.34748193359375,-0.46424201130867004,-0.037209998816251755,0.4141849875450134
1750560851442087000,4.3570869140625,-0.8067169785499573,0.059105999767780304,0.5655570030212402
1750560851451691800,4.36669189453125,-0.7744399905204773,0.06974100321531296,0.5323699712753296
1750560851461296600,4.376296630859375,-0.44006600975990295,0.053082000464200974,0.18969200551509857
1750560851470901200,4.3859013671875,-0.017674999311566353,0.13869799673557281,-0.12097900360822678
1750560851480506400,4.39550634765625,0.07496199756860733,0.12464600056409836,0.11452499777078629
1750560851490111200,4.405111328125,0.12226299941539764,-0.06731300055980682,1.195647954940796
1750560851499716000,4.414716064453125,0.5733429789543152,-0.3167549967765808,3.7929210662841797
1750560851509320700,4.42432080078125,0.7156789898872375,-0.6320419907569885,6.652393817901611
1750560851518925600,4.433925537109375,1.2781599760055542,-1.1756739616394043,10.034527778625488
1750560851528530400,4.443530517578125,2.2788820266723633,-1.5604180097579956,10.1724853515625
1750560851538135600,4.453135498046875,2.6878879070281982,-1.3817310333251953,7.060338020324707
1750560851547740200,4.462740234375,2.9100499153137207,-1.0482219457626343,3.992961883544922
1750560851557345000,4.472344970703125,3.0632340908050537,-1.1807750463485718,2.0361669063568115
1750560851566950000,4.481949951171875,3.4046669006347656,-1.7257529497146606,2.394484043121338
1750560851576554500,4.491554443359375,2.6601600646972656,-1.8042269945144653,0.6700230240821838
1750560851586159600,4.50115966796875,1.0511889457702637,-1.5298199653625488,-1.320942997932434
1750560851595764500,4.510764404296875,-0.7989580035209656,-0.7403659820556641,-3.490886926651001
1750560851605369300,4.520369384765625,-2.5181870460510254,0.008690999820828438,-6.32308292388916
1750560851614974200,4.52997412109375,-3.4784839153289795,0.3892199993133545,-7.729461193084717
1750560851624578800,4.539578857421875,-3.2929329872131348,0.6736040115356445,-7.806014060974121
1750560851634184000,4.549183837890625,-2.32401704788208,0.4372049868106842,-5.697099208831787
1750560851643788800,4.558788818359375,-1.7408299446105957,-0.019046999514102936,-3.278834104537964
1750560851653393700,4.5683935546875,-1.8377959728240967,-0.3816950023174286,-2.5552690029144287
1750560851662998500,4.57799853515625,-1.6867200136184692,-0.4430060088634491,-2.900221109390259
1750560851672603100,4.58760302734375,-1.0603070259094238,-0.4346329867839813,-3.3546791076660156
1750560851682208000,4.5972080078125,-0.5167289972305298,-0.4818669855594635,-4.133772850036621
1750560851691813000,4.606813232421875,0.2818410098552704,-0.5676259994506836,-5.323686122894287
1750560851701417700,4.616417724609375,1.045570969581604,-0.4916830062866211,-6.5958051681518555
1750560851711022600,4.626022705078125,1.413912057876587,-0.5374280214309692,-7.862946033477783
1750560851720627500,4.63562744140625,0.7904649972915649,-1.0667829513549805,-6.9636712074279785
1750560851730232000,4.645232177734375,-1.108309030532837,-1.7358119487762451,-3.5571041107177734
1750560851739837200,4.654837158203125,-2.8354549407958984,-2.052539110183716,-1.3231749534606934
1750560851749442000,4.664442138671875,-2.852499008178711,-2.3166959285736084,-0.27134498953819275
1750560851759047000,4.674046875,-1.0288200378417969,-2.421041965484619,0.14973700046539307
1750560851768651500,4.683651611328125,1.3505109548568726,-2.269325017929077,-0.3182860016822815
1750560851778256400,4.69325634765625,2.359783887863159,-2.435049057006836,0.8222630023956299
1750560851787861200,4.702861328125,1.7137329578399658,-2.5546538829803467,3.7620151042938232
1750560851797466000,4.712466064453125,0.8002240061759949,-2.0915000438690186,7.158411026000977
1750560851807071000,4.722071044921875,0.38555899262428284,-1.3135099411010742,8.611058235168457
1750560851816675800,4.73167578125,1.7293059825897217,-0.6311709880828857,6.950109958648682
1750560851826280700,4.74128076171875,3.1440510749816895,-0.023744000121951103,4.404451847076416
1750560851835885600,4.750885498046875,3.450977087020874,0.038252998143434525,2.392918109893799
1750560851845490200,4.760490234375,2.5534238815307617,0.11554399877786636,1.8682379722595215
1750560851855095300,4.77009521484375,0.9740560054779053,0.19592200219631195,2.281968116760254
1750560851864700200,4.7797001953125,-0.4649119973182678,0.20958200097084045,2.840740919113159
1750560851874305000,4.789304931640625,-1.1795560121536255,0.2685230076313019,2.9725310802459717
1750560851883910000,4.798909912109375,-1.3824540376663208,0.25440099835395813,2.7670950889587402
1750560851893514800,4.8085146484375,-1.048414945602417,0.26905301213264465,2.420353889465332
1750560851903119400,4.818119384765625,-0.5707100033760071,0.2790069878101349,1.9750720262527466
1750560851912724500,4.827724365234375,-0.6527429819107056,0.3890480101108551,1.1747169494628906
1750560851922329000,4.8373291015625,-0.5625560283660889,0.31943899393081665,0.2943600118160248
1750560851931934000,4.846933837890625,-0.33802199363708496,0.17583900690078735,-0.34025999903678894
1750560851941538800,4.856538818359375,0.1861809939146042,0.08018899708986282,-0.5179880261421204
1750560851951143400,4.866143310546875,0.7043660283088684,-0.023065999150276184,-0.02779100090265274
1750560851960748800,4.875748779296875,0.9233859777450562,-0.16170600056648254,0.807915985584259
1750560851970353400,4.885353515625,0.8188380002975464,-0.4322679936885834,1.6186480522155762
1750560851979958300,4.894958251953125,0.610988974571228,-0.3812440037727356,1.5297800302505493
1750560851989563100,4.904563232421875,0.3426539897918701,-0.25048500299453735,0.8881059885025024
1750560851999167700,4.914167724609375,0.046643998473882675,-0.18284200131893158,0.22795000672340393
1750560852008772900,4.92377294921875,-0.10519099980592728,-0.10389299690723419,-0.23014000058174133
1750560852018377500,4.93337744140625,-0.30819401144981384,0.05153400078415871,-0.4160139858722687
1750560852027982300,4.942982421875,-0.5516870021820068,0.0016049999976530671,-0.533607006072998
1750560852037587200,4.952587158203125,-0.7226579785346985,-0.06848499923944473,-0.6341429948806763
1750560852047192000,4.962192138671875,-0.7763739824295044,-0.16758699715137482,-0.5393620133399963
1750560852056797000,4.971796875,-0.7244899868965149,-0.28554800152778625,-0.14161400496959686
1750560852066401800,4.98140185546875,-0.4701859951019287,-0.3264940083026886,0.30674898624420166
1750560852076006700,4.991006591796875,0.010487000457942486,-0.3411110043525696,0.6661980152130127
1750560852085611500,5.000611572265625,0.6341189742088318,-0.32183998823165894,0.5606899857521057
1750560852095216400,5.01021630859375,0.9864060282707214,-0.27008500695228577,0.2373560070991516
1750560852104821000,5.019821044921875,0.8634439706802368,-0.17610999941825867,-0.09767799824476242
1750560852114426000,5.029426025390625,0.3858959972858429,-0.07694700360298157,-0.38498300313949585
1750560852124031000,5.039031005859375,-0.15079399943351746,-0.05823700129985809,-0.3606100082397461
1750560852133635600,5.048635498046875,-0.45968300104141235,-0.12297999858856201,-0.2339089959859848
1750560852143240400,5.058240478515625,-0.5971440076828003,-0.17523400485515594,0.09773900359869003
1750560852152845300,5.06784521484375,-0.5160070061683655,-0.20079900324344635,0.38133400678634644
1750560852162450400,5.077450439453125,-0.04304900020360947,-0.10443700104951859,0.2710539996623993
1750560852172055000,5.087054931640625,0.29268699884414673,-0.09197799861431122,-0.007674000225961208
1750560852181660000,5.096659912109375,0.525842010974884,-0.10567200183868408,-0.18397699296474457
1750560852191264800,5.1062646484375,0.568120002746582,-0.08962800353765488,-0.33130401372909546
1750560852200869600,5.11586962890625,0.439191997051239,-0.10958199948072433,-0.34079301357269287
1750560852210474200,5.12547412109375,0.20914800465106964,-0.17769500613212585,-0.1394760012626648
1750560852220079400,5.135079345703125,0.13572999835014343,-0.11572899669408798,-0.02616400085389614
1750560852229684200,5.144684326171875,0.05815799906849861,-0.08661100268363953,0.030540000647306442
1750560852239289000,5.1542890625,0.007220999803394079,-0.10789799690246582,0.15536700189113617
1750560852248894000,5.16389404296875,-0.04048699885606766,-0.08024299889802933,0.18352100253105164
1750560852258498600,5.17349853515625,-0.0810920000076294,-0.06986399739980698,0.0756789967417717
1750560852268103400,5.183103515625,-0.10331699997186661,-0.057454001158475876,-0.2170879989862442
1750560852277708300,5.192708251953125,-0.08390700072050095,-0.08187200129032135,-0.33440300822257996
1750560852287313200,5.202313232421875,0.023648999631404877,-0.08965399861335754,-0.26665401458740234
1750560852296918000,5.21191796875,0.23067699372768402,-0.10822299867868423,-0.17994000017642975
1750560852306523000,5.22152294921875,0.5747079849243164,-0.0959630012512207,-0.1737380027770996
1750560852316127700,5.231127685546875,0.7784439921379089,-0.1001179963350296,-0.1313520073890686
1750560852325732600,5.240732666015625,0.6225990056991577,-0.13896700739860535,-0.04355200007557869
1750560852335337500,5.25033740234375,0.194365993142128,-0.08050200343132019,-0.05042700096964836
1750560852344942300,5.2599423828125,-0.2317429929971695,-0.06519600003957748,-0.08315099775791168
1750560852354547200,5.269547119140625,-0.3776800036430359,-0.058758001774549484,-0.14731499552726746
1750560852364152000,5.279152099609375,-0.3202719986438751,-0.046195000410079956,-0.14620600640773773
1750560852373756700,5.288756591796875,-0.06187799945473671,-0.018734000623226166,-0.08286699652671814
1750560852383361500,5.298361572265625,0.25958898663520813,0.05112500116229057,0.024341000244021416
1750560852392966400,5.30796630859375,0.381987988948822,0.05472100153565407,0.02674500085413456
1750560852402571300,5.3175712890625,0.31294700503349304,0.054193999618291855,-0.09395900368690491
1750560852412176100,5.327176025390625,-0.09995999932289124,0.08875799924135208,-0.2565540075302124
1750560852421781000,5.336781005859375,-0.5016260147094727,0.022962000221014023,-0.12756100296974182
1750560852431385600,5.346385498046875,-0.830282986164093,-0.013825000263750553,0.07453499734401703
1750560852440990700,5.35599072265625,-0.8586120009422302,-0.10159000009298325,0.33549201488494873
1750560852450595300,5.36559521484375,-0.43400800228118896,-0.06688199937343597,0.3683750033378601
1750560852460200400,5.375200439453125,0.027411000803112984,-0.056671999394893646,0.36695799231529236
1750560852469805000,5.38480517578125,0.30651500821113586,-0.04847000166773796,0.2976070046424866
1750560852479410000,5.394409912109375,0.365572988986969,0.0415010005235672,0.08179400116205215
1750560852489014800,5.404014892578125,0.16902199387550354,0.1505739986896515,-0.042869001626968384
1750560852498619600,5.41361962890625,-0.0006810000049881637,0.12230599671602249,-0.04774700105190277
1750560852508224500,5.423224609375,-0.13799400627613068,0.1293029934167862,-0.042782001197338104
1750560852517829400,5.432829345703125,-0.202674001455307,0.08016999810934067,0.027851000428199768
1750560852527434200,5.442434326171875,-0.3221629858016968,0.0022509999107569456,0.11810799688100815
1750560852537039000,5.4520390625,-0.21072900295257568,-0.050661999732255936,0.16259700059890747
1750560852546643700,5.461643798828125,0.04608999937772751,-0.042778000235557556,0.11962000280618668
1750560852556248800,5.471248779296875,0.3032990097999573,-0.0615059994161129,0.14288100600242615
1750560852565853700,5.480853759765625,0.16810299456119537,-0.0384569987654686,0.0803539976477623
1750560852575458600,5.49045849609375,-0.12450200319290161,0.020136000588536263,-0.12679199874401093
1750560852585063400,5.5000634765625,-0.27473199367523193,0.02701999992132187,-0.2912589907646179
1750560852594668000,5.50966796875,-0.21278199553489685,-0.03096099942922592,-0.29302701354026794
1750560852604273000,5.51927294921875,-0.08291500061750412,-0.08138599991798401,-0.08604700118303299
1750560852613877800,5.528877685546875,0.11696500331163406,-0.10598000138998032,0.06637600064277649
1750560852623482600,5.538482666015625,0.30545300245285034,-0.055755000561475754,0.18368999660015106
1750560852633087500,5.54808740234375,0.3250339925289154,-0.06198100000619888,0.19070500135421753
1750560852642692400,5.5576923828125,0.07496300339698792,-0.03558500111103058,0.23177999258041382
1750560852652297000,5.567296875,-0.16352300345897675,0.015065000392496586,0.31571000814437866
1750560852661901800,5.57690185546875,-0.3115060031414032,0.09269999712705612,0.19942699372768402
1750560852671506700,5.586506591796875,-0.32653799653053284,0.09163200110197067,-0.08635900169610977
1750560852681111800,5.59611181640625,-0.20538100600242615,0.09172800183296204,-0.31749001145362854
1750560852690716700,5.605716552734375,-0.10683900117874146,0.09640300273895264,-0.36647099256515503
1750560852700321300,5.6153212890625,0.013776999898254871,0.026497000828385353,-0.19447599351406097
1750560852709926100,5.624926025390625,0.12674899399280548,0.002366000087931752,0.04027500003576279
1750560852719530800,5.63453076171875,0.2646870017051697,0.00711200013756752,0.1722950041294098
1750560852729135900,5.644135986328125,0.26340600848197937,-0.05442399904131889,0.17226000130176544
1750560852738740700,5.65374072265625,0.2877950072288513,-0.01839900016784668,0.011277999728918076
1750560852748345600,5.663345703125,0.23706099390983582,-0.053902000188827515,-0.03860599920153618
1750560852757950500,5.672950439453125,-0.03134100139141083,-0.06494800001382828,0.03962999954819679
1750560852767555300,5.682555419921875,-0.39097899198532104,-0.03799400106072426,0.06695500016212463
1750560852777160200,5.69216015625,-0.5498679876327515,-0.04068100079894066,0.015231000259518623
1750560852786765000,5.70176513671875,-0.2979699969291687,0.009751000441610813,-0.1260319948196411
1750560852796370000,5.711369873046875,0.20863400399684906,-0.015193999744951725,-0.1873989999294281
1750560852805974500,5.720974609375,0.49856799840927124,-0.040585000067949295,-0.07157500088214874
1750560852815579400,5.730579345703125,0.6516799926757812,-0.05999299883842468,0.010181999765336514
1750560852825184300,5.740184326171875,0.5011280179023743,-0.04374700039625168,0.004346999805420637
1750560852834789000,5.7497890625,0.08495499938726425,-0.020347999408841133,-0.03311999887228012
1750560852844394000,5.75939404296875,-0.32124799489974976,0.05751900002360344,-0.08490300178527832
1750560852853998800,5.768998779296875,-0.47382399439811707,0.10938200354576111,-0.047644998878240585
1750560852863603700,5.778603759765625,-0.24648399651050568,0.0953259989619255,-0.040497999638319016
1750560852873208300,5.788208251953125,-0.07109799981117249,0.06706999987363815,0.03186500072479248
1750560852882813200,5.797813232421875,0.031019000336527824,0.015575000084936619,-0.02233400009572506
1750560852892418000,5.80741796875,-0.08241000026464462,-0.011990999802947044,0.01600099913775921
1750560852902023000,5.81702294921875,-0.15439000725746155,-0.05485999956727028,0.10693199932575226
1750560852911627800,5.826627685546875,-0.0889739990234375,-0.03326300159096718,0.11121899634599686
1750560852921232600,5.836232666015625,0.06692200154066086,-0.026548000052571297,0.10879500210285187
1750560852930837500,5.84583740234375,0.2276410013437271,-0.04973600059747696,0.08832100033760071
1750560852940442400,5.8554423828125,0.2774829864501953,-0.05280299857258797,-0.03032599948346615
1750560852950047200,5.865047119140625,0.32598501443862915,-0.026274999603629112,-0.0725720003247261
1750560852959652000,5.874652099609375,0.32849499583244324,-0.03134100139141083,-0.12133800238370895
1750560852969257000,5.884257080078125,0.09156999737024307,-0.031307999044656754,-0.042778000235557556
1750560852978861800,5.89386181640625,-0.30514100193977356,-0.016450000926852226,0.025793999433517456
1750560852988466400,5.903466552734375,-0.5445700287818909,-0.015281000174582005,-0.04926300048828125
1750560852998071300,5.9130712890625,-0.4975360035896301,0.007313000038266182,-0.04192899912595749
1750560853007676200,5.92267626953125,-0.21858499944210052,-0.018602000549435616,0.025218000635504723
1750560853017281000,5.932281005859375,0.13562899827957153,-0.04367300122976303,0.0401340015232563
1750560853026886000,5.941885986328125,0.30401599407196045,-0.060495998710393906,0.032683998346328735
1750560853036490800,5.95149072265625,0.24749499559402466,-0.028711000457406044,-0.05157100036740303
1750560853046095400,5.961095458984375,0.06970000267028809,0.042319998145103455,-0.08686599880456924
1750560853055700500,5.970700439453125,-0.07809700071811676,0.02643599919974804,-0.05709100142121315
1750560853065305300,5.980305419921875,-0.08168300241231918,0.045816000550985336,-0.008364999666810036
1750560853074910200,5.98991015625,-0.09972299635410309,0.048934001475572586,0.04909700155258179
1750560853084514800,5.999514892578125,-0.09169699996709824,0.05251599848270416,0.038630999624729156
1750560853094119700,6.00911962890625,-0.06791900098323822,0.0216669999063015,0.0022609999869018793
1750560853103724500,6.018724609375,-0.0389459989964962,-0.008346999995410442,0.05305600166320801
1750560853113329700,6.02832958984375,-0.07870200276374817,-0.10259100049734116,0.13099899888038635
1750560853122934300,6.037934326171875,-0.031163999810814857,-0.11357399821281433,0.11241000145673752
1750560853132539100,6.0475390625,0.1906609982252121,-0.07072100043296814,-0.06875400245189667
1750560853142144000,6.05714404296875,0.4027850031852722,-0.03646500036120415,-0.17546699941158295
1750560853151748600,6.06674853515625,0.3345150053501129,-0.0648920014500618,-0.09341300278902054
1750560853161353700,6.076353759765625,0.1314069926738739,0.010219999589025974,0.08453000336885452
1750560853170958600,6.08595849609375,-0.0242490004748106,0.016819000244140625,0.1132740005850792
1750560853180563500,6.0955634765625,-0.017712999135255814,-0.014192000031471252,0.05017499998211861
1750560853190168300,6.105168212890625,0.011680999770760536,0.01083999965339899,-0.11060400307178497
1750560853199773000,6.11477294921875,-0.012236000038683414,-0.004093999974429607,-0.12408100068569183
1750560853209378000,6.1243779296875,-0.0720599964261055,-0.04498700052499771,0.03135700151324272
1750560853218983000,6.13398291015625,-0.123710997402668,-0.0006150000263005495,0.17309799790382385
1750560853228587500,6.14358740234375,-0.05634700134396553,0.01358299981802702,0.13705100119113922
1750560853238192400,6.1531923828125,0.133419007062912,0.06376799941062927,-0.08194000273942947
1750560853247797200,6.16279736328125,0.33538201451301575,0.0905190035700798,-0.21079400181770325
1750560853257402000,6.172402099609375,0.2867540121078491,0.03498600050806999,-0.1485310047864914
1750560853267007000,6.182007080078125,0.11220800131559372,0.005956999957561493,-0.036984000355005264
1750560853276611800,6.19161181640625,-0.15111500024795532,-0.003774000098928809,-0.013482999987900257
1750560853286216700,6.201216796875,-0.28101399540901184,-0.030563000589609146,0.039792001247406006
1750560853295821600,6.210821533203125,-0.31606000661849976,-0.01975799910724163,0.10322500020265579
1750560853305426400,6.220426513671875,-0.2785220146179199,-0.008673000149428844,0.13274900615215302
1750560853315031000,6.230031005859375,0.010212999768555164,0.04317399859428406,0.04981699958443642
1750560853324636000,6.239635986328125,0.3080359995365143,0.059470001608133316,-0.06435199826955795
1750560853334240800,6.24924072265625,0.35326099395751953,0.09298299998044968,-0.12343499809503555
1750560853343845600,6.258845703125,0.1588519960641861,0.09059300273656845,-0.1954919993877411
1750560853353450500,6.268450439453125,-0.028124000877141953,0.09015899896621704,-0.22205500304698944
1750560853363055400,6.278055419921875,-0.10153400152921677,0.05492600053548813,-0.13093799352645874
1750560853372660000,6.287659912109375,-0.2295989990234375,-0.006537000183016062,0.09359800070524216
1750560853382264800,6.297264892578125,-0.22211100161075592,-0.04199500009417534,0.2591930031776428
1750560853391870000,6.306869873046875,-0.14858700335025787,-0.036580998450517654,0.2032639980316162
1750560853401474600,6.316474609375,-0.11218900233507156,-0.04612699896097183,0.22476600110530853
1750560853411079400,6.326079345703125,-0.04352499917149544,-0.013326000422239304,0.11146699637174606
1750560853420684300,6.335684326171875,0.0880960002541542,0.004941999912261963,0.015060000121593475
1750560853430289200,6.3452890625,0.35907799005508423,0.012666000053286552,-0.07710500061511993
1750560853439894300,6.354894287109375,0.45447400212287903,-0.014533000066876411,-0.11038000136613846
1750560853449499000,6.364498779296875,0.37731099128723145,-0.03795500099658966,-0.12829700112342834
1750560853459103700,6.374103759765625,0.16934099793434143,-0.0032560001127421856,-0.21764400601387024
1750560853468708400,6.383708251953125,-0.14313800632953644,-0.0250450000166893,-0.1953430026769638
1750560853478313500,6.3933134765625,-0.4553619921207428,-0.04195199906826019,-0.044721998274326324
1750560853487918300,6.40291845703125,-0.6397389769554138,-0.05971600115299225,0.07361699640750885
1750560853497523200,6.412523193359375,-0.5723469853401184,-0.01169199962168932,0.17061899602413177
1750560853507127800,6.4221279296875,-0.21578800678253174,0.012040000408887863,0.15713199973106384
1750560853516732700,6.431732666015625,0.1757809966802597,0.01170899998396635,0.0711119994521141
1750560853526337500,6.441337646484375,0.26683199405670166,0.012621999718248844,-0.11761800199747086
1750560853535942700,6.450942626953125,0.16090799868106842,0.04729200154542923,-0.292154997587204
1750560853545547500,6.460547607421875,-0.11118700355291367,0.04870299994945526,-0.25573500990867615
1750560853555152100,6.470152099609375,-0.3880000114440918,0.009557999670505524,-0.18928399682044983
1750560853564757000,6.479757080078125,-0.4339669942855835,0.03638000041246414,-0.07880400121212006
1750560853574361900,6.48936181640625,-0.2670080065727234,-0.022350000217556953,0.021957000717520714
1750560853583966700,6.498966796875,-0.025431999936699867,-0.04688499867916107,0.050811998546123505
1750560853593571600,6.508571533203125,0.055629000067710876,-0.06248899921774864,0.22332699596881866
1750560853603176400,6.518176513671875,0.23276999592781067,-0.05344099923968315,0.21971799433231354
1750560853612781300,6.52778125,0.3463450074195862,-0.09003099799156189,0.3922879993915558
1750560853622386000,6.537385986328125,0.48775601387023926,-0.09785500168800354,0.6986669898033142
1750560853631990800,6.54699072265625,0.4807650148868561,-0.11696500331163406,1.3652009963989258
1750560853641595600,6.556595703125,0.46758198738098145,-0.4482550024986267,3.043747901916504
1750560853651200800,6.56620068359375,0.5366349816322327,-0.5862380266189575,4.6998748779296875
1750560853660805400,6.575805419921875,1.4333029985427856,-1.2018519639968872,7.5821099281311035
1750560853670410200,6.58541015625,2.705328941345215,-1.7865829467773438,9.203954696655273
1750560853680014800,6.595014892578125,3.502769947052002,-2.0826570987701416,9.57151985168457
1750560853689620000,6.604619873046875,3.7573630809783936,-2.1896889209747314,8.303399085998535
1750560853699224800,6.614224853515625,3.905951976776123,-1.7547680139541626,6.138207912445068
1750560853708829700,6.62382958984375,3.413115978240967,-1.8904019594192505,4.92943000793457
1750560853718434600,6.6334345703125,2.4861459732055664,-1.8499469757080078,1.8714770078659058
1750560853728039200,6.6430390625,1.5081809759140015,-1.2677459716796875,-1.737426996231079
1750560853737644000,6.65264404296875,-0.10638900101184845,-0.5078499913215637,-4.477704048156738
1750560853747249200,6.662249267578125,-1.8754620552062988,0.08127599954605103,-7.127777099609375
1750560853756853800,6.671853759765625,-3.2844951152801514,0.44490501284599304,-7.930037975311279
1750560853766458600,6.681458740234375,-4.415596008300781,0.6813070178031921,-6.862512111663818
1750560853776063500,6.6910634765625,-4.835464954376221,0.37797099351882935,-4.2118988037109375
1750560853785668600,6.700668701171875,-4.7238922119140625,0.3805130124092102,-2.799014091491699
1750560853795273500,6.7102734375,-4.219339847564697,0.14168499410152435,-3.1039841175079346
1750560853804878000,6.719878173828125,-2.5703470706939697,-0.204816997051239,-3.6761279106140137
1750560853814483000,6.72948291015625,-0.6091660261154175,-0.2877010107040405,-4.466635227203369
1750560853824088000,6.739088134765625,0.703137993812561,-0.44571998715400696,-5.081821918487549
1750560853833692700,6.748692626953125,1.377616047859192,-0.5763760209083557,-5.619204998016357
1750560853843297500,6.758297607421875,1.7397969961166382,-0.5212759971618652,-6.4219818115234375
1750560853852902100,6.767902099609375,1.2992420196533203,-0.5861719846725464,-6.720370769500732
1750560853862507000,6.777507080078125,0.4823879897594452,-0.8376250267028809,-6.62404203414917
1750560853872112000,6.787112060546875,0.1078760027885437,-1.2137919664382935,-6.621830940246582
1750560853881717000,6.796717041015625,-0.1233920007944107,-1.6311990022659302,-6.246607780456543
1750560853891321900,6.80632177734375,-0.3770020008087158,-2.1877799034118652,-5.659149169921875
1750560853900926500,6.815926513671875,-0.9147419929504395,-2.4849228858947754,-4.5421319007873535
1750560853910531300,6.82553125,-2.358138084411621,-2.926218032836914,-2.5448670387268066
1750560853920136200,6.83513623046875,-3.7593278884887695,-3.6117610931396484,-0.34099701046943665
1750560853929741000,6.844740966796875,-4.117638111114502,-4.246236801147461,3.4974210262298584
1750560853939346000,6.854345947265625,-3.321899890899658,-3.7387659549713135,6.5804829597473145
1750560853948950800,6.86395068359375,-0.8096569776535034,-3.1218409538269043,6.878366947174072
1750560853958555600,6.8735556640625,2.864461898803711,-2.373246908187866,5.386974811553955
1750560853968160300,6.88316015625,5.798505783081055,-1.6835739612579346,3.566912889480591
1750560853977765000,6.89276513671875,6.289490222930908,-1.336068034172058,3.6530380249023438
1750560853987370000,6.902369873046875,4.733736038208008,-1.1351720094680786,4.469749927520752
1750560853996974600,6.911974609375,2.679539918899536,-1.009443998336792,5.714091777801514
1750560854006579700,6.921579833984375,1.634611964225769,-0.8985450267791748,5.687003135681152
1750560854016184600,6.9311845703125,1.9249839782714844,-0.5720580220222473,4.29627799987793
1750560854025789400,6.94078955078125,2.511478900909424,-0.36553600430488586,2.6009368896484375
1750560854035394300,6.950394287109375,2.3123269081115723,-0.34765198826789856,1.691575050354004
1750560854044999000,6.9599990234375,1.336935043334961,-0.31439799070358276,1.4804610013961792
1750560854054603800,6.969603759765625,0.2304680049419403,-0.1446709930896759,1.4761320352554321
1750560854064208600,6.979208740234375,-0.5764610171318054,-0.10654599964618683,1.5118930339813232
1750560854073813500,6.9888134765625,-0.892192006111145,-0.04830000177025795,1.3376280069351196
1750560854083418400,6.99841845703125,-0.44879600405693054,0.039942000061273575,0.8577989935874939
1750560854093023200,7.008023193359375,0.21431900560855865,0.026270000264048576,0.7917699813842773
1750560854102628000,7.017628173828125,0.6110309958457947,-0.09758999943733215,0.8676519989967346
1750560854112232700,7.027232666015625,0.7326220273971558,-0.20484000444412231,0.8991590142250061
1750560854121837600,7.036837646484375,0.47148600220680237,-0.2145099937915802,0.9665240049362183
1750560854131442200,7.046442138671875,0.1883549988269806,-0.20791099965572357,0.835910975933075
1750560854141047300,7.05604736328125,0.06356099992990494,-0.15376900136470795,0.5782430171966553
1750560854150652200,7.065652099609375,-0.050367001444101334,-0.10989099740982056,0.30817699432373047
1750560854160257000,7.075257080078125,0.03029800020158291,-0.15430499613285065,0.08205600082874298
1750560854169861600,7.084861572265625,0.01508999988436699,-0.1458989977836609,-0.052021000534296036
1750560854179466500,7.094466552734375,-0.23176400363445282,-0.16603399813175201,-0.17545300722122192
1750560854189071600,7.104071533203125,-0.6206849813461304,-0.22818300127983093,-0.3234170079231262
1750560854198676200,7.11367626953125,-0.8100969791412354,-0.2674430012702942,-0.1649390012025833
1750560854208281000,7.123281005859375,-0.6703310012817383,-0.33943501114845276,0.12560899555683136
1750560854217886000,7.132885986328125,-0.09092599898576736,-0.40278398990631104,0.23443999886512756
1750560854227490800,7.14249072265625,0.5813980102539062,-0.37288999557495117,0.34203100204467773
1750560854237095700,7.152095703125,1.019389033317566,-0.3906629979610443,0.35763999819755554
1750560854246700500,7.161700439453125,1.0699540376663208,-0.2985079884529114,0.3429799973964691
1750560854256305400,7.171305419921875,0.3844490051269531,-0.22536000609397888,0.4160880148410797
1750560854265910000,7.180909912109375,-0.3822669982910156,-0.16849200427532196,0.48350799083709717
1750560854275515000,7.190514892578125,-0.8402979969978333,-0.12115400284528732,0.41925400495529175
1750560854285119700,7.20011962890625,-0.7838950157165527,-0.09668400138616562,0.11878100037574768
1750560854294724600,7.209724609375,-0.5176470279693604,-0.09286300092935562,0.03867499902844429
1750560854304329700,7.219329833984375,-0.12083999812602997,-0.10644800215959549,-0.010305999778211117
1750560854313934300,7.228934326171875,0.3895930051803589,-0.1178790032863617,-0.09755899757146835
1750560854323539200,7.238539306640625,0.7585110068321228,-0.12368299812078476,-0.16206799447536469
1750560854333143800,7.248143798828125,0.966044008731842,-0.17771300673484802,-0.16478799283504486
1750560854342748700,7.257748779296875,0.7729189991950989,-0.16193799674510956,0.008315999992191792
1750560854352353500,7.267353515625,0.21927699446678162,-0.19766700267791748,0.4244300127029419
1750560854361958700,7.276958740234375,-0.3686180114746094,-0.19011400640010834,0.7189509868621826
1750560854371563300,7.286563232421875,-0.7028049826622009,-0.09758099913597107,0.7519649863243103
1750560854381168000,7.296168212890625,-0.693356990814209,-0.035454001277685165,0.4566580057144165
1750560854390773000,7.30577294921875,-0.12809500098228455,0.016373999416828156,0.023847000673413277
1750560854400377900,7.3153779296875,0.47272300720214844,0.047763001173734665,-0.39128899574279785
1750560854409982700,7.324982666015625,0.9566299915313721,0.0011070000473409891,-0.6174370050430298
1750560854419587600,7.334587646484375,0.9981020092964172,-0.06429900228977203,-0.4245370030403137
1750560854429192400,7.3441923828125,0.684050977230072,-0.10143700242042542,-0.1938129961490631
1750560854438797300,7.35379736328125,0.3153479993343353,-0.13328100740909576,0.05952899903059006
1750560854448402000,7.36340185546875,-0.16997599601745605,-0.15808600187301636,0.1695369929075241
1750560854458006800,7.3730068359375,-0.5766519904136658,-0.11714799702167511,0.16989700496196747
1750560854467611600,7.382611572265625,-0.8607180118560791,-0.1098949983716011,0.08834599703550339
1750560854477216500,7.392216552734375,-0.682669997215271,-0.1280529946088791,-0.1086679995059967
1750560854486821400,7.4018212890625,-0.1221499964594841,-0.09105300158262253,-0.32384800910949707
1750560854496426200,7.41142626953125,0.40817201137542725,-0.04268699884414673,-0.42521899938583374
1750560854506030800,7.42103076171875,0.7506579756736755,-0.050453998148441315,-0.34452998638153076
1750560854515635700,7.4306357421875,0.6495850086212158,-0.0832739993929863,-0.09829100221395493
1750560854525240800,7.44024072265625,0.25465500354766846,-0.13541199266910553,0.11675599962472916
1750560854534845700,7.449845703125,-0.2511669993400574,-0.16292700171470642,0.4059019982814789
1750560854544450300,7.4594501953125,-0.4546020030975342,-0.1951729953289032,0.45155099034309387
1750560854554055200,7.46905517578125,-0.411763995885849,-0.17048600316047668,0.40457698702812195
1750560854563660000,7.478659912109375,-0.1426360011100769,-0.1771090030670166,0.343394011259079
1750560854573264600,7.4882646484375,0.26416099071502686,-0.09097500145435333,0.030433999374508858
1750560854582869800,7.497869873046875,0.5861390233039856,-0.007096999790519476,-0.231345996260643
1750560854592474400,7.507474365234375,0.5733569860458374,0.02664100006222725,-0.3797129988670349
1750560854602079500,7.51707958984375,0.2762719988822937,0.08834300190210342,-0.43879300355911255
1750560854611684000,7.52668408203125,-0.10608799755573273,0.08918900042772293,-0.349727988243103
1750560854621289000,7.5362890625,-0.371055006980896,0.11108800023794174,-0.2768639922142029
1750560854630893800,7.545893798828125,-0.4608150124549866,0.07257600128650665,-0.28410398960113525
1750560854640498700,7.555498779296875,-0.47203001379966736,0.0031799999997019768,-0.06919500231742859
1750560854650103600,7.565103515625,-0.44596099853515625,-0.019587000831961632,0.09135700017213821
1750560854659708400,7.57470849609375,-0.5122140049934387,-0.049463000148534775,0.2452239990234375
1750560854669313300,7.584313232421875,-0.508957028388977,-0.08286300301551819,0.2026209980249405
1750560854678918000,7.59391796875,-0.2512589991092682,-0.13763000071048737,-0.012233000248670578
1750560854688522800,7.603522705078125,0.3177359998226166,-0.09408900141716003,-0.3458479940891266
1750560854698127600,7.613127685546875,0.7645310163497925,-0.07619500160217285,-0.4671649932861328
1750560854707732700,7.622732666015625,0.7610769867897034,-0.0804309993982315,-0.3086380064487457
1750560854717337300,7.63233740234375,0.25617098808288574,-0.06351900100708008,-0.1167140007019043
1750560854726942200,7.641942138671875,-0.2526319921016693,-0.046539999544620514,0.07012499868869781
1750560854736547000,7.651547119140625,-0.5772809982299805,-0.036789000034332275,0.17177000641822815
1750560854746152000,7.66115185546875,-0.5662130117416382,-0.06482099741697311,0.15098799765110016
1750560854755756800,7.6707568359375,-0.30919501185417175,-0.05416800081729889,0.07163900136947632
1750560854765361700,7.680361572265625,-0.03641799837350845,-0.039159998297691345,-0.0006339999963529408
1750560854774966500,7.689966552734375,0.3495979905128479,-0.056657999753952026,0.07605200260877609
1750560854784571100,7.699571044921875,0.6635890007019043,-0.024178000167012215,0.1107029989361763
1750560854794176000,7.709176025390625,0.706637978553772,-0.02107200026512146,0.10904300212860107
1750560854803780900,7.71878076171875,0.3980410099029541,0.019929999485611916,-0.008551999926567078
1750560854813385700,7.7283857421875,-0.048252999782562256,0.025352999567985535,-0.1532530039548874
1750560854822990600,7.737990478515625,-0.33245500922203064,-0.004519000183790922,-0.0861319974064827
1750560854832595500,7.747595458984375,-0.42983999848365784,-0.0007830000249668956,-0.016408000141382217
1750560854842200000,7.757199951171875,-0.3891279995441437,-0.03724899888038635,0.06605099886655807
1750560854851805000,7.766804931640625,-0.2802579998970032,-0.04135600104928017,0.09362000226974487
1750560854861410000,7.77641015625,0.021734999492764473,-0.026871999725699425,0.0488010011613369
1750560854871015000,7.786014892578125,0.18663300573825836,-0.005206999834626913,-0.06849700212478638
1750560854880619500,7.79561962890625,0.32321199774742126,-0.05222700163722038,-0.12390899658203125
1750560854890224400,7.805224365234375,0.42680200934410095,-0.030679000541567802,-0.1604360044002533
1750560854899829200,7.814829345703125,0.3036699891090393,-0.04039900004863739,-0.03447600081562996
1750560854909433900,7.824433837890625,0.077844999730587,-0.034196000546216965,0.10827299952507019
1750560854919039000,7.8340390625,-0.1997389942407608,-0.003435000078752637,0.29803401231765747
1750560854928643800,7.843643798828125,-0.25208398699760437,0.05216800048947334,0.3423680067062378
1750560854938248700,7.853248779296875,-0.14086100459098816,0.06732399761676788,0.21871300041675568
1750560854947853300,7.862853271484375,-0.2345699965953827,0.11391600221395493,-0.01571900025010109
1750560854957458200,7.872458251953125,-0.3472369909286499,0.1652580052614212,-0.21995900571346283
1750560854967063300,7.882063232421875,-0.42448198795318604,0.12878300249576569,-0.15331099927425385
1750560854976668200,7.891668212890625,-0.359935998916626,0.07312300056219101,-0.02548700012266636
1750560854986272800,7.901272705078125,-0.0255730003118515,-0.0007810000097379088,0.08500400185585022
1750560854995877600,7.910877685546875,0.37279999256134033,-0.040415000170469284,0.09547799825668335
1750560855005482500,7.920482421875,0.6247490048408508,-0.053739000111818314,0.08946800231933594
1750560855015087400,7.93008740234375,0.5647259950637817,-0.0013899999903514981,0.17195400595664978
1750560855024692200,7.939692138671875,0.2767679989337921,-0.012404999695718288,0.16560399532318115
1750560855034297000,7.949297119140625,-0.10166499763727188,0.011675000190734863,0.04742899909615517
1750560855043902000,7.95890185546875,-0.3202989995479584,0.05943499878048897,-0.13999800384044647
1750560855053506600,7.968506591796875,-0.33517399430274963,-0.011687999591231346,-0.1382099986076355
1750560855063111400,7.978111328125,-0.24627399444580078,-0.03329300135374069,-0.10136900097131729
1750560855072716300,7.98771630859375,-0.10021699965000153,-0.08009599894285202,-0.019618000835180283
1750560855082321200,7.997321044921875,0.04424599930644035,-0.11295799911022186,0.08684100210666656
1750560855091926000,8.006926025390625,0.17708399891853333,-0.09442800283432007,0.07273200154304504
1750560855101531000,8.01653076171875,0.3671320080757141,-0.04895399883389473,0.05276300013065338
1750560855111135700,8.0261357421875,0.36157500743865967,-0.09049700200557709,0.0993800014257431
1750560855120740600,8.03574072265625,0.12901799380779266,-0.02819499932229519,-0.029138000681996346
1750560855130345200,8.04534521484375,-0.21131500601768494,-0.009170999750494957,-0.11793199926614761
1750560855139950300,8.054950439453124,-0.39250001311302185,0.025158999487757683,-0.19812199473381042
1750560855149555000,8.064554931640625,-0.38131800293922424,-0.026736000552773476,-0.20409700274467468
1750560855159159800,8.074159912109375,-0.11218100041151047,0.018710000440478325,-0.2644299864768982
1750560855168764700,8.0837646484375,0.34161099791526794,0.0228279996663332,-0.31175199151039124
1750560855178369300,8.093369384765625,0.5306169986724854,-0.06442400068044662,-0.1060749962925911
1750560855187974400,8.102974365234376,0.5691720247268677,-0.0919250026345253,0.061225999146699905
1750560855197579300,8.112579345703125,0.4193210005760193,-0.0375090017914772,0.002725000027567148
1750560855207184100,8.12218408203125,0.016162000596523285,-0.04590800032019615,0.09786999970674515
1750560855216788700,8.131788818359375,-0.5373020172119141,-0.01324899960309267,0.19220100343227386
1750560855226393600,8.1413935546875,-0.7724890112876892,0.04091300070285797,0.2595449984073639
1750560855235998500,8.15099853515625,-0.7092090249061584,0.05488000065088272,0.1766130030155182
1750560855245603300,8.160603271484375,-0.47225698828697205,0.08517500013113022,0.0056500001810491085
1750560855255208200,8.170208251953126,-0.1982560008764267,0.11290500313043594,-0.0989449992775917
1750560855264813000,8.17981298828125,0.06886900216341019,0.015018000267446041,-0.21245700120925903
1750560855274417700,8.189417724609376,0.2912920117378235,0.009612999856472015,-0.3108929991722107
1750560855284022800,8.199022705078125,0.3367860019207001,-0.0008759999764151871,-0.24464799463748932
1750560855293627400,8.20862744140625,0.2031169980764389,-0.0347369983792305,-0.10504399985074997
1750560855303232300,8.218232177734375,-0.041308000683784485,-0.060516998171806335,0.16376599669456482
1750560855312837000,8.227837158203124,-0.3307180106639862,-0.03201200067996979,0.39408499002456665
1750560855322442000,8.23744189453125,-0.43165600299835205,-0.008448000065982342,0.35853999853134155
1750560855332046800,8.247046875,-0.30999699234962463,0.045120999217033386,0.19160600006580353
1750560855341651500,8.2566513671875,-0.025001000612974167,0.008438999764621258,0.037314001470804214
1750560855351256300,8.26625634765625,0.10118900239467621,0.026768000796437263,-0.10817000269889832
1750560855360861400,8.275861328125,0.07996399700641632,0.028994999825954437,-0.11528600007295609
1750560855370466000,8.285466064453125,0.038812000304460526,0.030957000330090523,-0.12872900068759918
1750560855380071000,8.29507080078125,-0.052917998284101486,0.03188199922442436,-0.10066799819469452
1750560855389675800,8.30467578125,-0.1319960057735443,0.003097000066190958,-0.037115998566150665
1750560855399280600,8.31428076171875,-0.004594000056385994,0.0323529988527298,-0.02633499912917614
1750560855408885500,8.323885498046875,0.058549001812934875,-0.018845999613404274,-0.01486000046133995
1750560855418490400,8.333490478515625,0.1558620035648346,-0.0289280004799366,-0.06202099844813347
1750560855428095000,8.343094970703126,0.09864900261163712,-0.011979999952018261,-0.03925200179219246
1750560855437699800,8.352699951171875,-0.0024500000290572643,-0.05018800124526024,-0.019644999876618385
1750560855447304700,8.3623046875,0.0588110014796257,-0.034915998578071594,-0.013447999954223633
1750560855456909600,8.37190966796875,0.0784119963645935,-0.044468000531196594,0.0064039998687803745
1750560855466514400,8.381514404296874,0.17097200453281403,-0.0544469989836216,-0.03305799886584282
1750560855476119000,8.391119140625,0.2823590040206909,0.007873999886214733,-0.04874999821186066
1750560855485724200,8.40072412109375,0.3131619989871979,0.01613900065422058,-0.07285299897193909
1750560855495329000,8.4103291015625,0.2727789878845215,-0.005377999972552061,-0.0872030034661293
1750560855504934000,8.419933837890625,0.12241099774837494,0.00021300000662449747,0.02280000038444996
1750560855514538500,8.42953857421875,0.036285001784563065,0.0006399999838322401,0.1919039934873581
1750560855524143400,8.439143310546875,0.246847003698349,-0.0017140000127255917,0.19954900443553925
1750560855533748200,8.448748291015624,0.49665001034736633,-0.04077500104904175,0.1800830066204071
1750560855543353000,8.45835302734375,0.6169869899749756,-0.0029990000184625387,0.09386400133371353
1750560855552958000,8.4679580078125,0.3510099947452545,0.02860799990594387,-0.040320999920368195
1750560855562562800,8.477562744140625,-0.11932799965143204,0.06681200116872787,-0.09550900012254715
1750560855572167700,8.487167724609375,-0.5001369714736938,0.05963800102472305,-0.05929600074887276
1750560855581772300,8.496772216796876,-0.5411819815635681,0.07937300205230713,-0.028797000646591187
1750560855591377400,8.50637744140625,-0.32625898718833923,0.1005840003490448,0.08386299759149551
1750560855600982300,8.515982177734376,0.03483400121331215,0.07621999830007553,0.13589699566364288
1750560855610587000,8.5255869140625,0.3305320143699646,0.051580000668764114,0.17431199550628662
1750560855620191700,8.535191650390624,0.28954100608825684,0.028023000806570053,0.18146100640296936
1750560855629796600,8.544796630859375,-0.08264700323343277,0.0056050000712275505,0.06814499944448471
1750560855639401500,8.5544013671875,-0.4239349961280823,0.03606700152158737,-0.016493000090122223
1750560855649006300,8.56400634765625,-0.6531209945678711,0.003369000041857362,-0.030750999227166176
1750560855658611200,8.573611083984375,-0.46774399280548096,-0.012691999785602093,-0.08855299651622772
1750560855668215800,8.5832158203125,-0.1589049994945526,-0.020716000348329544,-0.21786700189113617
1750560855677820700,8.592820556640625,0.12265600264072418,-0.05789000168442726,-0.25719499588012695
1750560855687425500,8.602425537109376,0.2565630078315735,-0.03456300124526024,-0.20109499990940094
1750560855697030400,8.612030517578125,0.11105400323867798,-0.027735000476241112,-0.09622500091791153
1750560855706635300,8.62163525390625,0.0009270000155083835,0.0011970000341534615,-0.01256799977272749
1750560855716240100,8.631240234375,-0.19648100435733795,0.029023999348282814,0.0325389988720417
1750560855725845000,8.640844970703125,-0.20744700729846954,-0.0027340000960975885,-0.029682999476790428
1750560855735449900,8.650449951171876,0.17270700633525848,-0.038499001413583755,0.060065001249313354
1750560855745054500,8.660054443359375,0.5249390006065369,-0.09011100232601166,0.03325999900698662
1750560855754659300,8.669659423828126,0.5869420170783997,-0.0393499992787838,0.0321739986538887
1750560855764264400,8.679264404296875,0.39797401428222656,-0.03988900035619736,0.0943790003657341
1750560855773869300,8.688869384765624,0.04117000102996826,-0.07746999710798264,0.3028790056705475
1750560855783474000,8.698473876953125,-0.1126680001616478,-0.14781099557876587,0.6878769993782043
1750560855793078800,8.708078857421874,0.04424099996685982,-0.33333298563957214,1.6871850490570068
1750560855802683600,8.71768359375,0.19787099957466125,-0.5134950280189514,3.5568621158599854
1750560855812288500,8.72728857421875,0.5177410244941711,-0.6243799924850464,4.659689903259277
1750560855821893400,8.736893310546876,1.34620201587677,-0.6167969703674316,5.125925064086914
1750560855831498200,8.746498291015625,1.4379340410232544,-0.38093799352645874,5.109313011169434
1750560855841102800,8.756102783203126,1.8603910207748413,-0.9557979702949524,5.3936028480529785
1750560855850707700,8.765707763671875,2.419361114501953,-1.2999279499053955,5.740883827209473
1750560855860312300,8.775312255859374,2.815274953842163,-1.5420379638671875,6.976484775543213
1750560855869917400,8.78491748046875,2.6698191165924072,-1.8147770166397095,7.757338047027588
1750560855879522300,8.794522216796874,2.2532570362091064,-1.7231559753417969,5.588877201080322
1750560855889127200,8.804127197265625,1.4172569513320923,-1.566794991493225,2.834135055541992
1750560855898731800,8.813731689453125,0.09813500195741653,-1.3597760200500488,0.0499269999563694
1750560855908336600,8.823336669921876,-1.0164870023727417,-1.0034250020980835,-1.8532229661941528
1750560855917941500,8.83294140625,-1.6341149806976318,-0.7720639705657959,-3.156960964202881
1750560855927546600,8.842546630859376,-1.8243999481201172,-0.29648101329803467,-5.459171772003174
1750560855937151200,8.852151123046875,-1.4332369565963745,0.05415799841284752,-7.396096229553223
1750560855946756000,8.861756103515624,-1.215317964553833,0.4937269985675812,-8.603490829467773
1750560855956361000,8.87136083984375,-1.0286660194396973,0.44200998544692993,-8.96092700958252
1750560855965965600,8.880965576171874,-1.3791389465332031,0.36688798666000366,-8.23669719696045
1750560855975570700,8.89057080078125,-1.9919630289077759,0.008352999575436115,-6.83915901184082
1750560855985175600,8.900175537109375,-1.974498987197876,-0.4815729856491089,-5.595225811004639
1750560855994780400,8.909780517578126,-1.3448599576950073,-0.7683789730072021,-4.727604866027832
1750560856004385000,8.919385009765625,-0.8096989989280701,-0.8815609812736511,-4.382541179656982
1750560856013990000,8.928989990234374,-0.6794970035552979,-1.1308109760284424,-4.098450183868408
1750560856023594800,8.9385947265625,-0.3659740090370178,-1.304198980331421,-4.332658767700195
1750560856033199600,8.94819970703125,-0.22502699494361877,-1.1545660495758057,-5.189484119415283
1750560856042804500,8.957804443359375,-0.23800000548362732,-0.996969997882843,-5.972628116607666
1750560856052409300,8.967409423828125,-0.8444780111312866,-1.1618030071258545,-5.703020095825195
1750560856062014000,8.977013916015625,-1.7206109762191772,-1.7145010232925415,-3.589571952819824
1750560856071618800,8.986618896484375,-2.2300240993499756,-1.9725209474563599,-2.721160888671875
1750560856081223700,8.9962236328125,-2.3557519912719727,-2.312386989593506,-1.9444899559020996
1750560856090828500,9.00582861328125,-1.9546209573745728,-2.7866029739379883,0.29195600748062134
1750560856100433400,9.015433349609374,-2.5609049797058105,-2.7032830715179443,2.5241100788116455
1750560856110038300,9.025038330078125,-2.323951005935669,-2.988136053085327,5.1904191970825195
1750560856119643100,9.03464306640625,-0.3325580060482025,-2.984039068222046,6.469882965087891
1750560856129247700,9.044247802734375,3.071732997894287,-2.404881000518799,5.823573112487793
1750560856138852600,9.0538525390625,6.273052215576172,-1.6266709566116333,4.572967052459717
1750560856148457500,9.06345751953125,7.206381797790527,-1.1939270496368408,3.610032081604004
1750560856158062600,9.0730625,5.569447040557861,-0.9986690282821655,3.823781967163086
1750560856167667200,9.082667236328126,2.6912219524383545,-0.9174680113792419,5.509261131286621
1750560856177272000,9.09227197265625,0.5649060010910034,-0.7242940068244934,6.1264472007751465
1750560856186877000,9.101876953125,0.04359700158238411,-0.38182899355888367,5.121140003204346
1750560856196481500,9.1114814453125,0.5913609862327576,-0.09492799639701843,3.2957160472869873
1750560856206086700,9.121086669921874,0.9078660011291504,0.0684560015797615,2.170003890991211
1750560856215691500,9.13069140625,0.5491589903831482,0.17424899339675903,1.272758960723877
1750560856225296400,9.14029638671875,0.025541000068187714,0.34363698959350586,0.5140079855918884
1750560856234901200,9.1499013671875,-0.14877399802207947,0.3536899983882904,0.0939679965376854
1750560856244505900,9.159505859375,-0.16837899386882782,0.13028399646282196,0.371630996465683
1750560856254110700,9.16911083984375,-0.11956000328063965,0.05340899899601936,1.0541549921035767
1750560856263715600,9.178715576171875,0.14498700201511383,0.0019369999645277858,1.5134340524673462
1750560856273320400,9.188320556640624,0.547353982925415,-0.14688000082969666,1.7401920557022095
1750560856282925300,9.19792529296875,0.7694839835166931,-0.20110100507736206,1.6431809663772583
1750560856292530000,9.207530029296874,0.5842639803886414,-0.1149120032787323,1.1439789533615112
1750560856302134800,9.217134765625,-0.04956499859690666,-0.08649499714374542,0.6103320121765137
1750560856311739600,9.22673974609375,-0.631650984287262,0.047290001064538956,0.2745319902896881
1750560856321344500,9.236344482421876,-0.7451429963111877,0.10953599959611893,-0.058782000094652176
1750560856330949400,9.245949462890625,-0.5632539987564087,0.07811900228261948,-0.31506600975990295
1750560856340554200,9.25555419921875,-0.19906799495220184,-0.03375000134110451,-0.3867439925670624
1750560856350158800,9.265158935546875,0.15226499736309052,-0.11018499732017517,-0.3090650141239166
1750560856359763700,9.274763671875,-0.007861999794840813,-0.24160799384117126,-0.21443000435829163
1750560856369368600,9.28436865234375,-0.4247159957885742,-0.33825498819351196,0.1113630011677742
1750560856378973700,9.2939736328125,-0.6266059875488281,-0.35572800040245056,0.4030179977416992
1750560856388578600,9.30357861328125,-0.45836201310157776,-0.37583300471305847,0.574088990688324
1750560856398183200,9.31318310546875,-0.08083400130271912,-0.32751399278640747,0.5109459757804871
1750560856407788000,9.3227880859375,0.43549901247024536,-0.24659499526023865,0.3606570065021515
1750560856417393000,9.332392822265625,0.7913380265235901,-0.1809139996767044,0.19547800719738007
1750560856426997800,9.341997802734374,0.8884509801864624,-0.1310500055551529,-0.039806999266147614
1750560856436602400,9.351602294921875,0.6673200130462646,-0.08358100056648254,-0.17646899819374084
1750560856446207500,9.36120751953125,0.25235700607299805,-0.06118199974298477,-0.17337599396705627
1750560856455812400,9.370812255859375,-0.1917400062084198,-0.1091890037059784,-0.10919900238513947
1750560856465417000,9.3804169921875,-0.37392500042915344,-0.2035679966211319,0.09154299646615982
1750560856475022000,9.39002197265625,-0.24087999761104584,-0.2500630021095276,0.24071699380874634
1750560856484626700,9.399626708984375,0.03547000139951706,-0.25475600361824036,0.21942700445652008
1750560856494231600,9.4092314453125,0.39300599694252014,-0.21788400411605835,0.18953999876976013
1750560856503836400,9.41883642578125,0.5677499771118164,-0.19380800426006317,0.12473099678754807
1750560856513441000,9.42844091796875,0.349700003862381,-0.11367300152778625,0.12956799566745758
1750560856523046000,9.4380458984375,-0.14200399816036224,-0.07767599821090698,0.1649560034275055
1750560856532650800,9.447650634765624,-0.453449010848999,-0.07572600245475769,-0.06058799847960472
1750560856542255600,9.457255615234375,-0.3699379861354828,-0.021236000582575798,-0.286529004573822
1750560856551860500,9.466860595703125,-0.0037559999618679285,0.019850999116897583,-0.35235700011253357
1750560856561465300,9.47646533203125,0.14160199463367462,-0.042038001120090485,-0.09867200255393982
1750560856571070000,9.486070068359375,-0.25040099024772644,-0.11706200242042542,0.32403498888015747
1750560856580674800,9.4956748046875,-0.4376179873943329,-0.11061699688434601,0.38183799386024475
1750560856590279700,9.50527978515625,-0.3490149974822998,-0.06356900185346603,0.26507800817489624
1750560856599884500,9.514884521484374,-0.20567099750041962,-0.11427299678325653,0.2699489891529083
1750560856609489400,9.524489501953125,0.05932899937033653,-0.059321001172065735,0.1503330022096634
1750560856619094300,9.53409423828125,0.2629370093345642,-0.00317199993878603,-0.0471000000834465
1750560856628699100,9.54369921875,0.37755000591278076,-0.07960300147533417,-0.14080800116062164
1750560856638304000,9.553303955078125,0.3159489929676056,-0.013023000210523605,-0.241225004196167
1750560856647908600,9.56290869140625,0.02826800011098385,-0.020834999158978462,-0.27535301446914673
1750560856657513700,9.572513671875,-0.39319199323654175,-0.08695399761199951,-0.29609599709510803
1750560856667118600,9.58211865234375,-0.5384860038757324,-0.13060499727725983,-0.32083600759506226
1750560856676723500,9.591723388671875,-0.6593400239944458,-0.14223000407218933,-0.18858399987220764
1750560856686328000,9.601328125,-0.5254539847373962,-0.20470300316810608,0.24494700133800507
1750560856695933000,9.610932861328125,-0.21962499618530273,-0.1848450005054474,0.4267579913139343
1750560856705537800,9.620537841796875,0.34877699613571167,-0.11008500307798386,0.2743090093135834
1750560856715143000,9.630142822265626,0.7869769930839539,-0.08712299913167953,0.021544000133872032
1750560856724747500,9.63974755859375,0.8951810002326965,-0.0547959990799427,-0.21571800112724304
1750560856734352400,9.649352294921876,0.7957469820976257,-0.05007600039243698,-0.3167400062084198
1750560856743957000,9.65895703125,0.43341299891471863,0.001424000016413629,-0.2368219941854477
1750560856753561900,9.668561767578124,-0.07442499697208405,-0.021456999704241753,0.10671199858188629
1750560856763166700,9.678166748046875,-0.3966970145702362,-0.021802999079227448,0.2848469913005829
1750560856772771600,9.687771484375,-0.4213469922542572,-0.06732200086116791,0.38106900453567505
1750560856782376400,9.69737646484375,-0.39566099643707275,-0.0868310034275055,0.28328800201416016
1750560856791981000,9.70698095703125,-0.3894819915294647,0.015022000297904015,0.06361600011587143
1750560856801586000,9.7165859375,-0.38320299983024597,0.05926100164651871,-0.1595740020275116
1750560856811190800,9.726190673828125,-0.19337399303913116,0.0881970003247261,-0.35551100969314575
1750560856820795600,9.735795654296876,0.16328099370002747,0.021733999252319336,-0.44141098856925964
1750560856830400500,9.745400390625,0.5450270175933838,-0.00827999971807003,-0.46623900532722473
1750560856840005400,9.75500537109375,0.8478789925575256,-0.0311840008944273,-0.3546150028705597
1750560856849610200,9.7646103515625,0.6762959957122803,-0.12153799831867218,0.10405799746513367
1750560856859215000,9.774215087890624,0.33611100912094116,-0.12074500322341919,0.48917698860168457
1750560856868819700,9.78381982421875,-0.1399179995059967,-0.09686499834060669,0.6499059796333313
1750560856878424600,9.793424560546875,-0.3808729946613312,-0.06196799874305725,0.5623350143432617
1750560856888029700,9.80302978515625,-0.3183009922504425,0.03735499829053879,0.3256649971008301
1750560856897634600,9.812634521484375,-0.24801599979400635,0.056412000209093094,0.06204500049352646
1750560856907239200,9.8222392578125,0.010010000318288803,0.06455200165510178,-0.1806280016899109
1750560856916844000,9.831843994140625,0.051368001848459244,0.10697799921035767,-0.35824498534202576
1750560856926448600,9.84144873046875,-0.006938999984413385,0.09932799637317657,-0.45689401030540466
1750560856936053800,9.8510537109375,-0.09490600228309631,0.10608600080013275,-0.4193730056285858
1750560856945658600,9.86065869140625,-0.2228589951992035,0.02907400019466877,-0.17912299931049347
1750560856955263500,9.870263427734375,-0.2735750079154968,-0.07418199628591537,0.19811700284481049
1750560856964868000,9.8798681640625,-0.1645060032606125,-0.0923599973320961,0.3569270074367523
1750560856974473000,9.889472900390626,0.10484100133180618,-0.07412700355052948,0.2276650071144104
1750560856984077800,9.899077880859375,0.32721900939941406,-0.11552400141954422,-0.036993999034166336
1750560856993682700,9.9086826171875,0.3819960057735443,-0.0955360010266304,-0.2284190058708191
1750560857003287300,9.918287353515625,0.28016799688339233,-0.05296099931001663,-0.23061199486255646
1750560857012892400,9.927892333984374,0.09505599737167358,-0.001972000114619732,-0.19314099848270416
1750560857022497000,9.9374970703125,-0.18097899854183197,-0.0040799998678267,-0.08984500169754028
1750560857032102000,9.947101806640624,-0.4812459945678711,0.027153000235557556,-0.043202001601457596
1750560857041706800,9.956706787109376,-0.5006319880485535,-0.018237000331282616,0.017280999571084976
1750560857051311400,9.966311279296875,-0.27550700306892395,-0.05710199847817421,0.09742599725723267
1750560857060916200,9.975916259765626,0.031105000525712967,-0.060485001653432846,0.07655800133943558
1750560857070521300,9.985521240234375,0.28773099184036255,-0.07777100056409836,0.07819200307130814
1750560857080126200,9.995126220703124,0.5801780223846436,-0.05216100066900253,0.08877000212669373
1750560857089730800,10.004730712890625,0.5758820176124573,-0.056637998670339584,0.10987599939107895
1750560857099335700,10.014335693359374,0.31015101075172424,0.009177999570965767,0.019675999879837036
1750560857108940500,10.0239404296875,-0.106222003698349,0.09174799919128418,-0.09368299692869186
1750560857118545700,10.033545654296875,-0.4120909869670868,0.06706800311803818,-0.17256100475788116
1750560857128150300,10.043150390625,-0.32210099697113037,0.048725999891757965,-0.14480699598789215
1750560857137755100,10.052755126953125,-0.012165999971330166,-0.0001449999981559813,-0.06266699731349945
1750560857147359700,10.06235986328125,0.3348129987716675,-0.1013609990477562,0.13972899317741394
1750560857156964900,10.07196484375,0.491210013628006,-0.09378600120544434,0.27843600511550903
1750560857166569700,10.08156982421875,0.4486829936504364,-0.036083001643419266,0.19749799370765686
1750560857176174300,10.09117431640625,0.18161199986934662,0.058292001485824585,-0.04704499989748001
1750560857185779200,10.100779296875,-0.00595899997279048,0.08306600153446198,-0.22616100311279297
1750560857195384000,10.110384033203125,-0.14579099416732788,0.09404800087213516,-0.32614800333976746
1750560857204989000,10.119989013671875,-0.23961199820041656,0.07530900090932846,-0.33898401260375977
1750560857214593800,10.12959375,-0.3512110114097595,-0.02959199994802475,-0.08803500235080719
1750560857224198700,10.13919873046875,-0.4093399941921234,-0.05220099911093712,0.07261600345373154
1750560857233803500,10.148803466796876,-0.38405299186706543,-0.12942799925804138,0.25685301423072815
1750560857243408100,10.158408203125,-0.1826380044221878,-0.028596999123692513,0.19384799897670746
1750560857253013000,10.168012939453124,0.0644960030913353,0.030271999537944794,0.1501139998435974
1750560857262617900,10.177617919921875,0.13153299689292908,0.03257099911570549,0.14458699524402618
1750560857272222700,10.18722265625,0.040522001683712006,0.035642001777887344,0.1149739995598793
1750560857281827600,10.19682763671875,0.003936000168323517,0.0756710022687912,-0.0756480023264885
1750560857291432400,10.206432373046875,-0.018362000584602356,0.048149000853300095,-0.1884170025587082
1750560857301037000,10.216037109375,-0.009913000278174877,0.030951999127864838,-0.12069900333881378
1750560857310642000,10.225641845703125,-0.05659100040793419,0.01677899993956089,-0.0480090007185936
1750560857320246800,10.235246826171876,-0.058164000511169434,-0.02479800023138523,0.0894709974527359
1750560857329851600,10.2448515625,-0.02232999913394451,-0.03292499855160713,0.2804810106754303
1750560857339456800,10.254456787109374,0.07260499894618988,-0.003378000110387802,0.3340280055999756
1750560857349061400,10.264061279296875,0.028936000540852547,-0.017497999593615532,0.2778699994087219
1750560857358666200,10.273666259765625,-0.07978499680757523,0.021309999749064445,0.00977999996393919
1750560857368270800,10.283270751953125,-0.09292899817228317,0.051291000097990036,-0.33595600724220276
1750560857377875700,10.292875732421875,-0.02341100014746189,0.06322900205850601,-0.4417620003223419
1750560857387480600,10.30248046875,0.07248499989509583,0.038752999156713486,-0.3315809965133667
1750560857397085400,10.31208544921875,0.08372099697589874,-0.016731999814510345,-0.04397200047969818
1750560857406690300,10.321690185546874,0.11981499940156937,-0.06629200279712677,0.2114810049533844
1750560857416295200,10.331295166015625,0.30293500423431396,-0.05560800060629845,0.2623629868030548
1750560857425900000,10.340900146484374,0.3165459930896759,-0.05519900098443031,0.1833440065383911
1750560857435504600,10.350504638671875,0.08078200370073318,-0.03610900044441223,-0.0024389999452978373
1750560857445109800,10.36010986328125,-0.17229300737380981,0.04082600027322769,-0.1406480073928833
1750560857454714400,10.36971435546875,-0.36739999055862427,0.05528799816966057,-0.1456039994955063
1750560857464319200,10.3793193359375,-0.32137399911880493,0.10433000326156616,-0.14648200571537018
1750560857473924000,10.388924072265626,-0.016006000339984894,0.09429000318050385,-0.11709599941968918
1750560857483529000,10.398529052734375,0.21912500262260437,0.003134000115096569,0.06922300159931183
1750560857493133600,10.408133544921874,0.35564500093460083,0.04743200168013573,0.12727700173854828
1750560857502738400,10.417738525390625,0.056605998426675797,0.009612999856472015,0.16103200614452362
1750560857512343600,10.427343505859374,-0.2800549864768982,-0.039347000420093536,0.2074660062789917
1750560857521948200,10.4369482421875,-0.42071300745010376,0.017859000712633133,0.08739099651575089
1750560857531553000,10.446552978515625,-0.3518519997596741,-0.027667000889778137,-0.034536998718976974
1750560857541158000,10.456157958984376,-0.0407090000808239,-0.02911500073969364,-0.08765300363302231
1750560857550762500,10.465762451171875,0.23632000386714935,-0.05018100142478943,-0.06888099759817123
1750560857560367600,10.47536767578125,0.2785530090332031,-0.04677800089120865,-0.07940799742937088
1750560857569972500,10.484972412109375,0.24131500720977783,-0.051336001604795456,-0.07725699990987778
1750560857579577300,10.494577392578124,0.20174099504947662,-0.03132599964737892,-0.09431900084018707
1750560857589182200,10.50418212890625,-0.07085099816322327,-0.07474900037050247,0.07948800176382065
1750560857598786800,10.513786865234374,-0.20184199512004852,-0.0699089989066124,0.05385100096464157
1750560857608391700,10.5233916015625,-0.1490280032157898,-0.03840000182390213,-0.06955499947071075
1750560857617996500,10.53299658203125,-0.10046900063753128,-0.05192200094461441,-0.14022600650787354
1750560857627601400,10.542601318359376,-0.11705800145864487,-0.04072299972176552,-0.15996100008487701
1750560857637206300,10.552206298828125,-0.26837098598480225,-0.04162700101733208,-0.04760099947452545
1750560857646811000,10.561810791015626,-0.22923700511455536,-0.035920001566410065,-0.04583600163459778
1750560857656415700,10.571415771484375,-0.03792199864983559,-0.04152899980545044,-0.05357800051569939
1750560857666020600,10.5810205078125,0.268218994140625,-0.012782000005245209,-0.040084999054670334
1750560857675625500,10.59062548828125,0.49329400062561035,0.007586999796330929,-0.017069000750780106
1750560857685230600,10.600230712890625,0.3931570053100586,-0.03651300072669983,-0.031578999012708664
1750560857694835200,10.609835205078125,0.11656799912452698,-0.020349999889731407,-0.05671299993991852
1750560857704439800,10.619439697265625,-0.25134798884391785,0.018107999116182327,-0.022509999573230743
1750560857714044700,10.629044677734376,-0.41564199328422546,0.009758999571204185,0.0542760007083416
1750560857723649500,10.6386494140625,-0.24826399981975555,0.03552599996328354,-0.025561999529600143
1750560857733254100,10.648254150390626,-0.13033099472522736,0.026799999177455902,-0.07517299801111221
1750560857742859300,10.657859375,0.15272699296474457,0.016800999641418457,-0.01464099995791912
1750560857752464100,10.667464111328124,0.29491299390792847,0.0013139999937266111,0.15402700006961823
1750560857762069000,10.677069091796875,0.3132669925689697,-0.024548999965190887,0.16339600086212158
1750560857771673600,10.686673583984375,0.2371699959039688,0.06712000072002411,-0.06874500215053558
1750560857781278500,10.696278564453126,-0.0019000000320374966,0.011811000294983387,-0.15275199711322784
1750560857790883600,10.705883544921875,-0.18862199783325195,-0.025110999122262,-0.06041499972343445
1750560857800488200,10.71548828125,-0.23075899481773376,-0.02731500007212162,0.01792999915778637
1750560857810093000,10.725093017578125,-0.3515309989452362,-0.02048799954354763,0.0022539999336004257
1750560857819698000,10.734697998046874,-0.36410799622535706,0.028147999197244644,-0.16305500268936157
1750560857829302500,10.744302490234375,-0.3672749996185303,0.08886600285768509,-0.21033799648284912
1750560857838907400,10.753907470703124,-0.3170360028743744,0.08061599731445312,-0.2163120061159134
1750560857848512300,10.76351220703125,-0.15745499730110168,0.08978600054979324,-0.1329749971628189
1750560857858117000,10.7731171875,0.07519499957561493,-0.005960999988019466,-0.009999999776482582
1750560857867722000,10.782721923828126,0.37589898705482483,-0.10509800165891647,0.29773300886154175
1750560857877326800,10.792326904296875,0.4102360010147095,-0.1564909964799881,0.6063709855079651
1750560857886931700,10.801931640625,0.18878500163555145,-0.17729300260543823,0.8510050177574158
1750560857896536300,10.811536376953125,-0.536683976650238,-0.3922730088233948,2.236330986022949
1750560857906141200,10.82114111328125,-0.9369540214538574,-0.4958930015563965,3.1810638904571533
1750560857915746300,10.830746337890625,-0.7015269994735718,-0.7656880021095276,4.809682846069336
1750560857925351200,10.84035107421875,-0.34389498829841614,-1.4057550430297852,7.263885974884033
1750560857934955800,10.849955810546875,0.7083269953727722,-1.1570290327072144,8.570383071899414
1750560857944560600,10.859560546875,0.9619020223617554,-1.3517309427261353,9.686397552490234
1750560857954165500,10.86916552734375,1.2442560195922852,-1.335307002067566,7.457037925720215
1750560857963770400,10.878770263671875,2.8551909923553467,-0.7337409853935242,2.928554058074951
1750560857973375200,10.888375244140626,3.626009941101074,-0.3776170015335083,-0.05114100128412247
1750560857982979800,10.897979736328125,2.4652349948883057,-1.146314024925232,2.3486850261688232
1750560857992584700,10.907584716796874,0.4205569922924042,-1.7852790355682373,4.174398899078369
1750560858002189600,10.917189453125,-1.4382749795913696,-1.5825510025024414,2.7521939277648926
1750560858011794200,10.926794189453124,-2.7295169830322266,-1.3648149967193604,-0.29673799872398376
1750560858021399300,10.9363994140625,-2.3165950775146484,-0.95762699842453,-4.83519983291626
1750560858031004200,10.946004150390625,-0.7338830232620239,0.07210099697113037,-9.763826370239258
1750560858040609000,10.955609130859376,0.32767099142074585,0.7065420150756836,-12.610791206359863
1750560858050213600,10.965213623046875,0.07610099762678146,0.7224599719047546,-12.540948867797852
1750560858059818500,10.974818603515626,-0.858722984790802,0.5875939726829529,-11.197663307189941
1750560858069423400,10.98442333984375,-1.6500240564346313,0.1367650032043457,-9.433080673217773
1750560858079028200,10.9940283203125,-1.6756809949874878,-0.33268100023269653,-8.397933006286621
1750560858088633000,11.003633056640625,-1.5032010078430176,-1.0734690427780151,-7.260767936706543
1750560858098238000,11.013238037109375,-1.4046499729156494,-1.7430599927902222,-5.309934139251709
1750560858107842600,11.022842529296875,-0.6151549816131592,-2.116262912750244,-4.27785587310791
1750560858117447400,11.032447509765625,0.0394820012152195,-1.953639030456543,-4.686314105987549
1750560858127052500,11.042052490234376,0.014903999865055084,-2.029458999633789,-4.763901233673096
1750560858136657200,11.0516572265625,-0.5232369899749756,-1.9244519472122192,-4.445220947265625
1750560858146262000,11.061261962890624,-1.1222889423370361,-1.9604840278625488,-3.8187930583953857
1750560858155867000,11.070866943359375,-0.9550930261611938,-2.2807769775390625,-2.3062970638275146
1750560858165471700,11.0804716796875,0.4003340005874634,-2.0819780826568604,-1.4848580360412598
1750560858175076600,11.09007666015625,2.1587018966674805,-2.067457914352417,-0.7117210030555725
1750560858184681500,11.099681396484375,2.628962993621826,-1.5524059534072876,-1.2306760549545288
1750560858194286000,11.1092861328125,2.481771945953369,-1.8874460458755493,-1.60167396068573
1750560858203891000,11.118890869140625,1.3636770248413086,-2.1005260944366455,-0.1727599948644638
1750560858213495800,11.128495849609376,-0.8093559741973877,-2.836155891418457,4.809270858764648
1750560858223100700,11.1381005859375,-1.699260950088501,-2.7947840690612793,8.428544044494629
1750560858232705500,11.14770556640625,-0.08991300314664841,-1.9125529527664185,8.687301635742188
1750560858242310400,11.157310302734375,2.822416067123413,-0.7797229886054993,6.537707805633545
1750560858251915300,11.166915283203124,4.483781814575195,-0.21867500245571136,3.855968952178955
1750560858261520100,11.17652001953125,4.177962779998779,0.08407100290060043,1.9578789472579956
1750560858271124700,11.186124755859375,2.5657289028167725,0.5927919745445251,1.1468559503555298
1750560858280729600,11.1957294921875,0.13436700403690338,0.6006960272789001,1.839377999305725
1750560858290334500,11.20533447265625,-1.8996130228042603,0.30659401416778564,3.441118001937866
1750560858299939000,11.21493896484375,-2.5384840965270996,0.6052600145339966,3.45271897315979
1750560858309544200,11.224544189453125,-2.309962034225464,0.8888890147209167,2.085913896560669
1750560858319148800,11.234148681640624,-1.9373949766159058,0.9855579733848572,0.9738159775733948
1750560858328753700,11.243753662109375,-1.8191269636154175,1.0312420129776,0.5231689810752869
1750560858338358500,11.253358642578124,-1.5922789573669434,0.8909459710121155,0.6651020050048828
1750560858347963100,11.262963134765625,-0.42618000507354736,0.8334550261497498,0.5079349875450134
1750560858357568300,11.272568359375,0.9623960256576538,0.8138719797134399,0.009940000250935555
1750560858367173000,11.282173095703126,1.6059759855270386,0.7041530013084412,-0.33292099833488464
1750560858376777700,11.29177783203125,0.650409996509552,0.5349109768867493,0.2280299961566925
1750560858386382600,11.301382568359376,-0.8611900210380554,0.2870500087738037,1.4279040098190308
1750560858395987500,11.310987548828125,-1.4205739498138428,0.17463800311088562,1.9904249906539917
1750560858405592300,11.32059228515625,-0.9069280028343201,0.1507750004529953,1.4404540061950684
1750560858415197200,11.330197265625,-0.1020210012793541,0.21806499361991882,0.5577279925346375
1750560858424801800,11.3398017578125,0.3763810098171234,0.27085399627685547,-0.3084389865398407
1750560858434407000,11.349406982421876,0.1775909960269928,0.3170419931411743,-0.8890939950942993
1750560858444011500,11.359011474609375,-0.2692669928073883,0.2699829936027527,-1.1011669635772705
1750560858453616400,11.368616455078126,-0.5608189702033997,0.20116299390792847,-0.9928359985351562
1750560858463221200,11.37822119140625,-0.5558670163154602,0.052046999335289,-0.9101020097732544
1750560858472826000,11.387826171875,-0.47666001319885254,-0.11496199667453766,-0.3239139914512634
1750560858482431000,11.397430908203125,-0.29413700103759766,-0.19020700454711914,0.31093499064445496
1750560858492035800,11.407035888671874,0.14964500069618225,-0.34376001358032227,0.9555690288543701
1750560858501640700,11.416640625,0.726186990737915,-0.27179500460624695,0.9993410110473633
1750560858511245300,11.426245361328125,0.957414984703064,-0.15195100009441376,0.4778650104999542
1750560858520850200,11.43585009765625,0.7044510245323181,-0.04739399999380112,-0.18866799771785736
1750560858530455000,11.445455078125,0.2109290063381195,0.1256600022315979,-0.5790240168571472
1750560858540060000,11.455059814453126,-0.1178010031580925,0.141867995262146,-0.6268929839134216
1750560858549664800,11.464664794921875,-0.07403799891471863,0.12453900277614594,-0.5694969892501831
1750560858559269600,11.47426953125,0.22098299860954285,0.08585099875926971,-0.48361700773239136
1750560858568874200,11.483874267578125,0.39571499824523926,0.06527300179004669,-0.43444401025772095
1750560858578479000,11.49347900390625,0.1433829963207245,-0.024083999916911125,-0.1087379977107048
1750560858588084000,11.503083984375,-0.26719900965690613,-0.05468200147151947,-0.014766000211238861
1750560858597688800,11.512688720703125,-0.443571001291275,-0.024880999699234962,-0.09881599992513657
1750560858607293700,11.522293701171876,-0.2724300026893616,-0.06627099961042404,-0.2317119985818863
1750560858616898300,11.531898193359375,0.08967199921607971,-0.02085299976170063,-0.2775309979915619
1750560858626503200,11.541503173828126,0.42938798666000366,0.09358000010251999,-0.2910589873790741
1750560858636108000,11.55110791015625,0.5782690048217773,0.11386500298976898,-0.15964899957180023
1750560858645713000,11.560712890625,0.3184579908847809,0.13378599286079407,-0.017816999927163124
1750560858655317800,11.57031787109375,-0.13556000590324402,0.11424200236797333,0.05216699838638306
1750560858664922600,11.579922607421874,-0.4428189992904663,0.050252001732587814,0.03266900032758713
1750560858674527500,11.589527587890625,-0.6085039973258972,0.021477999165654182,0.017385000362992287
1750560858684132000,11.599132080078125,-0.4608890116214752,-0.043076999485492706,0.045736998319625854
1750560858693737000,11.608737060546876,-0.12902599573135376,-0.07251500338315964,0.0015620000194758177
1750560858703341800,11.618341796875,0.2770709991455078,-0.04047200083732605,-0.07816600054502487
1750560858712946700,11.62794677734375,0.5378739833831787,-0.015017000027000904,-0.20332400500774384
1750560858722551600,11.637551513671875,0.39544200897216797,-0.0013279999839141965,-0.18254299461841583
1750560858732156400,11.647156494140624,-0.08485600352287292,-0.060176998376846313,-0.06065800040960312
1750560858741761000,11.656760986328125,-0.5091599822044373,-0.06987900286912918,-0.037230998277664185
1750560858751366000,11.666365966796874,-0.6199139952659607,-0.07729999721050262,-0.0689150020480156
1750560858760971000,11.675970947265625,-0.43580499291419983,-0.04769499972462654,-0.02367199957370758
1750560858770575600,11.68557568359375,-0.13553400337696075,-0.08572299778461456,0.08078300207853317
1750560858780180500,11.695180419921876,0.2888450026512146,-0.05882599949836731,0.1005449965596199
1750560858789785300,11.704785400390625,0.5112400054931641,-0.008816000074148178,0.01928899995982647
1750560858799390200,11.71439013671875,0.4258100092411041,0.029827000573277473,-0.09237600117921829
1750560858808994800,11.723994873046875,-0.009415999986231327,0.033472999930381775,-0.27828699350357056
1750560858818599700,11.733599609375,-0.3902699947357178,0.053266000002622604,-0.37355199456214905
1750560858828204500,11.74320458984375,-0.6237249970436096,0.003766000038012862,-0.2745189964771271
1750560858837809400,11.752809326171874,-0.6996979713439941,-0.06102500110864639,0.08204899728298187
1750560858847414300,11.762414306640625,-0.47437599301338196,-0.045910999178886414,0.37234100699424744
1750560858857019000,11.772018798828125,0.016040999442338943,-0.03523299843072891,0.435573011636734
1750560858866623700,11.781623779296876,0.5241659879684448,-0.02015399932861328,0.3410390019416809
1750560858876228600,11.791228515625,0.8225409984588623,0.02124200016260147,0.12625400722026825
1750560858885833500,11.80083349609375,0.6661520004272461,-0.0019450000254437327,-0.04174700006842613
1750560858895438300,11.810438232421875,0.2913750112056732,0.10795100033283234,-0.24387900531291962
