time,seconds_elapsed,z,y,x
1750560847143919400,0.05891943359375,7.902000427246094,5.557950496673584,0.7120500206947327
1750560847153524200,0.068524169921875,8.10105037689209,5.613000392913818,0.817050039768219
1750560847163129000,0.078129150390625,8.497950553894043,5.773950099945068,0.7210500240325928
1750560847172734000,0.08773388671875,8.290050506591797,5.884050369262695,0.4939500093460083
1750560847182338800,0.0973388671875,7.912050247192383,5.920050144195557,0.19005000591278076
1750560847191943700,0.106943603515625,7.7749505043029785,5.982000350952148,0.4030500054359436
1750560847201548300,0.11654833984375,7.543050289154053,5.985000133514404,0.6850500106811523
1750560847211153200,0.126153076171875,7.380000114440918,5.862000465393066,0.987000048160553
1750560847220758300,0.13575830078125,7.284000396728516,5.985000133514404,1.0399500131607056
1750560847230363100,0.145363037109375,7.204950332641602,6.211950302124023,0.3570000231266022
1750560847239968000,0.154968017578125,7.327950477600098,6.307950496673584,-0.2689500153064728
1750560847249572600,0.164572509765625,6.9370503425598145,6.358050346374512,-0.6780000329017639
1750560847259177500,0.174177490234375,7.102050304412842,6.334050178527832,-0.7290000319480896
1750560847268782300,0.1837822265625,7.05495023727417,6.475050449371338,-0.45600003004074097
1750560847278387500,0.193387451171875,7.123950481414795,6.475050449371338,-0.3739500045776367
1750560847287992300,0.202992431640625,7.372950553894043,6.343950271606445,-0.25905001163482666
1750560847297597000,0.212596923828125,7.672050476074219,6.346050262451172,-0.9300000667572021
1750560847307201800,0.222201904296875,7.758000373840332,6.103950500488281,-0.208950012922287
1750560847316806700,0.231806640625,7.603050231933594,6.040050506591797,0.28095000982284546
1750560847326411500,0.24141162109375,8.002950668334961,6.211950302124023,0.4510500133037567
1750560847336016400,0.251016357421875,8.06505012512207,6.565950393676758,0.6640500426292419
1750560847345621200,0.260621337890625,7.7149505615234375,6.645000457763672,0.5629500150680542
1750560847355226000,0.27022607421875,7.533000469207764,6.343950271606445,0.6450000405311584
1750560847364830700,0.279830810546875,7.240950107574463,6.403950214385986,1.015950083732605
1750560847374435600,0.289435546875,6.6499505043029785,6.4710001945495605,0.817050039768219
1750560847384040700,0.299040771484375,5.56095027923584,6.23805046081543,0.6160500049591064
1750560847393645600,0.3086455078125,6.049050331115723,6.279000282287598,0.2880000174045563
1750560847403250200,0.318250244140625,6.312000274658203,6.423000335693359,0.3240000009536743
1750560847412855000,0.32785498046875,6.478050231933594,6.3409504890441895,0.2779500186443329
1750560847422460000,0.3374599609375,7.492950439453125,6.082950115203857,0.3960000276565552
1750560847432064800,0.347064697265625,8.36400032043457,6.32895040512085,0.4939500093460083
1750560847441669600,0.356669677734375,8.491050720214844,5.944050312042236,1.0420500040054321
1750560847451274500,0.3662744140625,8.51294994354248,5.920050144195557,1.5520501136779785
1750560847460879400,0.37587939453125,8.452950477600098,6.013050079345703,1.9039500951766968
1750560847470484200,0.385484130859375,8.254050254821777,6.100050449371338,2.056950092315674
1750560847480089000,0.395089111328125,8.343000411987305,6.174000263214111,1.5310500860214233
1750560847489694000,0.40469384765625,8.752050399780273,6.38700008392334,0.7000500559806824
1750560847499298800,0.414298828125,7.830000400543213,6.478050231933594,0.24705001711845398
1750560847508903700,0.423903564453125,6.195000171661377,6.466050148010254,0.2740500271320343
1750560847518508300,0.43350830078125,4.9930500984191895,6.553950309753418,1.0440000295639038
1750560847528113200,0.443113037109375,4.156949996948242,6.705000400543213,1.8870000839233398
1750560847537718000,0.452718017578125,4.6650004386901855,6.753000259399414,2.107950210571289
1750560847547323000,0.462322998046875,6.0610504150390625,6.715050220489502,1.2619500160217285
1750560847556927700,0.471927734375,7.912050247192383,6.2220001220703125,0.44805002212524414
1750560847566532600,0.48153271484375,8.830950736999512,5.680950164794922,0.13905000686645508
1750560847576137500,0.491137451171875,9.370050430297852,5.91795015335083,0.13695000112056732
1750560847585742300,0.500742431640625,8.259000778198242,6.303000450134277,0.37905001640319824
1750560847595347000,0.510346923828125,7.110000133514404,6.115950107574463,0.9340500235557556
1750560847604952000,0.5199521484375,6.7069501876831055,6.0610504150390625,1.0920000076293945
1750560847614556700,0.529556640625,6.904050350189209,6.175950527191162,1.128000020980835
1750560847624161800,0.539161865234375,7.234050273895264,6.23805046081543,1.3410000801086426
1750560847633766700,0.5487666015625,6.966000556945801,6.243000507354736,1.2139500379562378
1750560847643371300,0.558371337890625,6.693000316619873,6.229050159454346,1.0279500484466553
1750560847652976000,0.56797607421875,6.822000503540039,6.135000228881836,1.0230000019073486
1750560847662581000,0.5775810546875,7.215000152587891,6.037050247192383,0.9199500679969788
1750560847672185600,0.587185546875,7.011000156402588,5.92995023727417,0.6349500417709351
1750560847681790700,0.596790771484375,7.240950107574463,5.970000267028809,0.3139500021934509
1750560847691395600,0.6063955078125,7.4569501876831055,6.1210503578186035,-0.25905001163482666
1750560847701000400,0.61600048828125,7.5360002517700195,6.0319504737854,-0.5230500102043152
1750560847710605000,0.62560498046875,7.969050407409668,5.809950351715088,-0.3739500045776367
1750560847720210000,0.6352099609375,8.414999961853027,5.791050434112549,0.24495001137256622
1750560847729814800,0.644814697265625,8.458050727844238,5.7210001945495605,0.7210500240325928
1750560847739419600,0.654419677734375,8.901000022888184,5.520000457763672,0.987000048160553
1750560847749024500,0.6640244140625,9.643050193786621,5.632950305938721,1.1470500230789185
1750560847758629400,0.67362939453125,9.540000915527344,5.805000305175781,0.9769500494003296
1750560847768234200,0.683234130859375,9.298050880432129,5.958000183105469,0.5820000171661377
1750560847777839000,0.692839111328125,8.608050346374512,6.070950508117676,0.4339500069618225
1750560847787444000,0.70244384765625,7.693950176239014,6.085050106048584,0.2760000228881836
1750560847797048800,0.712048828125,6.925050258636475,6.118950366973877,0.2639999985694885
1750560847806653400,0.7216533203125,6.87000036239624,6.163950443267822,0.24000000953674316
1750560847816258300,0.73125830078125,7.342050552368164,6.115950107574463,-0.10395000129938126
1750560847825863200,0.74086328125,7.921050548553467,6.004050254821777,-0.322050005197525
1750560847835468000,0.750468017578125,8.236949920654297,5.962950229644775,-0.05100000277161598
1750560847845073000,0.760072998046875,8.067000389099121,5.953050136566162,0.5149500370025635
1750560847854677500,0.769677490234375,7.6870503425598145,5.922000408172607,0.9340500235557556
1750560847864282600,0.77928271484375,7.533000469207764,5.842950344085693,1.1400001049041748
1750560847873887500,0.788887451171875,7.660050392150879,5.788050174713135,1.1160000562667847
1750560847883492400,0.798492431640625,7.999950408935547,5.83905029296875,0.6690000295639038
1750560847893097200,0.80809716796875,7.987950325012207,5.94195032119751,0.07200000435113907
1750560847902701800,0.817701904296875,7.762950420379639,5.974950313568115,-0.3169500231742859
1750560847912306700,0.827306640625,7.474050521850586,5.994000434875488,-0.4510500133037567
1750560847921911800,0.836911865234375,7.276950359344482,6.021000385284424,-0.2160000056028366
1750560847931516400,0.846516357421875,7.372950553894043,5.934000492095947,0.2659500241279602
1750560847941121300,0.856121337890625,7.579050540924072,5.779050350189209,0.736050009727478
1750560847950726100,0.86572607421875,8.12505054473877,5.64900016784668,1.0519500970840454
1750560847960331000,0.8753310546875,8.476950645446777,5.617950439453125,0.9649500250816345
1750560847969936100,0.88493603515625,8.641950607299805,5.635050296783447,0.6709500551223755
1750560847979540700,0.894540771484375,8.482049942016602,5.713950157165527,0.4050000309944153
1750560847989145600,0.9041455078125,8.06505012512207,5.800050258636475,0.17805001139640808
1750560847998750500,0.91375048828125,7.548000335693359,5.782950401306152,0.19200000166893005
1750560848008355300,0.923355224609375,7.264950275421143,5.800050258636475,0.34095001220703125
1750560848017960200,0.932960205078125,7.383000373840332,5.797950267791748,0.5080500245094299
1750560848027565000,0.94256494140625,7.881000518798828,5.761950492858887,0.6760500073432922
1750560848037169700,0.952169677734375,8.42400074005127,5.833950042724609,0.6330000162124634
1750560848046774500,0.9617744140625,8.568000793457031,5.865000247955322,0.4909500181674957
1750560848056379400,0.97137939453125,8.280000686645508,5.893950462341309,0.36900001764297485
1750560848065984300,0.980984375,7.897050380706787,5.94195032119751,0.4050000309944153
1750560848075589400,0.99058935546875,7.7059502601623535,5.944050312042236,0.42900002002716064
1750560848085194200,1.0001943359375,7.701000213623047,5.938950061798096,0.39795002341270447
1750560848094798800,1.009798828125,7.878000259399414,5.908050060272217,0.28095000982284546
1750560848104403700,1.01940380859375,8.07705020904541,5.896050453186035,0.27105000615119934
1750560848114008600,1.029008544921875,8.074950218200684,5.884050369262695,0.3739500045776367
1750560848123613400,1.038613525390625,7.897050380706787,5.9320502281188965,0.48705002665519714
1750560848133218300,1.04821826171875,7.729950428009033,5.965050220489502,0.5560500025749207
1750560848142823200,1.0578232421875,7.5259504318237305,6.009000301361084,0.4939500093460083
1750560848152427800,1.067427734375,7.378050327301025,6.006000518798828,0.31200000643730164
1750560848162032600,1.07703271484375,7.4569501876831055,6.058950424194336,0.18300001323223114
1750560848171637500,1.086637451171875,7.591050148010254,6.0319504737854,0.14400000870227814
1750560848181242600,1.09624267578125,7.777950286865234,5.9920501708984375,0.2689500153064728
1750560848190847500,1.105847412109375,8.011950492858887,5.994000434875488,0.364950031042099
1750560848200452000,1.1154521484375,8.110050201416016,5.90595006942749,0.42900002002716064
1750560848210057000,1.125056884765625,8.176950454711914,5.926950454711914,0.4320000112056732
1750560848219661800,1.134661865234375,8.0910005569458,5.944050312042236,0.37905001640319824
1750560848229267000,1.144266845703125,7.870950222015381,5.925000190734863,0.3570000231266022
1750560848238871800,1.153871826171875,7.701000213623047,5.926950454711914,0.3960000276565552
1750560848248476400,1.163476318359375,7.7749505043029785,5.961000442504883,0.27105000615119934
1750560848258081300,1.173081298828125,7.998000144958496,5.938950061798096,0.0799500048160553
1750560848267686100,1.18268603515625,8.11305046081543,5.896050453186035,-0.09405000507831573
1750560848277290800,1.192290771484375,8.07194995880127,5.925000190734863,-0.08895000070333481
1750560848286895600,1.2018955078125,7.900050163269043,5.953050136566162,0.016950000077486038
1750560848296500500,1.21150048828125,7.6650004386901855,5.9509501457214355,0.09195000678300858
1750560848306105300,1.221105224609375,7.45395040512085,5.962950229644775,0.09405000507831573
1750560848315710200,1.230710205078125,7.501950263977051,5.982000350952148,-0.00795000046491623
1750560848325315300,1.2403154296875,7.723050594329834,5.937000274658203,-0.05100000277161598
1750560848334920000,1.249919921875,8.12505054473877,5.854950428009033,0.0010500000789761543
1750560848344524800,1.25952490234375,8.434050559997559,5.8120503425598145,-0.022050000727176666
1750560848354129700,1.269129638671875,8.371050834655762,5.866950511932373,-0.07500000298023224
1750560848363734500,1.278734619140625,8.154000282287598,5.91795015335083,-0.034050002694129944
1750560848373339400,1.28833935546875,7.861050605773926,5.925000190734863,-0.00795000046491623
1750560848382944300,1.2979443359375,7.729950428009033,5.962950229644775,0.05595000088214874
1750560848392549000,1.307549072265625,7.702950477600098,5.944050312042236,0.22800001502037048
1750560848402154000,1.317154052734375,7.675050258636475,5.92995023727417,0.31905001401901245
1750560848411758600,1.326758544921875,7.794000148773193,5.970000267028809,0.3139500021934509
1750560848421363500,1.336363525390625,7.963950157165527,5.998950481414795,0.25394999980926514
1750560848430968300,1.34596826171875,7.993050575256348,5.953050136566162,0.18000000715255737
1750560848440573200,1.3555732421875,7.821000576019287,5.965050220489502,0.11100000888109207
1750560848450178300,1.36517822265625,7.486050128936768,6.022950172424316,0.14205001294612885
1750560848459783000,1.374782958984375,7.2960004806518555,6.03000020980835,0.15600000321865082
1750560848469387800,1.3843876953125,7.404000282287598,6.049050331115723,0.14400000870227814
1750560848478992600,1.39399267578125,7.749000549316406,5.9920501708984375,0.022050000727176666
1750560848488597800,1.40359765625,8.04104995727539,5.920050144195557,-0.10395000129938126
1750560848498202400,1.413202392578125,8.221050262451172,5.94195032119751,-0.15405000746250153
1750560848507807200,1.42280712890625,8.13705062866211,5.9509501457214355,-0.15600000321865082
1750560848517412000,1.432412109375,7.8949503898620605,5.902950286865234,-0.08205000311136246
1750560848527016700,1.4420166015625,7.569000244140625,5.958000183105469,-0.0010500000789761543
1750560848536621800,1.451621826171875,7.332000255584717,5.994000434875488,0.13005000352859497
1750560848546226700,1.461226806640625,7.336950302124023,6.0319504737854,0.18495000898838043
1750560848555831600,1.47083154296875,7.5450005531311035,6.055950164794922,0.13005000352859497
1750560848565436400,1.4804365234375,7.833000183105469,6.0319504737854,0.05295000225305557
1750560848575041000,1.490041015625,7.9360504150390625,5.985000133514404,-0.05400000140070915
1750560848584646000,1.49964599609375,7.858950138092041,5.997000217437744,-0.08205000311136246
1750560848594250800,1.509250732421875,7.600050449371338,5.998950481414795,-0.06105000153183937
1750560848603856000,1.51885595703125,7.464000225067139,6.040050506591797,-0.05595000088214874
1750560848613460500,1.52846044921875,7.509000301361084,6.073050498962402,-0.006000000052154064
1750560848623065300,1.5380654296875,7.735050201416016,6.0010504722595215,0.09600000083446503
1750560848632670200,1.547670166015625,8.034000396728516,5.974950313568115,0.21405000984668732
1750560848642274800,1.55727490234375,8.185050010681152,5.949000358581543,0.2639999985694885
1750560848651879700,1.566879638671875,8.05305004119873,5.956050395965576,0.31905001401901245
1750560848661484500,1.576484619140625,7.785000324249268,5.949000358581543,0.2350500077009201
1750560848671089700,1.586089599609375,7.579050540924072,6.010950088500977,0.028950002044439316
1750560848680694300,1.5956943359375,7.483050346374512,6.058950424194336,-0.16395001113414764
1750560848690299100,1.605299072265625,7.464000225067139,6.103950500488281,-0.24495001137256622
1750560848699904000,1.614904052734375,7.5450005531311035,6.064050197601318,-0.21900001168251038
1750560848709508600,1.624508544921875,7.7659502029418945,5.958000183105469,-0.07695000618696213
1750560848719113700,1.63411376953125,7.927950382232666,5.898000240325928,0.07695000618696213
1750560848728718600,1.643718505859375,7.927950382232666,5.8720502853393555,0.16305001080036163
1750560848738323500,1.653323486328125,7.821000576019287,5.925000190734863,0.17100000381469727
1750560848747928000,1.662927978515625,7.794000148773193,5.965050220489502,0.11295000463724136
1750560848757533200,1.672533203125,7.852050304412842,5.985000133514404,-0.027000000700354576
1750560848767137800,1.6821376953125,7.813950538635254,5.980050086975098,-0.14400000870227814
1750560848776743000,1.691742919921875,7.780050277709961,6.009000301361084,-0.1680000126361847
1750560848786347800,1.70134765625,7.627050399780273,5.958000183105469,-0.11805000901222229
1750560848795952400,1.710952392578125,7.5360002517700195,5.944050312042236,-0.04905000329017639
1750560848805557500,1.7205576171875,7.636050224304199,5.949000358581543,0.025050001218914986
1750560848815162000,1.730162109375,7.780050277709961,5.938950061798096,0.019950000569224358
1750560848824767000,1.73976708984375,7.999950408935547,5.920050144195557,-0.08895000070333481
1750560848834371800,1.749371826171875,8.011950492858887,5.953050136566162,-0.10395000129938126
1750560848843976700,1.758976806640625,7.782000541687012,5.9320502281188965,-0.0580500029027462
1750560848853581300,1.768581298828125,7.555050373077393,5.920050144195557,-0.05100000277161598
1750560848863186200,1.778186279296875,7.500000476837158,5.910000324249268,-0.04605000093579292
1750560848872791300,1.787791259765625,7.584000587463379,5.914950370788574,-0.05595000088214874
1750560848882396200,1.797396240234375,7.8160505294799805,5.910000324249268,-0.034050002694129944
1750560848892001000,1.8070009765625,8.158050537109375,5.898000240325928,0.036000002175569534
1750560848901605600,1.816605712890625,8.32395076751709,5.869950294494629,-0.04200000315904617
1750560848911210500,1.82621044921875,8.260950088500977,5.848050117492676,-0.18300001323223114
1750560848920815400,1.8358154296875,7.975950241088867,5.884050369262695,-0.35805001854896545
1750560848930420200,1.845420166015625,7.564950466156006,5.944050312042236,-0.30300000309944153
1750560848940025300,1.855025390625,7.279950141906738,5.982000350952148,-0.05595000088214874
1750560848949630000,1.8646298828125,7.260000228881836,5.998950481414795,0.11505000293254852
1750560848959234800,1.87423486328125,7.557000160217285,6.0319504737854,0.12300000339746475
1750560848968839700,1.883839599609375,7.840050220489502,6.03000020980835,0.07005000114440918
1750560848978444300,1.8934443359375,7.975950241088867,6.03000020980835,-0.05400000140070915
1750560848988049400,1.90304931640625,7.9069504737854,6.040050506591797,-0.04605000093579292
1750560848997654300,1.912654296875,7.7470502853393555,6.049050331115723,0.043950002640485764
1750560849007259100,1.922259033203125,7.657950401306152,6.067950248718262,0.12495000660419464
1750560849016863700,1.93186376953125,7.770000457763672,6.0520501136779785,0.17100000381469727
1750560849026468600,1.941468505859375,7.893000602722168,6.0420002937316895,0.11505000293254852
1750560849036073500,1.951073486328125,7.91895055770874,6.046950340270996,-0.006000000052154064
1750560849045678600,1.9606787109375,7.885050296783447,6.046950340270996,-0.043950002640485764
1750560849055283200,1.970283203125,7.7749505043029785,6.016050338745117,-0.05400000140070915
1750560849064888000,1.97988818359375,7.684050559997559,6.0010504722595215,0.022050000727176666
1750560849074493000,1.989492919921875,7.633950233459473,5.944050312042236,0.09600000083446503
1750560849084097800,1.999097900390625,7.861050605773926,5.898000240325928,0.010050000622868538
1750560849093702700,2.00870263671875,8.230050086975098,5.889000415802002,-0.0799500048160553
1750560849103307500,2.0183076171875,8.35004997253418,5.848050117492676,-0.031950000673532486
1750560849112912400,2.027912353515625,8.119950294494629,5.8309502601623535,0.17100000381469727
1750560849122517000,2.03751708984375,7.792050361633301,5.881950378417969,0.38100001215934753
1750560849132121900,2.047121826171875,7.540950298309326,5.91795015335083,0.3739500045776367
1750560849141726700,2.056726806640625,7.4350504875183105,5.937000274658203,0.19005000591278076
1750560849151331800,2.066331787109375,7.512000560760498,6.040050506591797,-0.0970500037074089
1750560849160936700,2.075936767578125,7.564950466156006,6.067950248718262,-0.17295001447200775
1750560849170541300,2.085541259765625,7.414050579071045,6.0420002937316895,-0.12300000339746475
1750560849180146200,2.095146240234375,7.192950248718262,6.073050498962402,-0.0580500029027462
1750560849189751000,2.1047509765625,7.114050388336182,6.055950164794922,-0.10905000567436218
1750560849199356000,2.11435595703125,7.1860504150390625,6.009000301361084,-0.19500000774860382
1750560849208960800,2.123960693359375,7.390050411224365,5.9920501708984375,-0.17805001139640808
1750560849218565600,2.133565673828125,7.656000137329102,5.938950061798096,-0.12105000764131546
1750560849228170500,2.14317041015625,7.999950408935547,5.92995023727417,-0.037050001323223114
1750560849237775400,2.152775390625,8.31195068359375,5.914950370788574,0.08205000311136246
1750560849247380000,2.1623798828125,8.425950050354004,5.92995023727417,0.06495000422000885
1750560849256984800,2.17198486328125,8.223000526428223,5.985000133514404,-0.022050000727176666
1750560849266589700,2.181589599609375,7.833000183105469,5.986950397491455,-0.10905000567436218
1750560849276194600,2.191194580078125,7.603050231933594,6.058950424194336,-0.08700000494718552
1750560849285799400,2.20079931640625,7.483050346374512,6.03000020980835,0.08700000494718552
1750560849295404300,2.210404296875,7.509000301361084,6.037050247192383,0.17100000381469727
1750560849305009000,2.2200087890625,7.82295036315918,6.040050506591797,0.10095000267028809
1750560849314614000,2.229614013671875,8.142000198364258,6.021000385284424,-0.003000000026077032
1750560849324219000,2.239218994140625,8.256000518798828,5.9509501457214355,-0.043950002640485764
1750560849333823700,2.24882373046875,8.143950462341309,5.884050369262695,-0.018000001087784767
1750560849343428600,2.2584287109375,8.005050659179688,5.878950119018555,0.0010500000789761543
1750560849353033200,2.268033203125,7.900050163269043,5.866950511932373,-0.06105000153183937
1750560849362638000,2.27763818359375,7.833000183105469,5.8909502029418945,-0.20205001533031464
1750560849372243000,2.287242919921875,7.8349504470825195,5.901000499725342,-0.2880000174045563
1750560849381848000,2.29684814453125,7.7749505043029785,5.896050453186035,-0.22095000743865967
1750560849391452700,2.30645263671875,7.660050392150879,5.908050060272217,-0.1969500035047531
1750560849401057500,2.3160576171875,7.615050315856934,5.862000465393066,-0.09405000507831573
1750560849410662100,2.325662109375,7.621950149536133,5.829000473022461,0.05295000225305557
1750560849420267300,2.335267333984375,7.737000465393066,5.845950126647949,0.05100000277161598
1750560849429872000,2.3448720703125,7.969050407409668,5.862000465393066,-0.06105000153183937
1750560849439477000,2.35447705078125,8.163000106811523,5.842950344085693,-0.15900000929832458
1750560849449081900,2.364081787109375,8.245050430297852,5.881950378417969,-0.1660500019788742
1750560849458686700,2.373686767578125,8.043000221252441,5.922000408172607,-0.0990000069141388
1750560849468291600,2.38329150390625,7.761000156402588,5.910000324249268,0.028950002044439316
1750560849477896400,2.392896484375,7.528950214385986,5.961000442504883,0.07695000618696213
1750560849487501300,2.402501220703125,7.41795015335083,5.956050395965576,0.05295000225305557
1750560849497106000,2.41210595703125,7.501950263977051,5.982000350952148,-0.003000000026077032
1750560849506710800,2.421710693359375,7.657950401306152,5.962950229644775,-0.06300000101327896
1750560849516315600,2.431315673828125,7.8760504722595215,5.974950313568115,-0.08505000174045563
1750560849525920800,2.440920654296875,8.022000312805176,5.944050312042236,-0.12300000339746475
1750560849535525600,2.450525634765625,7.9069504737854,5.90595006942749,-0.10605000704526901
1750560849545130200,2.460130126953125,7.749000549316406,5.926950454711914,0.039000000804662704
1750560849554735000,2.469735107421875,7.5960001945495605,5.920050144195557,0.2179500162601471
1750560849564339700,2.479339599609375,7.462050437927246,5.926950454711914,0.3049500286579132
1750560849573944800,2.48894482421875,7.597950458526611,5.9509501457214355,0.30900001525878906
1750560849583549700,2.4985498046875,7.9360504150390625,5.953050136566162,0.16095000505447388
1750560849593154600,2.508154541015625,8.295000076293945,5.949000358581543,0.025050001218914986
1750560849602759400,2.517759521484375,8.488950729370117,5.961000442504883,-0.034050002694129944
1750560849612364000,2.527364013671875,8.380949974060059,5.937000274658203,-0.0799500048160553
1750560849621969200,2.53696923828125,7.957050323486328,5.92995023727417,-0.043950002640485764
1750560849631574000,2.546573974609375,7.459050178527832,5.92995023727417,0.013050000183284283
1750560849641178600,2.5561787109375,7.312950134277344,5.946000099182129,0.09195000678300858
1750560849650783500,2.565783447265625,7.459050178527832,5.9320502281188965,0.1870500147342682
1750560849660388400,2.575388427734375,7.785000324249268,5.908050060272217,0.26205000281333923
1750560849669993200,2.5849931640625,8.029050827026367,5.878950119018555,0.19005000591278076
1750560849679598300,2.594598388671875,8.215950012207031,5.90595006942749,0.036000002175569534
1750560849689203200,2.604203125,8.272950172424316,5.898000240325928,-0.08505000174045563
1750560849698807800,2.613807861328125,8.185050010681152,5.898000240325928,-0.20400001108646393
1750560849708412700,2.62341259765625,8.04104995727539,5.898000240325928,-0.24495001137256622
1750560849718017500,2.633017578125,7.9360504150390625,5.893950462341309,-0.22800001502037048
1750560849727622400,2.642622314453125,7.773000240325928,5.854950428009033,-0.19005000591278076
1750560849737227300,2.652227294921875,7.552950382232666,5.829000473022461,-0.0580500029027462
1750560849746832100,2.66183203125,7.372950553894043,5.829000473022461,0.036000002175569534
1750560849756436700,2.671436767578125,7.327950477600098,5.854950428009033,0.16095000505447388
1750560849766041900,2.681041748046875,7.480950355529785,5.857950210571289,0.23295001685619354
1750560849775646700,2.690646728515625,7.866000175476074,5.893950462341309,0.17100000381469727
1750560849785251600,2.70025146484375,8.27595043182373,5.877000331878662,0.06300000101327896
1750560849794856200,2.709856201171875,8.446050643920898,5.860050201416016,-0.022050000727176666
1750560849804461000,2.7194609375,8.272950172424316,5.902950286865234,-0.022050000727176666
1750560849814066200,2.729066162109375,7.782000541687012,5.893950462341309,0.06300000101327896
1750560849823670800,2.7386708984375,7.35105037689209,5.949000358581543,0.09195000678300858
1750560849833275600,2.748275634765625,7.282050132751465,5.997000217437744,0.06000000238418579
1750560849842880500,2.757880615234375,7.3060503005981445,5.9920501708984375,0.004950000438839197
1750560849852485400,2.7674853515625,7.486050128936768,5.985000133514404,-0.06495000422000885
1750560849862090200,2.77709033203125,7.666950225830078,5.938950061798096,-0.30000001192092896
1750560849871695000,2.786695068359375,7.768050193786621,5.90595006942749,-0.34995001554489136
1750560849881299700,2.7962998046875,7.8349504470825195,5.908050060272217,-0.34800001978874207
1750560849890904800,2.80590478515625,7.785000324249268,5.90595006942749,-0.18000000715255737
1750560849900509700,2.815509765625,7.7659502029418945,5.8720502853393555,-0.12105000764131546
1750560849910114600,2.825114501953125,7.7659502029418945,5.869950294494629,-0.10095000267028809
1750560849919719200,2.83471923828125,7.768050193786621,5.854950428009033,-0.13500000536441803
1750560849929324000,2.844323974609375,7.7059502601623535,5.866950511932373,-0.19500000774860382
1750560849938929000,2.853928955078125,7.63200044631958,5.90595006942749,-0.30000001192092896
1750560849948533800,2.86353369140625,7.581000328063965,5.938950061798096,-0.322050005197525
1750560849958138600,2.873138671875,7.609950542449951,5.922000408172607,-0.11595000326633453
1750560849967743500,2.882743408203125,7.725000381469727,5.914950370788574,0.04605000093579292
1750560849977348000,2.89234814453125,7.924050331115723,5.94195032119751,0.04800000041723251
1750560849986953000,2.901952880859375,8.118000030517578,5.898000240325928,-0.06300000101327896
1750560849996557800,2.911557861328125,8.29995059967041,5.860050201416016,-0.19500000774860382
1750560850006163000,2.921162841796875,8.383049964904785,5.845950126647949,-0.24300001561641693
1750560850015767800,2.930767822265625,8.292000770568848,5.797950267791748,-0.1660500019788742
1750560850025372700,2.94037255859375,8.074950218200684,5.8120503425598145,-0.0580500029027462
1750560850034977500,2.9499775390625,7.8259501457214355,5.829000473022461,0.04800000041723251
1750560850044582400,2.95958251953125,7.758000373840332,5.829000473022461,0.039000000804662704
1750560850054187300,2.969187255859375,7.837050437927246,5.874000072479248,-0.043950002640485764
1750560850063791900,2.9787919921875,7.854000568389893,5.842950344085693,-0.13005000352859497
1750560850073396700,2.988396728515625,7.951950550079346,5.902950286865234,-0.20400001108646393
1750560850083001600,2.998001708984375,8.034000396728516,5.860050201416016,-0.19995000958442688
1750560850092606500,3.0076064453125,8.0910005569458,5.8309502601623535,-0.17295001447200775
1750560850102211300,3.01721142578125,8.158050537109375,5.829000473022461,-0.16095000505447388
1750560850111816200,3.026816162109375,8.07194995880127,5.82705020904541,-0.10605000704526901
1750560850121421000,3.036421142578125,7.912050247192383,5.776050090789795,0.019950000569224358
1750560850131026000,3.04602587890625,7.8259501457214355,5.788050174713135,-0.00795000046491623
1750560850140630800,3.055630859375,7.840050220489502,5.821950435638428,-0.07695000618696213
1750560850150235600,3.065235595703125,7.8949503898620605,5.817000389099121,-0.04200000315904617
1750560850159840500,3.074840576171875,8.06505012512207,5.8309502601623535,-0.043950002640485764
1750560850169445400,3.0844453125,8.187000274658203,5.818950176239014,-0.12105000764131546
1750560850179050200,3.09405029296875,8.130000114440918,5.794950485229492,-0.1279500126838684
1750560850188655000,3.103655029296875,7.978950500488281,5.817000389099121,-0.0970500037074089
1750560850198259700,3.113259765625,7.806000232696533,5.800050258636475,-0.08205000311136246
1750560850207864600,3.122864501953125,7.669950485229492,5.788050174713135,-0.04200000315904617
1750560850217469400,3.132469482421875,7.639050483703613,5.805000305175781,-0.013050000183284283
1750560850227074300,3.14207421875,7.711050510406494,5.836050510406494,-0.05400000140070915
1750560850236679200,3.15167919921875,7.7149505615234375,5.821950435638428,-0.09195000678300858
1750560850246284000,3.161283935546875,7.854000568389893,5.788050174713135,-0.14205001294612885
1750560850255889000,3.170888916015625,7.957050323486328,5.764050483703613,-0.24495001137256622
1750560850265493800,3.18049365234375,7.9860005378723145,5.748000144958496,-0.29100000858306885
1750560850275098600,3.1900986328125,7.866000175476074,5.752050399780273,-0.23295001685619354
1750560850284703200,3.199703125,7.70805025100708,5.755050182342529,-0.013050000183284283
1750560850294308000,3.20930810546875,7.7059502601623535,5.776050090789795,0.09600000083446503
1750560850303913200,3.218913330078125,7.782000541687012,5.8030500411987305,0.025050001218914986
1750560850313517800,3.228517822265625,7.945050239562988,5.761950492858887,-0.019950000569224358
1750560850323122700,3.238122802734375,7.999950408935547,5.736000061035156,-0.20400001108646393
1750560850332727600,3.2477275390625,8.122050285339355,5.769000053405762,-0.27900001406669617
1750560850342332400,3.25733251953125,8.143950462341309,5.709000110626221,-0.17595000565052032
1750560850351937000,3.26693701171875,8.086950302124023,5.749950408935547,-0.11595000326633453
1750560850361542100,3.276542236328125,8.122050285339355,5.788050174713135,-0.14205001294612885
1750560850371147000,3.28614697265625,8.25195026397705,5.782950401306152,-0.19200000166893005
1750560850380751600,3.295751708984375,8.266050338745117,5.791050434112549,-0.2639999985694885
1750560850390356500,3.3053564453125,8.176950454711914,5.8120503425598145,-0.27105000615119934
1750560850399961300,3.31496142578125,7.9170002937316895,5.800050258636475,-0.15600000321865082
1750560850409566200,3.324566162109375,7.612050533294678,5.791050434112549,-0.015000000596046448
1750560850419171000,3.334171142578125,7.495050430297852,5.860050201416016,0.08205000311136246
1750560850428775700,3.343775634765625,7.52400016784668,5.848050117492676,0.025050001218914986
1750560850438380800,3.353380859375,7.6459503173828125,5.857950210571289,-0.04905000329017639
1750560850447985700,3.362985595703125,7.882950305938721,5.90595006942749,-0.1279500126838684
1750560850457590300,3.37259033203125,8.10105037689209,5.898000240325928,-0.25200000405311584
1750560850467195100,3.382195068359375,8.176950454711914,5.845950126647949,-0.2689500153064728
1750560850476800000,3.391800048828125,8.14905071258545,5.845950126647949,-0.21405000984668732
1750560850486404900,3.40140478515625,8.09595012664795,5.818950176239014,-0.10095000267028809
1750560850496009700,3.411009765625,8.10105037689209,5.791050434112549,0.015000000596046448
1750560850505614600,3.420614501953125,8.062950134277344,5.773950099945068,0.1080000028014183
1750560850515219500,3.430219482421875,7.924050331115723,5.782950401306152,0.0799500048160553
1750560850524824300,3.43982421875,7.818000316619873,5.829000473022461,-0.010050000622868538
1750560850534429200,3.44942919921875,7.735050201416016,5.860050201416016,-0.10905000567436218
1750560850544034000,3.459033935546875,7.749000549316406,5.8720502853393555,-0.1969500035047531
1750560850553639000,3.468638916015625,7.7659502029418945,5.845950126647949,-0.29295000433921814
1750560850563243800,3.478243896484375,7.849050521850586,5.8030500411987305,-0.29805001616477966
1750560850572848400,3.487848388671875,7.993050575256348,5.737950325012207,-0.22095000743865967
1750560850582453200,3.497453369140625,8.14905071258545,5.685000419616699,-0.1469999998807907
1750560850592058400,3.507058349609375,8.302050590515137,5.673000335693359,-0.1879500150680542
1750560850601663000,3.5166630859375,8.319000244140625,5.704050064086914,-0.23295001685619354
1750560850611267800,3.526267822265625,8.022000312805176,5.6610002517700195,-0.16095000505447388
1750560850620872700,3.535872802734375,7.7470502853393555,5.709000110626221,-0.1879500150680542
1750560850630477600,3.5454775390625,7.528950214385986,5.725950241088867,-0.2639999985694885
1750560850640082400,3.55508251953125,7.512000560760498,5.740050315856934,-0.364950031042099
1750560850649687300,3.564687255859375,7.672050476074219,5.785950183868408,-0.4320000112056732
1750560850659292200,3.574292236328125,7.933050155639648,5.752050399780273,-0.36195001006126404
1750560850668897000,3.58389697265625,8.017050743103027,5.794950485229492,-0.34095001220703125
1750560850678501600,3.593501708984375,7.930950164794922,5.782950401306152,-0.13500000536441803
1750560850688106800,3.603106689453125,7.7059502601623535,5.805000305175781,-0.010050000622868538
1750560850697711600,3.612711669921875,7.569000244140625,5.8309502601623535,-0.04200000315904617
1750560850707316500,3.62231640625,7.633950233459473,5.83905029296875,-0.1680000126361847
1750560850716921000,3.631921142578125,7.761000156402588,5.845950126647949,-0.19995000958442688
1750560850726526000,3.64152587890625,7.909050464630127,5.862000465393066,-0.12495000660419464
1750560850736130800,3.651130859375,8.07194995880127,5.869950294494629,-0.05400000140070915
1750560850745735700,3.660735595703125,8.166000366210938,5.862000465393066,-0.039000000804662704
1750560850755340800,3.6703408203125,8.166000366210938,5.869950294494629,-0.09405000507831573
1750560850764945700,3.679945556640625,7.9860005378723145,5.866950511932373,-0.037050001323223114
1750560850774550300,3.68955029296875,7.713000297546387,5.866950511932373,-0.09405000507831573
1750560850784155100,3.699155029296875,7.564950466156006,5.848050117492676,-0.11805000901222229
1750560850793760000,3.708760009765625,7.72005033493042,5.841000080108643,-0.06795000284910202
1750560850803364900,3.71836474609375,7.987950325012207,5.800050258636475,-0.043950002640485764
1750560850812969500,3.727969482421875,8.203949928283691,5.776050090789795,-0.010050000622868538
1750560850822574600,3.73757470703125,8.282999992370605,5.779050350189209,-0.030000001192092896
1750560850832179500,3.747179443359375,8.199000358581543,5.773950099945068,-0.13500000536441803
1750560850841784000,3.7567841796875,8.118000030517578,5.785950183868408,-0.16395001113414764
1750560850851389000,3.766388916015625,8.035950660705566,5.797950267791748,-0.25200000405311584
1750560850860993800,3.775993896484375,7.975950241088867,5.749950408935547,-0.3430500030517578
1750560850870599000,3.785598876953125,7.969050407409668,5.760000228881836,-0.3550500273704529
1750560850880203500,3.79520361328125,7.8760504722595215,5.761950492858887,-0.25005000829696655
1750560850889808400,3.804808349609375,7.770000457763672,5.748000144958496,-0.05595000088214874
1750560850899413200,3.814413330078125,7.773000240325928,5.818950176239014,0.09195000678300858
1750560850909017900,3.824017822265625,7.882950305938721,5.818950176239014,0.08700000494718552
1750560850918623000,3.833623046875,8.019000053405762,5.81505012512207,0.0010500000789761543
1750560850928227800,3.843227783203125,8.12505054473877,5.817000389099121,-0.11295000463724136
1750560850937832700,3.852832763671875,7.948050498962402,5.82705020904541,-0.11100000888109207
1750560850947437300,3.862437255859375,7.699050426483154,5.8720502853393555,-0.027000000700354576
1750560850957042200,3.872042236328125,7.488000392913818,5.881950378417969,-0.08505000174045563
1750560850966647000,3.88164697265625,7.4760003089904785,5.878950119018555,-0.1680000126361847
1750560850976252200,3.891252197265625,7.675050258636475,5.82705020904541,-0.23295001685619354
1750560850985856800,3.900856689453125,8.006999969482422,5.764050483703613,-0.208950012922287
1750560850995462000,3.9104619140625,8.224950790405273,5.700000286102295,-0.11805000901222229
1750560851005066500,3.92006640625,8.206049919128418,5.680950164794922,0.025050001218914986
1750560851014671400,3.92967138671875,7.9960503578186035,5.683050155639648,0.040950000286102295
1750560851024276200,3.939276123046875,7.794000148773193,5.752050399780273,-0.039000000804662704
1750560851033881000,3.948881103515625,7.717950344085693,5.8030500411987305,-0.2160000056028366
1750560851043486000,3.95848583984375,7.809000492095947,5.82705020904541,-0.3769500255584717
1750560851053090600,3.968090576171875,7.954950332641602,5.85105037689209,-0.34800001978874207
1750560851062695400,3.9776953125,7.930950164794922,5.845950126647949,-0.2160000056028366
1750560851072300500,3.987300537109375,7.7989501953125,5.82705020904541,-0.05400000140070915
1750560851081905400,3.996905517578125,7.7440505027771,5.853000164031982,0.06000000238418579
1750560851091510000,4.006510009765625,7.81095027923584,5.860050201416016,-0.025050001218914986
1750560851101115000,4.016114990234375,7.914000511169434,5.841000080108643,-0.1279500126838684
1750560851110719700,4.0257197265625,7.948050498962402,5.853000164031982,-0.15600000321865082
1750560851120324900,4.035324951171875,7.846950531005859,5.866950511932373,-0.18495000898838043
1750560851129929700,4.0449296875,7.725000381469727,5.853000164031982,-0.19200000166893005
1750560851139534300,4.054534423828125,7.693950176239014,5.860050201416016,-0.14205001294612885
1750560851149139200,4.06413916015625,7.7989501953125,5.854950428009033,-0.07304999977350235
1750560851158744000,4.073744140625,7.900050163269043,5.776050090789795,0.025050001218914986
1750560851168349000,4.083348876953125,7.939950466156006,5.767050266265869,0.027000000700354576
1750560851177953800,4.092953857421875,8.022000312805176,5.75700044631958,-0.12495000660419464
1750560851187558700,4.10255859375,8.130000114440918,5.764050483703613,-0.2550000250339508
1750560851197163500,4.11216357421875,8.200950622558594,5.773950099945068,-0.2740500271320343
1750560851206768000,4.12176806640625,8.166000366210938,5.725950241088867,-0.18000000715255737
1750560851216373000,4.131373046875,8.130000114440918,5.737950325012207,-0.05595000088214874
1750560851225977900,4.140977783203125,7.978950500488281,5.773950099945068,-0.019950000569224358
1750560851235583000,4.1505830078125,7.801950454711914,5.716050148010254,0.10395000129938126
1750560851245187800,4.160187744140625,7.806000232696533,5.788050174713135,0.07695000618696213
1750560851254792400,4.16979248046875,7.621950149536133,5.821950435638428,-0.05595000088214874
1750560851264397300,4.179397216796875,7.45395040512085,5.8030500411987305,-0.17100000381469727
1750560851274002200,4.189002197265625,7.509000301361084,5.910000324249268,-0.35295000672340393
1750560851283607000,4.19860693359375,7.804050445556641,5.8720502853393555,-0.35295000672340393
1750560851293212000,4.2082119140625,8.12700080871582,5.760000228881836,-0.29295000433921814
1750560851302816800,4.217816650390625,8.414999961853027,5.724000453948975,-0.27900001406669617
1750560851312421600,4.227421630859375,8.368950843811035,5.692950248718262,-0.17595000565052032
1750560851322026200,4.237026123046875,7.978950500488281,5.620950222015381,-0.00795000046491623
1750560851331631400,4.24663134765625,7.64400053024292,5.671050071716309,0.0580500029027462
1750560851341236200,4.256236328125,7.432950496673584,5.749950408935547,-0.07695000618696213
1750560851350841000,4.265841064453125,7.408950328826904,5.785950183868408,-0.2689500153064728
1750560851360446000,4.275446044921875,7.513950347900391,5.791050434112549,-0.4990500211715698
1750560851370050600,4.285050537109375,7.7749505043029785,5.800050258636475,-0.40095001459121704
1750560851379655400,4.294655517578125,8.37405014038086,5.773950099945068,-0.11595000326633453
1750560851389260300,4.30426025390625,8.623050689697266,5.673000335693359,-0.010050000622868538
1750560851398865200,4.313865234375,8.824049949645996,5.653950214385986,0.14400000870227814
1750560851408470000,4.323469970703125,8.836050033569336,5.752050399780273,0.1489500105381012
1750560851418075000,4.333074951171875,8.380949974060059,5.700000286102295,0.11100000888109207
1750560851427679700,4.3426796875,7.7659502029418945,5.7019500732421875,0.22800001502037048
1750560851437284400,4.352284423828125,7.264950275421143,5.773950099945068,0.46695002913475037
1750560851446889200,4.36188916015625,7.081050395965576,5.848050117492676,0.6109500527381897
1750560851456494300,4.371494384765625,7.267950534820557,5.874000072479248,0.41700002551078796
1750560851466099000,4.381098876953125,7.675050258636475,5.92995023727417,0.034050002694129944
1750560851475703800,4.390703857421875,7.9860005378723145,5.980050086975098,-0.04605000093579292
1750560851485308700,4.40030859375,7.998000144958496,5.854950428009033,0.47700002789497375
1750560851494913500,4.40991357421875,8.191950798034668,5.544000148773193,2.517000198364258
1750560851504518100,4.41951806640625,8.641950607299805,5.359950065612793,5.098050117492676
1750560851514123500,4.42912353515625,8.82194995880127,4.837950229644775,8.455050468444824
1750560851523728100,4.43872802734375,9.718950271606445,4.378050327301025,10.480050086975098
1750560851533333000,4.4483330078125,10.5600004196167,4.266000270843506,8.341950416564941
1750560851542937600,4.4579375,10.711050033569336,4.570050239562988,4.807950019836426
1750560851552542700,4.467542724609375,10.866000175476074,4.701000213623047,1.8750001192092896
1750560851562147600,4.477147705078125,11.09595012664795,4.360949993133545,1.3290001153945923
1750560851571752400,4.48675244140625,11.118000984191895,3.9400501251220703,0.8820000290870667
1750560851581357000,4.496357177734375,9.718950271606445,4.096050262451172,-1.519050121307373
1750560851590962000,4.5059619140625,8.079000473022461,4.515000343322754,-3.4080002307891846
1750560851600566800,4.51556689453125,6.046950340270996,5.443050384521484,-6.4609503746032715
1750560851610171600,4.525171630859375,4.615050315856934,6.013050079345703,-8.9239501953125
1750560851619776500,4.534776611328125,4.11899995803833,6.3510003089904785,-9.75
1750560851629381400,4.54438134765625,4.821000099182129,6.394050121307373,-8.887950897216797
1750560851638986200,4.553986328125,5.731050491333008,6.022950172424316,-6.424950122833252
1750560851648591000,4.563591064453125,5.794950485229492,5.554050445556641,-5.026050090789795
1750560851658195700,4.57319580078125,5.677950382232666,5.368950366973877,-5.163000106811523
1750560851667800800,4.58280078125,6.13800048828125,5.287950038909912,-5.7210001945495605
1750560851677405700,4.59240576171875,6.739050388336182,5.271000385284424,-6.424950122833252
1750560851687010600,4.602010498046875,7.384950160980225,5.082000255584717,-7.368000507354736
1750560851696615200,4.611615234375,8.338050842285156,5.095950126647949,-8.551050186157227
1750560851706220300,4.62122021484375,8.905050277709961,5.134950160980225,-9.694950103759766
1750560851715825200,4.6308251953125,8.98905086517334,4.969050407409668,-10.156950950622559
1750560851725430000,4.640429931640625,7.656000137329102,4.201050281524658,-7.390050411224365
1750560851735035000,4.650034912109375,5.556000232696533,3.802950143814087,-4.183950424194336
1750560851744639500,4.659639404296875,4.591050148010254,3.5779502391815186,-2.493000030517578
1750560851754244400,4.669244384765625,5.6610002517700195,3.3799500465393066,-1.6699501276016235
1750560851763849200,4.67884912109375,7.966950416564941,3.346050262451172,-1.492050051689148
1750560851773454300,4.688454345703125,10.054950714111328,3.3600001335144043,-1.6150500774383545
1750560851783059000,4.698058837890625,10.171950340270996,2.9440500736236572,1.1190000772476196
1750560851792663800,4.707663818359375,9.418050765991211,2.997000217437744,4.636050224304199
1750560851802268400,4.717268310546875,8.551050186157227,3.703050136566162,7.65000057220459
1750560851811873300,4.726873291015625,9.11400032043457,4.375950336456299,7.510950565338135
1750560851821478100,4.73647802734375,10.753950119018555,5.080050468444824,5.163000106811523
1750560851831083300,4.746083251953125,11.604000091552734,5.359950065612793,2.8279502391815186
1750560851840688000,4.755688232421875,11.367000579833984,5.436000347137451,1.4749500751495361
1750560851850292700,4.765292724609375,9.96405029296875,5.568000316619873,1.6330500841140747
1750560851859897600,4.774897705078125,8.32800006866455,5.635050296783447,2.2920000553131104
1750560851869502500,4.78450244140625,7.204950332641602,5.731050491333008,2.946000099182129
1750560851879107300,4.794107421875,6.694950103759766,5.874000072479248,3.0480000972747803
1750560851888712200,4.803712158203125,6.741000175476074,5.898000240325928,2.991000175476074
1750560851898317000,4.813317138671875,7.216950416564941,5.977050304412842,2.682000160217285
1750560851907922000,4.822921875,7.348950386047363,6.0520501136779785,2.236950159072876
1750560851917526500,4.832526611328125,7.288950443267822,6.133050441741943,1.2910500764846802
1750560851927131600,4.842131591796875,7.450050354003906,5.998950481414795,0.4909500181674957
1750560851936736300,4.851736328125,7.801950454711914,5.893950462341309,-0.027000000700354576
1750560851946341400,4.86134130859375,8.416950225830078,5.767050266265869,0.08895000070333481
1750560851955946000,4.870946044921875,8.802000045776367,5.629950046539307,0.7140000462532043
1750560851965550800,4.88055078125,8.886000633239746,5.344950199127197,1.7680500745773315
1750560851975155700,4.89015576171875,8.721000671386719,5.17995023727417,2.199000120162964
1750560851984760600,4.899760498046875,8.529000282287598,5.323950290679932,1.818000078201294
1750560851994365700,4.90936572265625,8.211000442504883,5.391000270843506,1.1710500717163086
1750560852003970300,4.91897021484375,7.972050189971924,5.476950168609619,0.5779500007629395
1750560852013575200,4.9285751953125,7.794000148773193,5.635050296783447,0.25005000829696655
1750560852023179800,4.9381796875,7.519050121307373,5.712000370025635,0.10395000129938126
1750560852032784600,4.94778466796875,7.312950134277344,5.700000286102295,-0.04905000329017639
1750560852042389800,4.9573896484375,7.150050163269043,5.6610002517700195,-0.10095000267028809
1750560852051994600,4.96699462890625,7.153050422668457,5.527050495147705,0.06795000284910202
1750560852061599200,4.97659912109375,7.323000431060791,5.4120001792907715,0.5440500378608704
1750560852071204000,4.9862041015625,7.693950176239014,5.404950141906738,0.9820500612258911
1750560852080809000,4.99580908203125,8.278050422668457,5.386050224304199,1.1569499969482422
1750560852090413800,5.005413818359375,8.874000549316406,5.36400032043457,0.931950032711029
1750560852100019000,5.01501904296875,8.994000434875488,5.407950401306152,0.5629500150680542
1750560852109623600,5.02462353515625,8.6850004196167,5.475000381469727,0.23295001685619354
1750560852119228400,5.034228515625,8.12700080871582,5.518050193786621,0.09405000507831573
1750560852128833300,5.043833251953125,7.70805025100708,5.530050277709961,0.14205001294612885
1750560852138438100,5.053438232421875,7.521000385284424,5.487000465393066,0.37905001640319824
1750560852148043000,5.06304296875,7.383000373840332,5.443050384521484,0.7930500507354736
1750560852157648000,5.07264794921875,7.711050510406494,5.463000297546387,0.8670000433921814
1750560852167252500,5.08225244140625,8.161050796508789,5.523000240325928,0.6810000538825989
1750560852176857600,5.091857666015625,8.464950561523438,5.487000465393066,0.4050000309944153
1750560852186462200,5.101462158203125,8.625,5.476950168609619,0.22605000436306
1750560852196067300,5.1110673828125,8.599050521850586,5.460000038146973,0.12495000660419464
1750560852205672200,5.120672119140625,8.380949974060059,5.374050140380859,0.19005000591278076
1750560852215276800,5.13027685546875,8.266050338745117,5.355000019073486,0.3739500045776367
1750560852224881700,5.139881591796875,8.187000274658203,5.424000263214111,0.45795002579689026
1750560852234486500,5.149486572265625,8.11500072479248,5.391000270843506,0.5509500503540039
1750560852244091400,5.15909130859375,8.110050201416016,5.428950309753418,0.6109500527381897
1750560852253696500,5.168696533203125,8.050950050354004,5.404950141906738,0.6040500402450562
1750560852263301000,5.178301025390625,8.0149507522583,5.416950225830078,0.3720000088214874
1750560852272906000,5.187906005859375,8.005050659179688,5.443050384521484,0.11295000463724136
1750560852282510800,5.1975107421875,8.08905029296875,5.407950401306152,0.07005000114440918
1750560852292115500,5.207115478515625,8.239950180053711,5.374050140380859,0.15105000138282776
1750560852301720300,5.21672021484375,8.527050018310547,5.344950199127197,0.1680000126361847
1750560852311325200,5.2263251953125,8.881050109863281,5.3359503746032715,0.17805001139640808
1750560852320930300,5.235930419921875,8.910000801086426,5.269050121307373,0.24000000953674316
1750560852330535000,5.245534912109375,8.625,5.27400016784668,0.30900001525878906
1750560852340139800,5.255139892578125,8.119950294494629,5.317050457000732,0.2779500186443329
1750560852349744600,5.26474462890625,7.8160505294799805,5.356950283050537,0.24000000953674316
1750560852359349500,5.274349609375,7.797000408172607,5.386050224304199,0.19200000166893005
1750560852368954400,5.283954345703125,7.9360504150390625,5.392950057983398,0.22800001502037048
1750560852378559200,5.293559326171875,8.29995059967041,5.48205041885376,0.2970000207424164
1750560852388164000,5.3031640625,8.503050804138184,5.496000289916992,0.40005001425743103
1750560852397768700,5.312768798828125,8.532000541687012,5.47005033493042,0.3360000252723694
1750560852407373600,5.32237353515625,8.304000854492188,5.518050193786621,0.14205001294612885
1750560852416978400,5.331978515625,7.821000576019287,5.4910502433776855,0.12495000660419464
1750560852426583600,5.34158349609375,7.444950580596924,5.506050109863281,0.2880000174045563
1750560852436188400,5.3511884765625,7.1860504150390625,5.451000213623047,0.5490000247955322
1750560852445793000,5.36079296875,7.404000282287598,5.407950401306152,0.7090500593185425
1750560852455398000,5.37039794921875,7.927950382232666,5.451000213623047,0.736050009727478
1750560852465002800,5.380002685546875,8.296950340270996,5.416950225830078,0.7380000352859497
1750560852474607600,5.389607666015625,8.497950553894043,5.488950252532959,0.5940000414848328
1750560852484212500,5.39921240234375,8.403000831604004,5.551050186157227,0.39795002341270447
1750560852493817300,5.4088173828125,8.211000442504883,5.599050045013428,0.30705001950263977
1750560852503422000,5.418421875,8.05305004119873,5.605950355529785,0.3430500030517578
1750560852513026800,5.42802685546875,7.966950416564941,5.596950054168701,0.3720000088214874
1750560852522631700,5.437631591796875,7.8349504470825195,5.545950412750244,0.4320000112056732
1750560852532236500,5.447236572265625,7.797000408172607,5.467050075531006,0.5419500470161438
1750560852541841700,5.456841552734375,8.011950492858887,5.44605016708374,0.5389500260353088
1750560852551446300,5.4664462890625,8.296950340270996,5.44605016708374,0.5419500470161438
1750560852561051100,5.476051025390625,8.398050308227539,5.4340500831604,0.5509500503540039
1750560852570656000,5.485656005859375,8.138999938964844,5.479050159454346,0.41700002551078796
1750560852580260600,5.495260498046875,7.885050296783447,5.53695011138916,0.19500000774860382
1750560852589865700,5.50486572265625,7.8259501457214355,5.53695011138916,0.06795000284910202
1750560852599470600,5.514470703125,7.981050491333008,5.448000431060791,0.19200000166893005
1750560852609075500,5.524075439453125,8.105999946594238,5.407950401306152,0.3840000033378601
1750560852618680000,5.53368017578125,8.331000328063965,5.410050392150879,0.5149500370025635
1750560852628285000,5.543284912109375,8.458050727844238,5.439000129699707,0.5899500250816345
1750560852637889800,5.552889892578125,8.356950759887695,5.428950309753418,0.5940000414848328
1750560852647495000,5.562494873046875,8.062950134277344,5.452950477600098,0.7380000352859497
1750560852657099500,5.572099609375,7.845000267028809,5.554050445556641,0.7240500450134277
1750560852666704400,5.581704345703125,7.749000549316406,5.613000392913818,0.5250000357627869
1750560852676309200,5.591309326171875,7.821000576019287,5.593950271606445,0.22800001502037048
1750560852685913900,5.600913818359375,7.930950164794922,5.613000392913818,0.06000000238418579
1750560852695519000,5.61051904296875,8.07194995880127,5.590050220489502,0.11505000293254852
1750560852705123800,5.620123779296875,8.151000022888184,5.503050327301025,0.31200000643730164
1750560852714728400,5.629728515625,8.319000244140625,5.515050411224365,0.48900002241134644
1750560852724333600,5.63933349609375,8.37600040435791,5.451000213623047,0.5989500284194946
1750560852733938200,5.648938232421875,8.398050308227539,5.452950477600098,0.4630500078201294
1750560852743543000,5.65854296875,8.410050392150879,5.440950393676758,0.3550500273704529
1750560852753148000,5.66814794921875,8.271000862121582,5.428950309753418,0.3910500109195709
1750560852762752800,5.677752685546875,7.914000511169434,5.427000045776367,0.4549500346183777
1750560852772357600,5.687357666015625,7.62000036239624,5.44605016708374,0.4459500312805176
1750560852781962500,5.69696240234375,7.660050392150879,5.4720001220703125,0.35295000672340393
1750560852791567000,5.706567138671875,8.079000473022461,5.488950252532959,0.22605000436306
1750560852801172000,5.716171875,8.51294994354248,5.440950393676758,0.22800001502037048
1750560852810777000,5.725777099609375,8.740050315856934,5.391000270843506,0.3720000088214874
1750560852820382000,5.7353818359375,8.785950660705566,5.386050224304199,0.38100001215934753
1750560852829986800,5.74498681640625,8.470050811767578,5.37600040435791,0.3550500273704529
1750560852839591400,5.75459130859375,8.029050827026367,5.436000347137451,0.3169500231742859
1750560852849196300,5.7641962890625,7.702950477600098,5.544000148773193,0.2970000207424164
1750560852858801000,5.77380078125,7.737000465393066,5.566050052642822,0.3430500030517578
1750560852868406300,5.78340625,7.984050273895264,5.56095027923584,0.38805001974105835
1750560852878011000,5.793010986328125,8.098050117492676,5.523000240325928,0.4050000309944153
1750560852887615700,5.80261572265625,8.119950294494629,5.484000205993652,0.36195001006126404
1750560852897220400,5.812220458984375,7.939950466156006,5.424000263214111,0.44805002212524414
1750560852906825200,5.8218251953125,7.987950325012207,5.428950309753418,0.520050048828125
1750560852916430000,5.83143017578125,8.10300064086914,5.4340500831604,0.48405003547668457
1750560852926035200,5.84103515625,8.272950172424316,5.45805025100708,0.47895002365112305
1750560852935640000,5.85064013671875,8.383049964904785,5.398050308227539,0.42000001668930054
1750560852945245000,5.860244873046875,8.449950218200684,5.386050224304199,0.3430500030517578
1750560852954849500,5.869849609375,8.494050025939941,5.4150004386901855,0.24495001137256622
1750560852964454400,5.879454345703125,8.395050048828125,5.400000095367432,0.283050000667572
1750560852974059500,5.8890595703125,8.035950660705566,5.403000354766846,0.40005001425743103
1750560852983664000,5.8986640625,7.672050476074219,5.439000129699707,0.37605002522468567
1750560852993269000,5.90826904296875,7.591050148010254,5.439000129699707,0.3360000252723694
1750560853002873900,5.917873779296875,7.750950336456299,5.47005033493042,0.3739500045776367
1750560853012478500,5.927478515625,8.08905029296875,5.431950092315674,0.42195001244544983
1750560853022083300,5.937083251953125,8.40000057220459,5.400000095367432,0.42900002002716064
1750560853031688400,5.9466884765625,8.440950393676758,5.391000270843506,0.3550500273704529
1750560853041293300,5.956293212890625,8.338050842285156,5.44605016708374,0.30000001192092896
1750560853050898000,5.96589794921875,8.12505054473877,5.4720001220703125,0.28095000982284546
1750560853060502800,5.975502685546875,8.055000305175781,5.48205041885376,0.31200000643730164
1750560853070107600,5.985107666015625,8.082000732421875,5.500950336456299,0.38805001974105835
1750560853079712500,5.99471240234375,8.058000564575195,5.487000465393066,0.37905001640319824
1750560853089317400,6.0043173828125,8.07194995880127,5.488950252532959,0.34995001554489136
1750560853098922200,6.013922119140625,8.131950378417969,5.443050384521484,0.38100001215934753
1750560853108527000,6.023527099609375,8.07705020904541,5.355000019073486,0.4600500166416168
1750560853118131700,6.033131591796875,8.070000648498535,5.311950206756592,0.5389500260353088
1750560853127736800,6.04273681640625,8.227950096130371,5.332950115203857,0.40800002217292786
1750560853137341700,6.052341796875,8.515049934387207,5.355000019073486,0.22605000436306
1750560853146946600,6.061946533203125,8.577000617980957,5.3359503746032715,0.19500000774860382
1750560853156551200,6.07155126953125,8.414999961853027,5.332950115203857,0.3360000252723694
1750560853166156000,6.081156005859375,8.223000526428223,5.3959503173828125,0.47700002789497375
1750560853175761000,6.090760986328125,8.146050453186035,5.391000270843506,0.45795002579689026
1750560853185365800,6.10036572265625,8.182050704956055,5.3959503173828125,0.32895001769065857
1750560853194971000,6.109970947265625,8.211000442504883,5.386050224304199,0.2179500162601471
1750560853204575500,6.119575439453125,8.146050453186035,5.3620500564575195,0.2639999985694885
1750560853214180400,6.129180419921875,8.086950302124023,5.353050231933594,0.46695002913475037
1750560853223785200,6.13878515625,8.074950218200684,5.37600040435791,0.5370000004768372
1750560853233389800,6.148389892578125,8.203949928283691,5.4150004386901855,0.3910500109195709
1750560853242994700,6.15799462890625,8.440950393676758,5.464950084686279,0.16305001080036163
1750560853252599800,6.167599853515625,8.532000541687012,5.452950477600098,0.11805000901222229
1750560853262204400,6.177204345703125,8.40000057220459,5.3959503173828125,0.2569500207901001
1750560853271809300,6.186809326171875,8.154000282287598,5.374050140380859,0.3139500021934509
1750560853281414100,6.1964140625,7.9360504150390625,5.368950366973877,0.32895001769065857
1750560853291019000,6.20601904296875,7.882950305938721,5.374050140380859,0.4120500087738037
1750560853300624000,6.215623779296875,7.846950531005859,5.38800048828125,0.4720500111579895
1750560853310228700,6.225228759765625,8.017050743103027,5.410050392150879,0.43905001878738403
1750560853319833600,6.23483349609375,8.3860502243042,5.443050384521484,0.32100000977516174
1750560853329438500,6.2444384765625,8.533950805664062,5.479050159454346,0.2639999985694885
1750560853339043000,6.25404296875,8.455050468444824,5.475000381469727,0.16095000505447388
1750560853348648200,6.263648193359375,8.218050003051758,5.484000205993652,0.11100000888109207
1750560853358252800,6.273252685546875,8.119950294494629,5.484000205993652,0.09195000678300858
1750560853367857700,6.282857666015625,8.011950492858887,5.422050476074219,0.27105000615119934
1750560853377462500,6.292462646484375,7.90500020980835,5.391000270843506,0.5419500470161438
1750560853387067400,6.3020673828125,8.002950668334961,5.3620500564575195,0.5610000491142273
1750560853396672000,6.311672119140625,8.0149507522583,5.380950450897217,0.5460000038146973
1750560853406277000,6.321277099609375,8.10105037689209,5.4150004386901855,0.5230500102043152
1750560853415882000,6.330882080078125,8.143950462341309,5.419950485229492,0.42705002427101135
1750560853425486800,6.34048681640625,8.380949974060059,5.403000354766846,0.3450000286102295
1750560853435091700,6.350091796875,8.592000007629395,5.407950401306152,0.24195000529289246
1750560853444696300,6.3596962890625,8.640000343322754,5.359950065612793,0.24495001137256622
1750560853454301400,6.369301513671875,8.472000122070312,5.355000019073486,0.17295001447200775
1750560853463906300,6.37890625,8.215950012207031,5.37600040435791,0.08700000494718552
1750560853473511000,6.388510986328125,7.849050521850586,5.37600040435791,0.1969500035047531
1750560853483115800,6.39811572265625,7.593000411987305,5.3620500564575195,0.34995001554489136
1750560853492720600,6.407720703125,7.501950263977051,5.4120001792907715,0.47895002365112305
1750560853502325500,6.417325439453125,7.737000465393066,5.45805025100708,0.520050048828125
1750560853511930400,6.426930419921875,8.173049926757812,5.460000038146973,0.4720500111579895
1750560853521535200,6.43653515625,8.407050132751465,5.436000347137451,0.3360000252723694
1750560853531140000,6.44614013671875,8.380949974060059,5.448000431060791,0.13005000352859497
1750560853540745000,6.455744873046875,8.227950096130371,5.503050327301025,0.05295000225305557
1750560853550349800,6.465349853515625,7.897050380706787,5.479050159454346,0.08700000494718552
1750560853559954700,6.47495458984375,7.711050510406494,5.479050159454346,0.1680000126361847
1750560853569559600,6.4845595703125,7.741950511932373,5.476950168609619,0.283050000667572
1750560853579164200,6.4941640625,8.006999969482422,5.436000347137451,0.3379500210285187
1750560853588769000,6.50376904296875,8.175000190734863,5.392950057983398,0.453000009059906
1750560853598374000,6.513373779296875,8.28795051574707,5.359950065612793,0.5610000491142273
1750560853607978800,6.522978759765625,8.449950218200684,5.359950065612793,0.6060000061988831
1750560853617583600,6.53258349609375,8.575050354003906,5.296950340270996,0.9130500555038452
1750560853627188500,6.5421884765625,8.707050323486328,5.347950458526611,1.324950098991394
1750560853636793300,6.55179345703125,8.653950691223145,5.11305046081543,2.6130001544952393
1750560853646398000,6.56139794921875,8.641950607299805,4.828050136566162,4.357950210571289
1750560853656002800,6.5710029296875,9.087000846862793,4.555050373077393,6.465000152587891
1750560853665608000,6.58060791015625,10.179000854492188,3.8269500732421875,9.082050323486328
1750560853675212800,6.590212890625,11.404950141906738,3.4489500522613525,9.604050636291504
1750560853684817400,6.5998173828125,11.890950202941895,3.3100502490997314,9.231000900268555
1750560853694422300,6.60942236328125,11.9839506149292,3.5299501419067383,6.88200044631958
1750560853704027100,6.619027099609375,11.860050201416016,3.772050142288208,5.4280500411987305
1750560853713632000,6.628632080078125,10.954950332641602,3.655050277709961,3.349950075149536
1750560853723236900,6.63823681640625,10.059000015258789,4.105050086975098,-0.46800002455711365
1750560853732841700,6.647841796875,8.746950149536133,4.828050136566162,-3.7069501876831055
1750560853742446600,6.657446533203125,6.829050540924072,5.599050045013428,-6.813000202178955
1750560853752051500,6.667051513671875,5.235000133514404,6.135000228881836,-8.776050567626953
1750560853761656300,6.67665625,3.81000018119812,6.538050174713135,-8.756999969482422
1750560853771261200,6.68626123046875,2.8600502014160156,6.577950477600098,-7.021050453186035
1750560853780866000,6.695865966796875,2.734950065612793,6.436950206756592,-4.954950332641602
1750560853790471000,6.705470947265625,2.9410500526428223,6.376950263977051,-4.555050373077393
1750560853800075800,6.71507568359375,3.9850502014160156,5.926950454711914,-5.347050189971924
1750560853809680600,6.7246806640625,5.910000324249268,5.683050155639648,-6.264000415802002
1750560853819285200,6.73428515625,7.669950485229492,5.496000289916992,-7.207950115203857
1750560853828890000,6.74389013671875,8.677950859069824,5.206050395965576,-7.648050308227539
1750560853838495200,6.7534951171875,9.26400089263916,5.142000198364258,-8.3899507522583
1750560853848100000,6.76310009765625,9.327000617980957,5.110950469970703,-8.974950790405273
1750560853857705000,6.772705078125,8.529000282287598,4.957050323486328,-8.914950370788574
1750560853867309600,6.7823095703125,7.954950332641602,4.6650004386901855,-8.806950569152832
1750560853876914400,6.79191455078125,7.702950477600098,4.294050216674805,-8.572050094604492
1750560853886519000,6.80151904296875,7.390050411224365,3.847050189971924,-7.914000511169434
1750560853896124200,6.811124267578125,7.135950565338135,3.4180500507354736,-7.198050498962402
1750560853905729000,6.82072900390625,6.193050384521484,3.0229501724243164,-5.569950103759766
1750560853915334000,6.830333984375,4.557000160217285,2.5200002193450928,-3.3580501079559326
1750560853924938800,6.839938720703125,3.750000238418579,1.7230501174926758,-0.15405000746250153
1750560853934543400,6.84954345703125,3.9370501041412354,1.6249500513076782,3.951000213623047
1750560853944148200,6.859148193359375,5.698950290679932,2.1940500736236572,5.835000514984131
1750560853953753000,6.868753173828125,9.09000015258789,2.668950080871582,5.304000377655029
1750560853963358000,6.87835791015625,12.775050163269043,3.3169500827789307,3.3259501457214355
1750560853972962800,6.887962890625,14.59695053100586,3.7290000915527344,2.4379501342773438
1750560853982567700,6.897567626953125,13.969050407409668,3.934950113296509,3.1249501705169678
1750560853992172500,6.907172607421875,11.992050170898438,4.07895040512085,4.294050216674805
1750560854001777200,6.916777099609375,10.252950668334961,4.171950340270996,5.184000015258789
1750560854011382000,6.926382080078125,9.95895004272461,4.4070000648498535,4.425000190734863
1750560854020987000,6.93598681640625,10.55505084991455,4.741950035095215,2.754000186920166
1750560854030591500,6.945591552734375,10.82805061340332,4.8259501457214355,1.4040000438690186
1750560854040196600,6.955196533203125,10.138050079345703,4.89300012588501,0.9250500202178955
1750560854049801500,6.964801513671875,9.022950172424316,5.041050434112549,0.9679500460624695
1750560854059406000,6.974406005859375,8.023950576782227,5.175000190734863,1.0950000286102295
1750560854069011000,6.984010986328125,7.3660502433776855,5.296950340270996,1.2480000257492065
1750560854078615800,6.99361572265625,7.404000282287598,5.410050392150879,0.9010500311851501
1750560854088220700,7.003220703125,8.074950218200684,5.476950168609619,0.5820000171661377
1750560854097825500,7.012825439453125,8.629950523376465,5.380950450897217,0.6949500441551208
1750560854107430400,7.022430419921875,8.9170503616333,5.227950096130371,0.7600500583648682
1750560854117035300,7.03203515625,8.8410005569458,5.161050319671631,0.859950065612793
1750560854126640000,7.04164013671875,8.503050804138184,5.110950469970703,0.9010500311851501
1750560854136245000,7.051244873046875,8.332950592041016,5.190000057220459,0.690000057220459
1750560854145849600,7.060849609375,8.188950538635254,5.251950263977051,0.453000009059906
1750560854155454500,7.070454345703125,8.199000358581543,5.2420501708984375,0.21405000984668732
1750560854165059300,7.080059326171875,8.248950004577637,5.238000392913818,0.07200000435113907
1750560854174664200,7.089664306640625,8.107950210571289,5.239950180053711,-0.04905000329017639
1750560854184269000,7.09926904296875,7.785000324249268,5.221050262451172,-0.24300001561641693
1750560854193874000,7.1088740234375,7.411050319671631,5.182950019836426,-0.2880000174045563
1750560854203478800,7.118478759765625,7.359000205993652,5.118000030517578,0.003000000026077032
1750560854213083600,7.128083740234375,7.737000465393066,5.059950351715088,0.2179500162601471
1750560854222688300,7.137688232421875,8.43600082397461,5.013000011444092,0.30195000767707825
1750560854232293000,7.147293212890625,9.046950340270996,4.990950107574463,0.4050000309944153
1750560854241898000,7.15689794921875,9.375,4.972050189971924,0.37905001640319824
1750560854251502800,7.1665029296875,9.034950256347656,5.032050132751465,0.4720500111579895
1750560854261107700,7.176107666015625,8.230050086975098,5.095950126647949,0.5989500284194946
1750560854270712600,7.185712646484375,7.584000587463379,5.175000190734863,0.6930000185966492
1750560854280317400,7.1953173828125,7.324950218200684,5.230050086975098,0.5250000357627869
1750560854289922300,7.20492236328125,7.567050457000732,5.259000301361084,0.2779500186443329
1750560854299527000,7.21452685546875,7.861050605773926,5.254050254821777,0.2689500153064728
1750560854309131800,7.2241318359375,8.3860502243042,5.215950012207031,0.1680000126361847
1750560854318736600,7.233736572265625,8.838000297546387,5.182950019836426,0.07695000618696213
1750560854328341500,7.243341552734375,9.16200065612793,5.115000247955322,0.022050000727176666
1750560854337946600,7.252946533203125,9.207000732421875,5.07705020904541,0.08700000494718552
1750560854347551200,7.26255126953125,8.830950736999512,5.035950183868408,0.4050000309944153
1750560854357156000,7.272156005859375,8.176950454711914,5.005050182342529,0.859950065612793
1750560854366761000,7.281760986328125,7.723050594329834,5.094000339508057,1.059000015258789
1750560854376365600,7.291365478515625,7.504950523376465,5.19195032119751,0.987000048160553
1750560854385970700,7.300970703125,7.801950454711914,5.269050121307373,0.6040500402450562
1750560854395575600,7.310575439453125,8.458050727844238,5.283000469207764,0.13695000112056732
1750560854405180400,7.320180419921875,9.027000427246094,5.27400016784668,-0.27105000615119934
1750560854414785300,7.329785400390625,9.360000610351562,5.1469502449035645,-0.27900001406669617
1750560854424390000,7.339389892578125,9.169050216674805,5.1060004234313965,-0.0580500029027462
1750560854433994800,7.348994873046875,8.87700080871582,5.0560503005981445,0.14205001294612885
1750560854443599600,7.358599609375,8.3860502243042,5.008050441741943,0.38100001215934753
1750560854453204500,7.36820458984375,7.926000595092773,5.044050216674805,0.4459500312805176
1750560854462809300,7.377809326171875,7.549950122833252,5.127000331878662,0.43605002760887146
1750560854472414000,7.3874140625,7.45395040512085,5.10105037689209,0.2740500271320343
1750560854482018800,7.397018798828125,7.852050304412842,5.110950469970703,0.05100000277161598
1750560854491623700,7.406623779296875,8.461950302124023,5.175000190734863,-0.15600000321865082
1750560854501228500,7.416228515625,8.902950286865234,5.137050151824951,-0.22605000436306
1750560854510833400,7.42583349609375,9.079950332641602,5.134950160980225,-0.027000000700354576
1750560854520438300,7.435438232421875,8.826000213623047,5.062950134277344,0.19200000166893005
1750560854530043100,7.445043212890625,8.32800006866455,5.008050441741943,0.4600500166416168
1750560854539648000,7.45464794921875,7.9069504737854,4.990950107574463,0.6780000329017639
1750560854549252600,7.464252685546875,7.882950305938721,4.990950107574463,0.6850500106811523
1750560854558857700,7.473857666015625,8.022000312805176,5.005050182342529,0.6490500569343567
1750560854568462600,7.483462646484375,8.359050750732422,5.044050216674805,0.4819500148296356
1750560854578067200,7.493067138671875,8.806950569152832,5.10105037689209,0.12495000660419464
1750560854587672000,7.502672119140625,8.9839506149292,5.158950328826904,-0.06795000284910202
1750560854597277000,7.51227685546875,8.806950569152832,5.194050312042236,-0.21405000984668732
1750560854606881500,7.521881591796875,8.431050300598145,5.245050430297852,-0.18000000715255737
1750560854616486700,7.531486572265625,8.07194995880127,5.245050430297852,-0.11595000326633453
1750560854626091500,7.541091552734375,7.881000518798828,5.278050422668457,-0.0990000069141388
1750560854635696400,7.5506962890625,7.840050220489502,5.257050037384033,-0.030000001192092896
1750560854645301200,7.56030126953125,7.857000350952148,5.19195032119751,0.19005000591278076
1750560854654905900,7.56990576171875,7.828050136566162,5.182950019836426,0.34800001978874207
1750560854664510700,7.5795107421875,7.7749505043029785,5.170950412750244,0.4410000145435333
1750560854674115800,7.58911572265625,7.846950531005859,5.131950378417969,0.30000001192092896
1750560854683720400,7.598720458984375,8.314050674438477,5.098950386047363,0.019950000569224358
1750560854693325300,7.6083251953125,8.872050285339355,5.118000030517578,-0.2950500249862671
1750560854702930200,7.61793017578125,9.181050300598145,5.07705020904541,-0.2740500271320343
1750560854712534800,7.62753466796875,8.886000633239746,5.083950042724609,-0.07005000114440918
1750560854722139600,7.6371396484375,8.308950424194336,5.10105037689209,0.09600000083446503
1750560854731744500,7.64674462890625,7.91895055770874,5.131950378417969,0.2850000262260437
1750560854741349600,7.656349609375,7.681950569152832,5.1469502449035645,0.3450000286102295
1750560854750954200,7.665954345703125,7.897050380706787,5.130000114440918,0.3049500286579132
1750560854760559000,7.67555908203125,8.155950546264648,5.1660003662109375,0.20595000684261322
1750560854770164000,7.6851640625,8.467050552368164,5.095950126647949,0.18300001323223114
1750560854779768600,7.6947685546875,8.869050025939941,5.1060004234313965,0.24495001137256622
1750560854789373700,7.704373779296875,9.065999984741211,5.10105037689209,0.28995001316070557
1750560854798978600,7.713978515625,8.95305061340332,5.115000247955322,0.22995001077651978
1750560854808583200,7.723583251953125,8.551050186157227,5.130000114440918,0.06000000238418579
1750560854818188000,7.73318798828125,8.134050369262695,5.110950469970703,0.05100000277161598
1750560854827793000,7.74279296875,7.957050323486328,5.127000331878662,0.11295000463724136
1750560854837397800,7.752397705078125,7.938000202178955,5.134950160980225,0.17805001139640808
1750560854847002600,7.762002685546875,7.969050407409668,5.115000247955322,0.26205000281333923
1750560854856607500,7.771607421875,8.215950012207031,5.130000114440918,0.24705001711845398
1750560854866212400,7.78121240234375,8.479050636291504,5.139000415802002,0.17505000531673431
1750560854875817200,7.790817138671875,8.611050605773926,5.08905029296875,0.04800000041723251
1750560854885422000,7.800422119140625,8.756999969482422,5.095950126647949,0.003000000026077032
1750560854895027000,7.81002685546875,8.761950492858887,5.074950218200684,0.028950002044439316
1750560854904631800,7.8196318359375,8.56095027923584,5.047950267791748,0.18300001323223114
1750560854914236400,7.829236328125,8.295000076293945,5.07705020904541,0.3720000088214874
1750560854923841300,7.83884130859375,8.11305046081543,5.125050067901611,0.5179499983787537
1750560854933446100,7.848446044921875,8.175000190734863,5.187000274658203,0.5010000467300415
1750560854943051000,7.858051025390625,8.188950538635254,5.218050479888916,0.30900001525878906
1750560854952656000,7.86765576171875,8.047950744628906,5.283000469207764,0.07695000618696213
1750560854962260700,7.8772607421875,7.926000595092773,5.299950122833252,-0.022050000727176666
1750560854971865600,7.886865478515625,7.912050247192383,5.259000301361084,0.11805000901222229
1750560854981470200,7.89647021484375,8.11305046081543,5.211000442504883,0.22995001077651978
1750560854991075000,7.906074951171875,8.503050804138184,5.122950077056885,0.29295000433921814
1750560855000680200,7.91568017578125,8.87700080871582,5.092050075531006,0.2850000262260437
1750560855010284800,7.925284912109375,8.994000434875488,5.086950302124023,0.325950026512146
1750560855019889700,7.9348896484375,8.809950828552246,5.083950042724609,0.3930000066757202
1750560855029494500,7.94449462890625,8.425950050354004,5.10105037689209,0.35295000672340393
1750560855039099400,7.954099365234375,8.11500072479248,5.142000198364258,0.17805001139640808
1750560855048704300,7.963704345703125,7.9960503578186035,5.149050235748291,0.0799500048160553
1750560855058309000,7.97330908203125,8.038949966430664,5.134950160980225,0.11505000293254852
1750560855067914000,7.9829140625,8.175000190734863,5.092050075531006,0.14205001294612885
1750560855077518800,7.992518798828125,8.338050842285156,5.035950183868408,0.24705001711845398
1750560855087123500,8.00212353515625,8.464950561523438,4.986000061035156,0.28095000982284546
1750560855096728300,8.011728271484374,8.644050598144531,5.047950267791748,0.25394999980926514
1750560855106333400,8.02133349609375,8.755050659179688,5.038950443267822,0.29295000433921814
1750560855115938000,8.03093798828125,8.683050155639648,5.026950359344482,0.2569500207901001
1750560855125543000,8.04054296875,8.347050666809082,5.074950218200684,0.13695000112056732
1750560855135147800,8.050147705078125,8.043000221252441,5.08905029296875,0.05595000088214874
1750560855144752400,8.05975244140625,7.945050239562988,5.142000198364258,0.013050000183284283
1750560855154357500,8.069357421875,8.086950302124023,5.110950469970703,-0.031950000673532486
1750560855163962400,8.07896240234375,8.484000205993652,5.142000198364258,-0.15195000171661377
1750560855173567200,8.088567138671875,8.836050033569336,5.1060004234313965,-0.09405000507831573
1750560855183171800,8.098171875,8.950950622558594,4.990950107574463,0.15600000321865082
1750560855192776700,8.107776611328125,8.905050277709961,5.00100040435791,0.17100000381469727
1750560855202381600,8.117381591796875,8.652000427246094,5.029050350189209,0.19500000774860382
1750560855211986400,8.126986328125,8.079000473022461,5.06505012512207,0.3139500021934509
1750560855221591300,8.13659130859375,7.656000137329102,5.131950378417969,0.43905001878738403
1750560855231196200,8.146196044921876,7.572000503540039,5.173050403594971,0.4630500078201294
1750560855240800800,8.15580078125,7.737000465393066,5.247000217437744,0.31905001401901245
1750560855250405600,8.165405517578124,7.987950325012207,5.281050205230713,0.14400000870227814
1750560855260010500,8.175010498046875,8.26395034790039,5.254050254821777,0.0580500029027462
1750560855269615000,8.184614990234374,8.544000625610352,5.187000274658203,-0.05400000140070915
1750560855279220200,8.19422021484375,8.695050239562988,5.163000106811523,-0.12105000764131546
1750560855288825000,8.2038251953125,8.640000343322754,5.118000030517578,0.003000000026077032
1750560855298430000,8.213429931640626,8.460000038146973,5.086950302124023,0.19500000774860382
1750560855308034800,8.223034912109375,8.151000022888184,5.095950126647949,0.47895002365112305
1750560855317639400,8.232639404296876,7.930950164794922,5.139000415802002,0.6060000061988831
1750560855327244300,8.242244384765625,7.933050155639648,5.178000450134277,0.5110500454902649
1750560855336849200,8.25184912109375,8.175000190734863,5.19195032119751,0.3570000231266022
1750560855346454000,8.2614541015625,8.403000831604004,5.158950328826904,0.1969500035047531
1750560855356059000,8.271058837890624,8.428950309753418,5.149050235748291,0.14205001294612885
1750560855365663700,8.280663818359375,8.416950225830078,5.163000106811523,0.14205001294612885
1750560855375268400,8.290268310546875,8.359050750732422,5.185050010681152,0.09405000507831573
1750560855384873200,8.299873291015626,8.242050170898438,5.1469502449035645,0.15600000321865082
1750560855394478000,8.30947802734375,8.282999992370605,5.131950378417969,0.18000000715255737
1750560855404083200,8.319083251953124,8.398050308227539,5.149050235748291,0.23295001685619354
1750560855413687800,8.328687744140625,8.484000205993652,5.095950126647949,0.1969500035047531
1750560855423292700,8.338292724609374,8.52495002746582,5.08905029296875,0.14400000870227814
1750560855432897500,8.3478974609375,8.392950057983398,5.074950218200684,0.18300001323223114
1750560855442502100,8.357502197265624,8.368950843811035,5.0560503005981445,0.2350500077009201
1750560855452107300,8.367107177734376,8.440950393676758,5.0530500411987305,0.19500000774860382
1750560855461712000,8.3767119140625,8.494050025939941,5.035950183868408,0.20205001533031464
1750560855471317000,8.38631689453125,8.620050430297852,5.0530500411987305,0.17805001139640808
1750560855480921600,8.395921630859375,8.692049980163574,5.10105037689209,0.15600000321865082
1750560855490526500,8.4055263671875,8.689949989318848,5.068050384521484,0.12300000339746475
1750560855500131300,8.41513134765625,8.628000259399414,5.06505012512207,0.12000000476837158
1750560855509736200,8.424736083984374,8.446050643920898,5.035950183868408,0.36705002188682556
1750560855519341000,8.434341064453125,8.520000457763672,5.046000003814697,0.4320000112056732
1750560855528946000,8.44394580078125,8.761950492858887,5.017050266265869,0.4050000309944153
1750560855538550800,8.45355078125,8.994000434875488,4.984050273895264,0.40005001425743103
1750560855548155400,8.4631552734375,8.944050788879395,5.062950134277344,0.2970000207424164
1750560855557760300,8.47276025390625,8.527050018310547,5.08905029296875,0.1660500019788742
1750560855567365000,8.482365234375,8.074950218200684,5.127000331878662,0.16305001080036163
1750560855576970000,8.491969970703124,7.837050437927246,5.163000106811523,0.1870500147342682
1750560855586574800,8.501574951171875,7.912050247192383,5.185050010681152,0.27105000615119934
1750560855596179700,8.5111796875,8.235000610351562,5.2260003089904785,0.36195001006126404
1750560855605784600,8.52078466796875,8.56095027923584,5.151000022888184,0.40800002217292786
1750560855615389200,8.53038916015625,8.737950325012207,5.137050151824951,0.4650000333786011
1750560855624994300,8.539994384765626,8.491050720214844,5.110950469970703,0.40005001425743103
1750560855634599200,8.54959912109375,8.0910005569458,5.142000198364258,0.3169500231742859
1750560855644203800,8.559203857421876,7.794000148773193,5.131950378417969,0.25905001163482666
1750560855653808600,8.56880859375,7.737000465393066,5.15595006942749,0.2569500207901001
1750560855663413500,8.57841357421875,8.038949966430664,5.127000331878662,0.13005000352859497
1750560855673018400,8.588018310546875,8.343000411987305,5.115000247955322,-0.010050000622868538
1750560855682623200,8.597623291015625,8.568000793457031,5.098950386047363,-0.018000001087784767
1750560855692228000,8.60722802734375,8.557950019836426,5.08905029296875,0.07005000114440918
1750560855701833000,8.6168330078125,8.410050392150879,5.122950077056885,0.17100000381469727
1750560855711437600,8.6264375,8.256000518798828,5.143950462341309,0.24495001137256622
1750560855721042400,8.63604248046875,8.105999946594238,5.122950077056885,0.24000000953674316
1750560855730647300,8.645647216796876,8.292000770568848,5.107950210571289,0.24195000529289246
1750560855740252200,8.655252197265625,8.749950408935547,5.07705020904541,0.3169500231742859
1750560855749857000,8.66485693359375,8.97195053100586,5.059950351715088,0.28995001316070557
1750560855759462000,8.6744619140625,8.896050453186035,5.050950050354004,0.33105000853538513
1750560855769066500,8.68406640625,8.587050437927246,5.080050468444824,0.45795002579689026
1750560855778671600,8.693671630859376,8.284950256347656,5.00100040435791,0.8479500412940979
1750560855788276500,8.7032763671875,8.343000411987305,4.914000034332275,1.377000093460083
1750560855797881300,8.71288134765625,8.437950134277344,4.641000270843506,3.132000207901001
1750560855807486000,8.72248583984375,8.625,4.503000259399414,4.7719502449035645
1750560855817090800,8.7320908203125,9.276000022888184,4.464000225067139,5.4280500411987305
1750560855826695400,8.7416953125,9.870000839233398,4.656000137329102,5.752050399780273
1750560855836300500,8.751300537109374,9.95895004272461,4.552950382232666,5.290050029754639
1750560855845905400,8.760905517578125,10.368000030517578,3.9690001010894775,5.943000316619873
1750560855855510300,8.77051025390625,10.950000762939453,3.844050168991089,6.1080002784729
1750560855865115000,8.780114990234376,10.921050071716309,3.5880000591278076,7.6459503173828125
1750560855874719700,8.7897197265625,10.737000465393066,3.516000270843506,6.802950382232666
1750560855884324600,8.79932470703125,10.078950881958008,3.8230502605438232,3.931950092315674
1750560855893929500,8.808929443359375,8.92905044555664,3.862950086593628,1.2649500370025635
1750560855903534600,8.81853466796875,7.648050308227539,4.351950168609619,-1.5520501136779785
1750560855913139200,8.82813916015625,6.703050136566162,4.5769500732421875,-2.8500001430511475
1750560855922744000,8.837744140625,6.207000255584717,5.098950386047363,-5.196000099182129
1750560855932349000,8.847348876953125,6.279000282287598,5.475000381469727,-7.717950344085693
1750560855941953800,8.856953857421875,6.645000457763672,5.970000267028809,-9.396000862121582
1750560855951558400,8.866558349609376,6.77400016784668,6.139950275421143,-10.33905029296875
1750560855961163500,8.87616357421875,6.765000343322754,6.058950424194336,-10.207950592041016
1750560855970768100,8.88576806640625,6.133050441741943,5.886000156402588,-9.070050239562988
1750560855980373000,8.895373046875,5.814000129699707,5.3959503173828125,-7.717950344085693
1750560855989978000,8.90497802734375,6.115950107574463,4.969050407409668,-6.889050483703613
1750560855999582700,8.914582763671875,6.817950248718262,4.764000415802002,-6.465000152587891
1750560856009187600,8.9241875,7.074000358581543,4.5360002517700195,-6.429000377655029
1750560856018792400,8.93379248046875,7.240950107574463,4.22504997253418,-6.385950088500977
1750560856028397000,8.94339697265625,7.557000160217285,4.2460503578186035,-7.042050361633301
1750560856038002200,8.953002197265626,7.639050483703613,4.384950160980225,-7.777050495147705
1750560856047606800,8.962606689453125,7.423050403594971,4.549950122833252,-8.170050621032715
1750560856057211400,8.97221142578125,6.475050449371338,4.090950012207031,-6.700050354003906
1750560856066816500,8.98181640625,5.809950351715088,3.6090002059936523,-4.915950298309326
1750560856076421400,8.99142138671875,5.497950077056885,3.475050210952759,-4.267050266265869
1750560856086026200,9.001026123046875,5.829000473022461,2.9580001831054688,-2.4910500049591064
1750560856095630800,9.010630859375,5.809950351715088,2.7550501823425293,0.039000000804662704
1750560856105235700,9.020235595703125,5.356950283050537,2.6419501304626465,2.6730000972747803
1750560856114840800,9.0298408203125,6.624000549316406,2.2729501724243164,5.083950042724609
1750560856124445700,9.03944580078125,9.496950149536133,2.428950071334839,5.449950218200684
1750560856134050300,9.04905029296875,13.158000946044922,3.0990002155303955,4.248000144958496
1750560856143655200,9.0586552734375,15.46605110168457,3.5929501056671143,3.1780500411987305
1750560856153260000,9.068260009765625,15.099000930786133,3.894000291824341,2.5789501667022705
1750560856162864600,9.07786474609375,12.592950820922852,4.012050151824951,3.9439501762390137
1750560856172469800,9.0874697265625,9.841950416564941,4.159950256347656,5.400000095367432
1750560856182074600,9.09707470703125,8.476950645446777,4.491000175476074,5.3020501136779785
1750560856191679200,9.10667919921875,8.66100025177002,4.864050388336182,3.901050090789795
1750560856201284000,9.1162841796875,9.187950134277344,5.127000331878662,2.467050075531006
1750560856210889000,9.125888916015626,9.16200065612793,5.245050430297852,1.5420000553131104
1750560856220493800,9.135493896484375,8.577000617980957,5.380950450897217,0.7620000243186951
1750560856230098700,9.1450986328125,8.200950622558594,5.620950222015381,0.13005000352859497
1750560856239703600,9.15470361328125,8.086950302124023,5.4910502433776855,0.06000000238418579
1750560856249308400,9.164308349609374,8.105999946594238,5.323950290679932,0.6450000405311584
1750560856258913000,9.1739130859375,8.233050346374512,5.326050281524658,1.2960000038146973
1750560856268518000,9.183517822265625,8.611050605773926,5.170950412750244,1.7010000944137573
1750560856278122800,9.193122802734376,8.97705078125,5.092050075531006,1.8799500465393066
1750560856287727900,9.202727783203125,9.037050247192383,5.080050468444824,1.6219500303268433
1750560856297332500,9.21233251953125,8.557950019836426,5.173050403594971,1.054050087928772
1750560856306937300,9.221937255859375,7.881000518798828,5.250000476837158,0.703950047492981
1750560856316542200,9.231542236328124,7.504950523376465,5.419950485229492,0.3840000033378601
1750560856326147000,9.24114697265625,7.540950298309326,5.479050159454346,0.06000000238418579
1750560856335751700,9.250751708984374,7.780050277709961,5.407950401306152,-0.1660500019788742
1750560856345356500,9.2603564453125,8.224950790405273,5.319000244140625,-0.13005000352859497
1750560856354961700,9.269961669921875,8.31195068359375,5.215950012207031,-0.10095000267028809
1750560856364566300,9.279566162109376,7.969050407409668,5.086950302124023,0.1270500123500824
1750560856374171100,9.289171142578125,7.624050140380859,5.038950443267822,0.44805002212524414
1750560856383776000,9.29877587890625,7.591050148010254,5.020050048828125,0.7069500088691711
1750560856393380600,9.308380615234375,7.924050331115723,5.017050266265869,0.8149500489234924
1750560856402985500,9.3179853515625,8.391000747680664,5.047950267791748,0.6810000538825989
1750560856412590600,9.327590576171875,8.862000465393066,5.127000331878662,0.5820000171661377
1750560856422195200,9.3371953125,9.123000144958496,5.149050235748291,0.37605002522468567
1750560856431800000,9.346800048828126,9.073050498962402,5.170950412750244,0.1969500035047531
1750560856441405000,9.356405029296875,8.733000755310059,5.215950012207031,0.10605000704526901
1750560856451009500,9.366009521484376,8.296950340270996,5.199000358581543,0.17805001139640808
1750560856460614700,9.37561474609375,7.9360504150390625,5.15595006942749,0.28995001316070557
1750560856470219500,9.385219482421874,7.927950382232666,5.050950050354004,0.5250000357627869
1750560856479824100,9.39482421875,8.10300064086914,5.041050434112549,0.5869500041007996
1750560856489429000,9.404428955078124,8.482049942016602,5.038950443267822,0.5509500503540039
1750560856499033900,9.414033935546875,8.776050567626953,5.034000396728516,0.5269500017166138
1750560856508638500,9.423638427734375,8.802000045776367,5.083950042724609,0.5110500454902649
1750560856518243600,9.43324365234375,8.368950843811035,5.173050403594971,0.5940000414848328
1750560856527848400,9.442848388671875,7.902000427246094,5.197050094604492,0.5130000114440918
1750560856537453300,9.452453369140626,7.797000408172607,5.2260003089904785,0.25005000829696655
1750560856547058000,9.462057861328125,8.035950660705566,5.311950206756592,0.039000000804662704
1750560856556662800,9.471662841796874,8.37405014038086,5.307000160217285,0.11295000463724136
1750560856566268000,9.481267822265625,8.230050086975098,5.215950012207031,0.520050048828125
1750560856575872800,9.490872802734375,7.833000183105469,5.170950412750244,0.843000054359436
1750560856585477600,9.5004775390625,7.830000400543213,5.26200008392334,0.7840500473976135
1750560856595082200,9.510082275390625,7.924050331115723,5.259000301361084,0.7399500608444214
1750560856604687000,9.51968701171875,8.154000282287598,5.218050479888916,0.7260000109672546
1750560856614291700,9.529291748046875,8.383049964904785,5.307000160217285,0.5419500470161438
1750560856623896800,9.538896728515626,8.605950355529785,5.251950263977051,0.3960000276565552
1750560856633501400,9.54850146484375,8.628000259399414,5.245050430297852,0.2880000174045563
1750560856643106300,9.558106201171874,8.446050643920898,5.284950256347656,0.19905000925064087
1750560856652711200,9.567711181640625,8.055000305175781,5.209050178527832,0.17295001447200775
1750560856662316000,9.57731591796875,7.729950428009033,5.19195032119751,0.13500000536441803
1750560856671920600,9.586920654296875,7.651050567626953,5.185050010681152,0.12000000476837158
1750560856681525500,9.596525390625,7.609950542449951,5.10105037689209,0.4240500330924988
1750560856691130400,9.60613037109375,7.833000183105469,5.071950435638428,0.7720500230789185
1750560856700735500,9.615735595703125,8.302050590515137,5.125050067901611,0.8100000619888306
1750560856710340000,9.625340087890624,8.88900089263916,5.122950077056885,0.6139500141143799
1750560856719945000,9.634945068359375,9.17400074005127,5.173050403594971,0.3139500021934509
1750560856729549600,9.644549560546874,9.199950218200684,5.107950210571289,0.15105000138282776
1750560856739154700,9.65415478515625,8.956050872802734,5.11305046081543,0.0580500029027462
1750560856748759300,9.66375927734375,8.517000198364258,5.131950378417969,0.3379500210285187
1750560856758364400,9.673364501953126,8.047950744628906,5.131950378417969,0.6660000085830688
1750560856767969000,9.682968994140625,7.882950305938721,5.134950160980225,0.7980000376701355
1750560856777574000,9.692573974609376,7.924050331115723,5.08905029296875,0.8119500279426575
1750560856787178800,9.7021787109375,7.909050464630127,5.185050010681152,0.6660000085830688
1750560856796783600,9.71178369140625,7.942950248718262,5.214000225067139,0.4120500087738037
1750560856806388500,9.721388427734375,7.951950550079346,5.27400016784668,0.16305001080036163
1750560856815993300,9.730993408203124,8.290050506591797,5.26200008392334,0.004950000438839197
1750560856825598200,9.74059814453125,8.67495059967041,5.190000057220459,-0.0970500037074089
1750560856835202800,9.750202880859375,9.087000846862793,5.1469502449035645,-0.10605000704526901
1750560856844807700,9.7598076171875,9.163949966430664,5.062950134277344,0.16095000505447388
1750560856854412500,9.76941259765625,8.881050109863281,4.969050407409668,0.7020000219345093
1750560856864017700,9.779017578125,8.460000038146973,5.020050048828125,0.9889500737190247
1750560856873622300,9.788622314453125,8.059950828552246,5.032050132751465,1.0969500541687012
1750560856883227100,9.79822705078125,7.972050189971924,5.080050468444824,0.9510000348091125
1750560856892831700,9.807831787109375,8.02695083618164,5.218050479888916,0.6780000329017639
1750560856902436900,9.817436767578124,8.235000610351562,5.194050312042236,0.42000001668930054
1750560856912041500,9.82704150390625,8.419050216674805,5.254050254821777,0.20205001533031464
1750560856921646300,9.836646240234375,8.35200023651123,5.250000476837158,0.04605000093579292
1750560856931251200,9.846251220703126,8.27595043182373,5.251950263977051,-0.018000001087784767
1750560856940856000,9.85585595703125,8.166000366210938,5.259000301361084,0.07695000618696213
1750560856950461000,9.8654609375,8.059950828552246,5.170950412750244,0.41700002551078796
1750560856960065800,9.875065673828125,8.062950134277344,5.10105037689209,0.7260000109672546
1750560856969670400,9.88467041015625,8.282999992370605,5.070000171661377,0.7980000376701355
1750560856979275500,9.894275634765625,8.568000793457031,5.083950042724609,0.5580000281333923
1750560856988880400,9.90388037109375,8.713950157165527,5.041050434112549,0.2779500186443329
1750560856998485000,9.913485107421875,8.704050064086914,5.0560503005981445,0.15405000746250153
1750560857008089900,9.92308984375,8.5489501953125,5.08905029296875,0.18495000898838043
1750560857017694700,9.93269482421875,8.326050758361816,5.122950077056885,0.25905001163482666
1750560857027299600,9.942299560546875,8.002950668334961,5.1469502449035645,0.34995001554489136
1750560857036904400,9.951904541015624,7.833000183105469,5.178000450134277,0.3720000088214874
1750560857046509300,9.96150927734375,7.902000427246094,5.122950077056885,0.4819500148296356
1750560857056114000,9.971114013671874,8.223000526428223,5.119950294494629,0.4720500111579895
1750560857065718800,9.98071875,8.473950386047363,5.062950134277344,0.4410000145435333
1750560857075323600,9.99032373046875,8.797950744628906,5.032050132751465,0.47505003213882446
1750560857084928500,9.999928466796876,8.968050003051758,5.046000003814697,0.4909500181674957
1750560857094533000,10.009533203125,8.854949951171875,5.022000312805176,0.47895002365112305
1750560857104138200,10.01913818359375,8.520000457763672,5.1469502449035645,0.3450000286102295
1750560857113743000,10.0287431640625,8.050950050354004,5.19195032119751,0.2689500153064728
1750560857123347700,10.03834765625,7.969050407409668,5.16795015335083,0.20595000684261322
1750560857132952600,10.04795263671875,8.14905071258545,5.1469502449035645,0.24705001711845398
1750560857142557400,10.057557373046874,8.541000366210938,5.029050350189209,0.3859500288963318
1750560857152162300,10.067162353515625,8.842950820922852,4.972050189971924,0.5989500284194946
1750560857161767200,10.07676708984375,8.88900089263916,5.008050441741943,0.661050021648407
1750560857171372000,10.0863720703125,8.71095085144043,5.071950435638428,0.49605002999305725
1750560857180977000,10.095976806640625,8.452950477600098,5.142000198364258,0.24705001711845398
1750560857190581800,10.105581787109376,8.314050674438477,5.178000450134277,0.08895000070333481
1750560857200186600,10.1151865234375,8.185050010681152,5.185050010681152,0.010050000622868538
1750560857209791200,10.124791259765624,8.050950050354004,5.1469502449035645,0.13005000352859497
1750560857219396000,10.13439599609375,7.966950416564941,5.082000255584717,0.34995001554489136
1750560857229001000,10.1440009765625,7.926000595092773,5.058000087738037,0.5440500378608704
1750560857238605800,10.153605712890625,8.059950828552246,5.022000312805176,0.6040500402450562
1750560857248210700,10.163210693359375,8.292000770568848,5.130000114440918,0.5610000491142273
1750560857257815600,10.172815673828126,8.458050727844238,5.154000282287598,0.5269500017166138
1750560857267420200,10.182420166015625,8.437950134277344,5.158950328826904,0.5460000038146973
1750560857277025000,10.19202490234375,8.36205005645752,5.175000190734863,0.43605002760887146
1750560857286630000,10.2016298828125,8.35004997253418,5.197050094604492,0.2779500186443329
1750560857296234500,10.211234375,8.319000244140625,5.178000450134277,0.208950012922287
1750560857305839900,10.22083984375,8.308950424194336,5.149050235748291,0.2880000174045563
1750560857315444500,10.230444580078125,8.256000518798828,5.130000114440918,0.4050000309944153
1750560857325049300,10.24004931640625,8.29995059967041,5.107950210571289,0.5680500268936157
1750560857334654000,10.249654052734375,8.380949974060059,5.11305046081543,0.7399500608444214
1750560857344258800,10.2592587890625,8.410050392150879,5.125050067901611,0.7519500255584717
1750560857353864000,10.268864013671875,8.284950256347656,5.131950378417969,0.6019500494003296
1750560857363468500,10.278468505859376,8.236949920654297,5.163000106811523,0.2740500271320343
1750560857373073200,10.2880732421875,8.26395034790039,5.211000442504883,0.022050000727176666
1750560857382678300,10.29767822265625,8.379000663757324,5.20395040512085,-0.019950000569224358
1750560857392283100,10.307283203125,8.422050476074219,5.175000190734863,0.14400000870227814
1750560857401887700,10.3168876953125,8.447999954223633,5.068050384521484,0.46995002031326294
1750560857411492600,10.32649267578125,8.556000709533691,5.050950050354004,0.6370500326156616
1750560857421097500,10.336097412109375,8.716050148010254,5.068050384521484,0.6280500292778015
1750560857430702300,10.345702392578126,8.577000617980957,5.038950443267822,0.5080500245094299
1750560857440307200,10.35530712890625,8.296950340270996,5.139000415802002,0.3240000009536743
1750560857449912000,10.364912109375,8.055000305175781,5.173050403594971,0.23805001378059387
1750560857459517000,10.374516845703125,7.938000202178955,5.202000141143799,0.2639999985694885
1750560857469121500,10.38412158203125,8.200950622558594,5.2260003089904785,0.22605000436306
1750560857478726700,10.3937265625,8.467050552368164,5.163000106811523,0.34095001220703125
1750560857488331500,10.40333154296875,8.652000427246094,5.127000331878662,0.49605002999305725
1750560857497936100,10.41293603515625,8.620050430297852,5.173050403594971,0.5179499983787537
1750560857507541000,10.422541015625,8.212950706481934,5.127000331878662,0.5989500284194946
1750560857517145900,10.432145751953126,7.969050407409668,5.134950160980225,0.5629500150680542
1750560857526750700,10.441750732421875,7.921050548553467,5.154000282287598,0.4240500330924988
1750560857536355600,10.45135546875,8.10105037689209,5.115000247955322,0.30000001192092896
1750560857545960200,10.460960205078125,8.434050559997559,5.1060004234313965,0.30000001192092896
1750560857555565000,10.47056494140625,8.635050773620605,5.092050075531006,0.32895001769065857
1750560857565170000,10.480169921875,8.605950355529785,5.041050434112549,0.32100000977516174
1750560857574774800,10.48977490234375,8.599050521850586,5.06505012512207,0.2760000228881836
1750560857584379600,10.499379638671876,8.434050559997559,5.041050434112549,0.3739500045776367
1750560857593984500,10.508984619140625,8.215950012207031,5.029050350189209,0.48900002241134644
1750560857603589400,10.51858935546875,8.179950714111328,5.062950134277344,0.37905001640319824
1750560857613194000,10.528194091796875,8.221050262451172,5.070000171661377,0.283050000667572
1750560857622798800,10.537798828125,8.248950004577637,5.070000171661377,0.2160000056028366
1750560857632403700,10.54740380859375,8.146050453186035,5.080050468444824,0.2639999985694885
1750560857642008600,10.557008544921874,8.098050117492676,5.092050075531006,0.364950031042099
1750560857651613200,10.56661328125,8.191950798034668,5.115000247955322,0.3450000286102295
1750560857661218300,10.57621826171875,8.452950477600098,5.062950134277344,0.325950026512146
1750560857670823200,10.5858232421875,8.776050567626953,5.07705020904541,0.3450000286102295
1750560857680427800,10.595427734375,8.850000381469727,5.08905029296875,0.3360000252723694
1750560857690032600,10.60503271484375,8.63700008392334,5.032050132751465,0.33105000853538513
1750560857699637500,10.614637451171875,8.315999984741211,5.082000255584717,0.29295000433921814
1750560857709242400,10.624242431640624,7.9860005378723145,5.095950126647949,0.41700002551078796
1750560857718847200,10.63384716796875,7.993050575256348,5.125050067901611,0.3720000088214874
1750560857728452000,10.6434521484375,8.146050453186035,5.137050151824951,0.27105000615119934
1750560857738057000,10.653056884765626,8.367000579833984,5.127000331878662,0.2779500186443329
1750560857747661600,10.66266162109375,8.616000175476074,5.134950160980225,0.40995001792907715
1750560857757266400,10.672266357421876,8.67495059967041,5.074950218200684,0.5509500503540039
1750560857766871300,10.681871337890625,8.683050155639648,5.080050468444824,0.3910500109195709
1750560857776476200,10.69147607421875,8.482049942016602,5.134950160980225,0.2179500162601471
1750560857786081000,10.7010810546875,8.242050170898438,5.058000087738037,0.23805001378059387
1750560857795686000,10.710685791015624,8.146050453186035,5.094000339508057,0.32895001769065857
1750560857805290500,10.72029052734375,8.082000732421875,5.080050468444824,0.3840000033378601
1750560857814895400,10.729895263671875,7.975950241088867,5.118000030517578,0.28095000982284546
1750560857824500200,10.739500244140626,7.999950408935547,5.199000358581543,0.1469999998807907
1750560857834105300,10.749105224609375,7.999950408935547,5.245050430297852,0.11505000293254852
1750560857843710000,10.7587099609375,8.0910005569458,5.235000133514404,0.1489500105381012
1750560857853314600,10.768314453125,8.272950172424316,5.1660003662109375,0.22800001502037048
1750560857862919400,10.77791943359375,8.58495044708252,5.070000171661377,0.4410000145435333
1750560857872524500,10.787524658203125,8.793000221252441,4.9770002365112305,0.8389500379562378
1750560857882129200,10.797129150390624,8.71095085144043,4.962000370025635,1.0330500602722168
1750560857891734000,10.806734130859375,8.227950096130371,4.8070502281188965,1.8660000562667847
1750560857901339000,10.8163388671875,7.509000301361084,4.6369500160217285,3.490950107574463
1750560857910943700,10.82594384765625,7.513950347900391,4.534049987792969,4.408050060272217
1750560857920548400,10.83554833984375,7.842000484466553,3.8610002994537354,7.071000099182129
1750560857930153500,10.845153564453126,8.446050643920898,3.6979501247406006,8.542950630187988
1750560857939758300,10.85475830078125,9.312000274658203,3.7770001888275146,10.08495044708252
1750560857949363200,10.86436328125,9.43005084991455,3.616950273513794,9.550950050354004
1750560857958967800,10.8739677734375,10.395000457763672,3.973050117492676,5.596050262451172
1750560857968572700,10.88357275390625,11.890950202941895,4.5259504318237305,1.0879501104354858
1750560857978177500,10.893177490234375,11.671051025390625,4.384950160980225,0.6469500064849854
1750560857987782700,10.90278271484375,9.849000930786133,3.5299501419067383,3.553950071334839
1750560857997387300,10.91238720703125,7.773000240325928,3.337050199508667,3.6780002117156982
1750560858006992100,10.9219921875,6.157050132751465,3.66195011138916,1.1980500221252441
1750560858016596700,10.9315966796875,5.529000282287598,3.96405029296875,-2.854950189590454
1750560858026201600,10.94120166015625,6.844050407409668,4.69605016708374,-8.13705062866211
1750560858035806700,10.950806640625,8.203949928283691,5.6419501304626465,-12.340950965881348
1750560858045411600,10.96041162109375,8.69895076751709,5.809950351715088,-13.777950286865234
1750560858055016200,10.97001611328125,8.055000305175781,5.772000312805176,-12.886950492858887
1750560858064621000,10.97962109375,6.898950099945068,5.460000038146973,-11.254050254821777
1750560858074226000,10.989225830078125,6.693000316619873,4.954950332641602,-9.808050155639648
1750560858083830500,10.99883056640625,6.822000503540039,4.359000205993652,-8.884050369262695
1750560858093435400,11.008435302734375,6.832050323486328,3.511050224304199,-7.41795015335083
1750560858103040500,11.01804052734375,7.3969502449035645,2.8909502029418945,-6.01800012588501
1750560858112645000,11.02764501953125,8.25195026397705,2.6449501514434814,-6.015000343322754
1750560858122250000,11.03725,8.5489501953125,2.7120001316070557,-6.463050365447998
1750560858131854600,11.0468544921875,8.320950508117676,2.6110501289367676,-6.207000255584717
1750560858141459500,11.05645947265625,7.657950401306152,2.616000175476074,-6.19005012512207
1750560858151064600,11.066064697265626,7.308000564575195,2.2300500869750977,-5.067000389099121
1750560858160669400,11.07566943359375,8.199000358581543,2.02905011177063,-3.844050168991089
1750560858170274300,11.0852744140625,10.047000885009766,2.0629501342773438,-3.0079500675201416
1750560858179879000,11.09487890625,11.266050338745117,2.3239500522613525,-2.5990500450134277
1750560858189483800,11.10448388671875,11.319000244140625,2.4310500621795654,-3.235950231552124
1750560858199088600,11.114088623046875,10.869000434875488,2.118000030517578,-2.874000072479248
1750560858208693500,11.123693603515624,9.109050750732422,1.5649501085281372,0.7549500465393066
1750560858218298400,11.13329833984375,7.408950328826904,0.9709500670433044,6.094050407409668
1750560858227903000,11.142903076171875,7.7749505043029785,1.4689500331878662,8.296950340270996
1750560858237507800,11.1525078125,10.384950637817383,2.580000162124634,7.063950538635254
1750560858247112700,11.16211279296875,12.906000137329102,3.4420502185821533,4.513950347900391
1750560858256717600,11.171717529296876,13.54800033569336,3.7789502143859863,2.1670501232147217
1750560858266322400,11.181322509765625,12.47295093536377,4.234050273895264,0.9850500226020813
1750560858275927300,11.19092724609375,10.390050888061523,4.693950176239014,0.831000030040741
1750560858285532200,11.2005322265625,7.858950138092041,4.420950412750244,2.625000238418579
1750560858295136800,11.21013671875,6.504000186920166,4.591050148010254,3.8430001735687256
1750560858304741600,11.21974169921875,6.346050262451172,5.023950099945068,3.040950059890747
1750560858314346500,11.229346435546875,6.724050521850586,5.199000358581543,1.6140000820159912
1750560858323951400,11.238951416015626,6.973050117492676,5.317050457000732,0.8050500154495239
1750560858333556000,11.248555908203125,7.002000331878662,5.27400016784668,0.7720500230789185
1750560858343161000,11.2581611328125,7.711050510406494,5.202000141143799,0.8029500246047974
1750560858352765700,11.267765625,9.067950248718262,5.197050094604492,0.4819500148296356
1750560858362370600,11.27737060546875,10.255950927734375,5.11305046081543,-0.06300000101327896
1750560858371975400,11.286975341796875,10.098000526428223,5.005050182342529,-0.04605000093579292
1750560858381580300,11.296580322265624,8.629950523376465,4.792050361633301,1.0230000019073486
1750560858391185200,11.30618505859375,7.420950412750244,4.6459503173828125,2.176950216293335
1750560858400790000,11.3157900390625,7.450050354003906,4.669950008392334,2.2729501724243164
1750560858410395000,11.325394775390626,8.185050010681152,4.701000213623047,1.5400500297546387
1750560858419999500,11.33499951171875,8.886000633239746,4.792050361633301,0.6370500326156616
1750560858429604400,11.344604248046876,8.994000434875488,4.858950138092041,-0.1279500126838684
1750560858439209200,11.354209228515625,8.620050430297852,4.914000034332275,-0.609000027179718
1750560858448814000,11.36381396484375,8.176950454711914,4.866000175476074,-0.6379500031471252
1750560858458419000,11.3734189453125,8.031000137329102,4.7659502029418945,-0.6400500535964966
1750560858468023600,11.3830234375,8.11500072479248,4.648950099945068,-0.3720000088214874
1750560858477628400,11.39262841796875,8.203949928283691,4.503000259399414,0.2659500241279602
1750560858487233300,11.4022333984375,8.497950553894043,4.371000289916992,1.0210500955581665
1750560858496838100,11.411838134765626,9.115950584411621,4.270050048828125,1.4110500812530518
1750560858506443000,11.421443115234375,9.57300090789795,4.3560004234313965,1.2139500379562378
1750560858516048000,11.4310478515625,9.571050643920898,4.402050018310547,0.5539500117301941
1750560858525652700,11.44065283203125,9.184950828552246,4.548000335693359,-0.025050001218914986
1750560858535257600,11.450257568359374,8.671050071716309,4.6650004386901855,-0.27900001406669617
1750560858544862200,11.4598623046875,8.556000709533691,4.681950092315674,-0.24705001711845398
1750560858554467000,11.469467041015625,8.728050231933594,4.657950401306152,-0.24300001561641693
1750560858564072000,11.479072021484376,9.022950172424316,4.633950233459473,-0.20205001533031464
1750560858573676500,11.488676513671875,9.034950256347656,4.584000110626221,0.00795000046491623
1750560858583281700,11.49828173828125,8.587050437927246,4.503000259399414,0.25905001163482666
1750560858592886500,11.507886474609375,8.304000854492188,4.534049987792969,0.2350500077009201
1750560858602491100,11.5174912109375,8.268000602722168,4.519050121307373,0.07695000618696213
1750560858612096300,11.52709619140625,8.57295036315918,4.503000259399414,-0.022050000727176666
1750560858621700900,11.536700927734374,8.94105052947998,4.615050315856934,-0.05595000088214874
1750560858631305700,11.5463056640625,9.241050720214844,4.668000221252441,-0.04200000315904617
1750560858640910600,11.55591064453125,9.16200065612793,4.669950008392334,0.17805001139640808
1750560858650515200,11.56551513671875,8.793000221252441,4.6870503425598145,0.2779500186443329
1750560858660120000,11.5751201171875,8.37405014038086,4.657950401306152,0.30000001192092896
1750560858669725000,11.584724853515626,8.09595012664795,4.653000354766846,0.28095000982284546
1750560858679329500,11.59432958984375,8.086950302124023,4.627050399780273,0.2950500249862671
1750560858688935000,11.603934814453124,8.338050842285156,4.560000419616699,0.29295000433921814
1750560858698539500,11.61353955078125,8.701950073242188,4.555050373077393,0.22605000436306
1750560858708144000,11.62314404296875,9.109050750732422,4.5769500732421875,0.11805000901222229
1750560858717749000,11.6327490234375,9.183000564575195,4.572000026702881,0.022050000727176666
1750560858727353900,11.642353759765625,8.842950820922852,4.572000026702881,0.10095000267028809
1750560858736958700,11.651958740234376,8.332950592041016,4.561950206756592,0.22605000436306
1750560858746563600,11.6615634765625,8.031000137329102,4.555050373077393,0.17505000531673431
1750560858756168400,11.67116845703125,8.07705020904541,4.561950206756592,0.17805001139640808
1750560858765773300,11.680773193359375,8.32800006866455,4.588950157165527,0.25905001163482666
1750560858775378200,11.690378173828124,8.695050239562988,4.560000419616699,0.37605002522468567
1750560858784982800,11.699982666015625,9.079950332641602,4.5960001945495605,0.3240000009536743
1750560858794587600,11.709587646484374,9.17805004119873,4.609950065612793,0.1969500035047531
1750560858804192500,11.719192626953125,8.88900089263916,4.621950149536133,0.06000000238418579
1750560858813797400,11.72879736328125,8.431050300598145,4.672950267791748,-0.11295000463724136
1750560858823402200,11.73840234375,8.11305046081543,4.680000305175781,-0.10605000704526901
1750560858833007000,11.748007080078125,7.921050548553467,4.600950241088867,0.08895000070333481
1750560858842611700,11.75761181640625,8.0149507522583,4.615050315856934,0.4990500211715698
1750560858852216600,11.767216552734375,8.3860502243042,4.617000102996826,0.6520500183105469
1750560858861821400,11.776821533203124,8.910000801086426,4.609950065612793,0.6810000538825989
1750560858871426300,11.78642626953125,9.360000610351562,4.5859503746032715,0.48705002665519714
1750560858881031200,11.79603125,9.478050231933594,4.633950233459473,0.32100000977516174
1750560858890635800,11.8056357421875,9.11400032043457,4.6459503173828125,0.11100000888109207
1750560858900240600,11.81524072265625,8.830950736999512,4.717950344085693,-0.022050000727176666
1750560858909845500,11.824845458984376,8.545949935913086,4.72005033493042,-0.00795000046491623
1750560858919450400,11.834450439453125,8.331000328063965,4.744050025939941,0.22800001502037048
1750560858929055200,11.84405517578125,8.304000854492188,4.701000213623047,0.4650000333786011
1750560858938660000,11.85366015625,8.356950759887695,4.656000137329102,0.5419500470161438
1750560858948264700,11.8632646484375,8.545949935913086,4.6459503173828125,0.5460000038146973
1750560858957869800,11.872869873046875,8.806950569152832,4.629000186920166,0.47700002789497375
1750560858967474400,11.882474365234375,9.13800048828125,4.684950351715088,0.3049500286579132
1750560858977079600,11.89207958984375,9.171000480651855,4.69605016708374,0.18000000715255737
1750560858986684200,11.90168408203125,9.157050132751465,4.740000247955322,-0.018000001087784767
1750560858996289000,11.9112890625,8.635050773620605,4.7470502853393555,0.010050000622868538
1750560859005894000,11.920893798828125,7.963950157165527,4.703999996185303,0.22800001502037048
1750560859015498500,11.93049853515625,7.837050437927246,4.723050117492676,0.3570000231266022
1750560859025103600,11.940103515625,8.122050285339355,4.680000305175781,0.24195000529289246
1750560859034708500,11.94970849609375,8.5489501953125,4.651050090789795,0.11805000901222229
1750560859044313300,11.959313232421875,8.86500072479248,4.639050006866455,0.0799500048160553
1750560859053918000,11.96891796875,8.986950874328613,4.6459503173828125,0.13199999928474426
1750560859063522800,11.978522705078126,8.925000190734863,4.701000213623047,0.11505000293254852
1750560859073127400,11.98812744140625,8.652000427246094,4.725000381469727,0.07500000298023224
1750560859082732300,11.997732177734376,8.521950721740723,4.69605016708374,0.015000000596046448
1750560859092337200,12.007337158203125,8.527050018310547,4.744050025939941,0.07200000435113907
1750560859101942000,12.01694189453125,8.175000190734863,4.600950241088867,0.31905001401901245
1750560859111547000,12.026546875,8.167950630187988,4.63200044631958,0.45795002579689026
1750560859121151700,12.03615185546875,8.356950759887695,4.5960001945495605,0.46695002913475037
1750560859130756400,12.04575634765625,8.596050262451172,4.555050373077393,0.5680500268936157
1750560859140361200,12.055361328125,8.896050453186035,4.644000053405762,0.5250000357627869
1750560859149966000,12.064966064453126,8.95995044708252,4.603050231933594,0.4320000112056732
1750560859159571200,12.0745712890625,8.776050567626953,4.621950149536133,0.35295000672340393
1750560859169175800,12.08417578125,8.503050804138184,4.663050174713135,0.12495000660419464
1750560859178780700,12.09378076171875,8.215950012207031,4.713000297546387,0.08205000311136246
1750560859188385500,12.103385498046874,8.0149507522583,4.680000305175781,0.23805001378059387
1750560859197990400,12.112990478515625,8.119950294494629,4.624950408935547,0.42195001244544983
1750560859207595000,12.122594970703124,8.484000205993652,4.656000137329102,0.47700002789497375
1750560859217199900,12.132199951171875,8.83395004272461,4.603050231933594,0.6469500064849854
1750560859226804700,12.1418046875,9.11400032043457,4.498050212860107,0.7159500122070312
1750560859236409600,12.15140966796875,9.23805046081543,4.621950149536133,0.47505003213882446
1750560859246014500,12.161014404296875,9.046950340270996,4.656000137329102,0.1680000126361847
1750560859255619000,12.170619140625,8.848050117492676,4.703999996185303,-0.025050001218914986
1750560859265224200,12.18022412109375,8.6850004196167,4.777950286865234,-0.013050000183284283
1750560859274829000,12.1898291015625,8.557950019836426,4.7989501953125,0.13905000686645508
1750560859284433700,12.19943359375,8.485950469970703,4.81095027923584,0.20595000684261322
1750560859294038500,12.20903857421875,8.268000602722168,4.831050395965576,0.22605000436306
1750560859303643400,12.218643310546875,7.9860005378723145,4.809000015258789,0.325950026512146
1750560859313248000,12.228248046875,7.726950168609619,4.813950061798096,0.5820000171661377
1750560859322852900,12.237852783203126,7.81095027923584,4.845000267028809,0.6300000548362732
1750560859332458000,12.2474580078125,8.26395034790039,4.852050304412842,0.4510500133037567
1750560859342062600,12.2570625,8.836050033569336,4.864050388336182,0.22995001077651978
1750560859351667500,12.26666748046875,9.154050827026367,4.81095027923584,0.19905000925064087
1750560859361272300,12.276272216796874,9.219000816345215,4.749000072479248,0.34095001220703125
1750560859370877200,12.285877197265625,9.015000343322754,4.703999996185303,0.364950031042099
1750560859380482000,12.29548193359375,8.628000259399414,4.716000080108643,0.4630500078201294
1750560859390087000,12.3050869140625,8.295000076293945,4.6459503173828125,0.6690000295639038
1750560859399691500,12.31469140625,8.211000442504883,4.692000389099121,0.6210000514984131
1750560859409296400,12.32429638671875,8.308950424194336,4.73205041885376,0.44805002212524414
1750560859418901200,12.3339013671875,8.455050468444824,4.761000156402588,0.20595000684261322
1750560859428505900,12.343505859375,8.6850004196167,4.78695011138916,0.09195000678300858
1750560859438111000,12.353111083984375,8.842950820922852,4.7470502853393555,0.07005000114440918
1750560859447715800,12.3627158203125,8.890950202941895,4.717950344085693,-0.037050001323223114
1750560859457320400,12.372320556640625,8.785950660705566,4.615050315856934,0.05100000277161598
1750560859466925300,12.38192529296875,8.620050430297852,4.570050239562988,0.19200000166893005
1750560859476530200,12.3915302734375,8.613000869750977,4.560000419616699,0.43605002760887146
1750560859486135000,12.401135009765625,8.695050239562988,4.612950325012207,0.4630500078201294
1750560859495740000,12.410739990234376,8.67300033569336,4.656000137329102,0.29295000433921814
1750560859505344500,12.420344482421875,8.38800048828125,4.660950183868408,0.30705001950263977
1750560859514949600,12.42994970703125,8.296950340270996,4.701000213623047,0.4410000145435333
1750560859524554200,12.43955419921875,8.398050308227539,4.729950428009033,0.34995001554489136
1750560859534159000,12.4491591796875,8.611050605773926,4.749000072479248,0.30195000767707825
1750560859543764000,12.458763916015625,8.878950119018555,4.785000324249268,0.20205001533031464
1750560859553368600,12.46836865234375,8.98905086517334,4.735050201416016,0.2950500249862671
