time,seconds_elapsed,z,y,x
1750560847148721700,0.0637216796875,-0.036024998873472214,-0.07576250284910202,0.18232500553131104
1750560847158326800,0.073326904296875,-0.10559999942779541,-0.07699999958276749,0.21889999508857727
1750560847167931400,0.082931396484375,-0.1508374959230423,-0.12952500581741333,0.2910875082015991
1750560847177536300,0.092536376953125,-0.16802500188350677,-0.16128750145435333,0.392425000667572
1750560847187141000,0.10214111328125,-0.15578749775886536,-0.18576249480247498,0.45237499475479126
1750560847196746200,0.111746337890625,-0.13983750343322754,-0.22481249272823334,0.4351874887943268
1750560847206351000,0.12135107421875,-0.16060000658035278,-0.2040500044822693,0.41318750381469727
1750560847215955700,0.130955810546875,-0.22783750295639038,-0.17586250603199005,0.403425008058548
1750560847225560600,0.140560546875,-0.3231250047683716,-0.2040500044822693,0.38871249556541443
1750560847235165400,0.15016552734375,-0.3891249895095825,-0.2626250088214874,0.3704249858856201
1750560847244770300,0.159770263671875,-0.367125004529953,-0.3713875114917755,0.3521375060081482
1750560847254375200,0.169375244140625,-0.2718375027179718,-0.3273875117301941,0.34485000371932983
1750560847263980000,0.17897998046875,-0.14354999363422394,-0.21133749186992645,0.32284998893737793
1750560847273585000,0.1885849609375,-0.048262499272823334,-0.10628750175237656,0.2666124999523163
1750560847283189500,0.198189453125,0.009212499484419823,-0.1013374999165535,0.1896124929189682
1750560847292794600,0.207794677734375,0.05555000156164169,-0.2186249941587448,0.13337500393390656
1750560847302399500,0.2173994140625,0.22536249458789825,-0.4081000089645386,0.18479999899864197
1750560847312004400,0.22700439453125,0.2560249865055084,-0.48262500762939453,0.1970375031232834
1750560847321609000,0.23660888671875,0.20102499425411224,-0.5363875031471252,0.20679999887943268
1750560847331213800,0.2462138671875,0.1387374997138977,-0.6487249732017517,0.25561249256134033
1750560847340818700,0.255818603515625,0.0752125009894371,-0.7928249835968018,0.3240875005722046
1750560847350423600,0.265423583984375,0.021449999883770943,-0.9370625019073486,0.36918750405311584
1750560847360028700,0.275028564453125,-0.026262499392032623,-1.0823999643325806,0.3716624975204468
1750560847369633300,0.28463330078125,-0.0775500014424324,-1.1581624746322632,0.3436124920845032
1750560847379238100,0.294238037109375,-0.12278749793767929,-1.0250624418258667,0.2923249900341034
1750560847388843000,0.303843017578125,-0.141075000166893,-0.6279624700546265,0.10903749614953995
1750560847398447900,0.31344775390625,-0.06407500058412552,-0.26633748412132263,-0.07177499681711197
1750560847408052700,0.323052734375,0.06421250104904175,0.14300000667572021,-0.1414874941110611
1750560847417657600,0.33265771484375,0.24502499401569366,0.5961999893188477,-0.18658749759197235
1750560847427262500,0.342262451171875,0.3708375096321106,0.7807250022888184,-0.18782499432563782
1750560847436867000,0.3518671875,0.4111250042915344,0.5937250256538391,-0.15729999542236328
1750560847446472000,0.361471923828125,0.37331250309944153,0.31033748388290405,-0.11096250265836716
1750560847456077000,0.3710771484375,0.2853125035762787,0.10999999940395355,-0.013199999928474426
1750560847465682000,0.380681884765625,0.19359999895095825,-0.05128749832510948,0.10051249712705612
1750560847475286800,0.390286865234375,0.08249999582767487,-0.15757499635219574,0.17132499814033508
1750560847484891400,0.399891357421875,0.0030249999836087227,-0.1845249980688095,0.24089999496936798
1750560847494496300,0.409496337890625,0.0494999997317791,-0.23938749730587006,0.3581874966621399
1750560847504101000,0.41910107421875,0.19126249849796295,-0.18328750133514404,0.4499000012874603
1750560847513706000,0.4287060546875,0.3353624939918518,0.04881250113248825,0.38513749837875366
1750560847523310800,0.438310791015625,0.3854124844074249,0.3053874969482422,0.12251249700784683
1750560847532915700,0.447915771484375,0.3353624939918518,0.5631999969482422,-0.24529999494552612
1750560847542520600,0.4575205078125,0.2340250015258789,0.7489625215530396,-0.5836874842643738
1750560847552125200,0.467125244140625,0.2180749922990799,0.7537750005722046,-0.7827875018119812
1750560847561730300,0.476730224609375,0.24736249446868896,0.48743748664855957,-0.806024968624115
1750560847571335000,0.4863349609375,0.19359999895095825,0.16981250047683716,-0.6631624698638916
1750560847580939800,0.495939697265625,0.141075000166893,-0.09776250272989273,-0.3638249933719635
1750560847590545000,0.505544921875,0.1313125044107437,-0.2040500044822693,-0.10106249898672104
1750560847600149500,0.5151494140625,0.09597499668598175,-0.26138749718666077,-0.07672499865293503
1750560847609754400,0.52475439453125,0.043449997901916504,-0.2993375062942505,-0.18658749759197235
1750560847619359200,0.534359130859375,0.017737500369548798,-0.22110000252723694,-0.24777500331401825
1750560847628963800,0.5439638671875,-0.009074999950826168,-0.05623750016093254,-0.2293500006198883
1750560847638569000,0.55356884765625,-0.03849999979138374,0.1527625024318695,-0.21601249277591705
1750560847648173800,0.563173828125,-0.0494999997317791,0.2870999872684479,-0.2623499929904938
1750560847657778700,0.57277880859375,-0.06902500241994858,0.3151499927043915,-0.34306249022483826
1750560847667383600,0.582383544921875,-0.10559999942779541,0.3078624904155731,-0.3760625123977661
1750560847676988200,0.59198828125,-0.13255000114440918,0.43738749623298645,-0.3858250081539154
1750560847686593000,0.601593017578125,-0.11055000126361847,0.5266249775886536,-0.405349999666214
1750560847696198000,0.611197998046875,-0.006737499963492155,0.5937250256538391,-0.4298250079154968
1750560847705802800,0.620802734375,0.1313125044107437,0.734250009059906,-0.4456374943256378
1750560847715407600,0.63040771484375,0.2498375028371811,0.8417750000953674,-0.4334000051021576
1750560847725012500,0.640012451171875,0.3011249899864197,0.8820624947547913,-0.3821125030517578
1750560847734617300,0.649617431640625,0.2681249976158142,0.8955374956130981,-0.30758750438690186
1750560847744222000,0.659221923828125,0.19002500176429749,0.7464874982833862,-0.2428250014781952
1750560847753826800,0.668826904296875,0.0775500014424324,0.4141499996185303,-0.1317249983549118
1750560847763431700,0.678431640625,-0.021312499418854713,0.14409999549388885,0.055275000631809235
1750560847773036500,0.68803662109375,-0.07259999960660934,-0.06104999780654907,0.21779999136924744
1750560847782641700,0.6976416015625,-0.08483749628067017,-0.15399999916553497,0.31542500853538513
1750560847792246300,0.707246337890625,-0.07150000333786011,-0.13805000483989716,0.31913748383522034
1750560847801851100,0.71685107421875,-0.0494999997317791,-0.04647500067949295,0.22384999692440033
1750560847811456000,0.7264560546875,-0.03478749841451645,0.042762499302625656,0.08703749626874924
1750560847821060600,0.736060546875,0.009212499484419823,0.08676250278949738,0.008799999952316284
1750560847830665700,0.745665771484375,0.07878749817609787,0.01223750039935112,0.010037500411272049
1750560847840270600,0.7552705078125,0.11178749799728394,-0.18576249480247498,0.03932499885559082
1750560847849875500,0.76487548828125,0.08002500236034393,-0.3689124882221222,0.05403750017285347
1750560847859480000,0.77447998046875,0.009212499484419823,-0.4141499996185303,0.045512501150369644
1750560847869085000,0.7840849609375,-0.06173750013113022,-0.3713875114917755,0.016224998980760574
1750560847878689800,0.793689697265625,-0.13007499277591705,-0.3151499927043915,-0.011962499469518661
1750560847888295000,0.803294921875,-0.16554999351501465,-0.24433749914169312,-0.002199999988079071
1750560847897899500,0.8128994140625,-0.13378749787807465,-0.11976250261068344,0.02708750031888485
1750560847907504400,0.82250439453125,-0.04455000162124634,0.035475000739097595,0.038087498396635056
1750560847917109200,0.832109130859375,0.07150000333786011,0.15633749961853027,0.011274999938905239
1750560847926713900,0.8417138671875,0.16183750331401825,0.2480500042438507,-0.04977500066161156
1750560847936319000,0.851319091796875,0.19249999523162842,0.3139125108718872,-0.1023000031709671
1750560847945923800,0.860923828125,0.16307500004768372,0.31638750433921814,-0.1340624988079071
1750560847955528700,0.87052880859375,0.0775500014424324,0.18809999525547028,-0.14272500574588776
1750560847965133600,0.880133544921875,-0.005499999970197678,0.028049999848008156,-0.1060125008225441
1750560847974738200,0.88973828125,-0.053075000643730164,-0.07823749631643295,-0.03396249935030937
1750560847984343000,0.899343017578125,-0.06173750013113022,-0.11481250077486038,0.035750001668930054
1750560847993948200,0.9089482421875,-0.03355000168085098,-0.08552499860525131,0.06379999965429306
1750560848003553000,0.918552978515625,0.009212499484419823,-0.010999999940395355,0.035750001668930054
1750560848013157600,0.92815771484375,0.04097500070929527,0.08799999952316284,-0.04001250118017197
1750560848022762500,0.937762451171875,0.058024998754262924,0.17352500557899475,-0.1120624989271164
1750560848032367400,0.947367431640625,0.03726249933242798,0.210099995136261,-0.13282500207424164
1750560848041972200,0.95697216796875,0.010449999943375587,0.1905750036239624,-0.08524999767541885
1750560848051577000,0.9665771484375,-0.0042624999769032,0.13928750157356262,-0.010724999941885471
1750560848061182000,0.976181884765625,-0.012787500396370888,0.08304999768733978,0.040562499314546585
1750560848070786800,0.985786865234375,-0.021312499418854713,0.05376249924302101,0.045512501150369644
1750560848080391400,0.995391357421875,-0.031075000762939453,0.0635249987244606,0.02956249937415123
1750560848089996500,1.00499658203125,-0.03726249933242798,0.09157499670982361,0.01732499897480011
1750560848099601400,1.014601318359375,-0.03231250122189522,0.08428750187158585,0.018562499433755875
1750560848109206300,1.024206298828125,-0.021312499418854713,0.045237500220537186,0.043037500232458115
1750560848118811100,1.03381103515625,-0.020075000822544098,-0.007287499960511923,0.07603749632835388
1750560848128415700,1.043415771484375,-0.036024998873472214,-0.0635249987244606,0.0882750004529953
1750560848138020600,1.0530205078125,-0.05926249921321869,-0.09033749997615814,0.07479999959468842
1750560848147625500,1.06262548828125,-0.07383749634027481,-0.057475000619888306,0.045512501150369644
1750560848157230600,1.072230712890625,-0.06407500058412552,0.028049999848008156,0.0015124999918043613
1750560848166835200,1.081835205078125,-0.03726249933242798,0.11976250261068344,-0.04619999974966049
1750560848176440000,1.091440185546875,-0.010312499478459358,0.1845249980688095,-0.0742499977350235
1750560848186045000,1.101044921875,-0.0005499999970197678,0.20762500166893005,-0.08524999767541885
1750560848195649800,1.11064990234375,-0.007974999956786633,0.18809999525547028,-0.07672499865293503
1750560848205254700,1.120254638671875,-0.026262499392032623,0.14657500386238098,-0.04743750020861626
1750560848214859500,1.129859619140625,-0.04702499881386757,0.08428750187158585,-0.018012499436736107
1750560848224464400,1.13946435546875,-0.060499999672174454,0.04152499884366989,0.003987499978393316
1750560848234069000,1.149069091796875,-0.07150000333786011,0.037812501192092896,0.005224999971687794
1750560848243673900,1.158673828125,-0.08249999582767487,0.0635249987244606,-0.014437500387430191
1750560848253278700,1.16827880859375,-0.0873124971985817,0.08304999768733978,-0.029012499377131462
1750560848262883800,1.1778837890625,-0.0835999995470047,0.06104999780654907,-0.02419999986886978
1750560848272488400,1.187488525390625,-0.060499999672174454,0.028049999848008156,0.0002749999985098839
1750560848282093300,1.19709326171875,-0.03849999979138374,0.0147124994546175,0.028324998915195465
1750560848291698200,1.2066982421875,-0.03231250122189522,0.030524998903274536,0.04179999977350235
1750560848301302800,1.216302734375,-0.03478749841451645,0.06104999780654907,0.02708750031888485
1750560848310908000,1.225907958984375,-0.03726249933242798,0.08552499860525131,-0.011962499469518661
1750560848320512800,1.2355126953125,-0.03849999979138374,0.08676250278949738,-0.05596249923110008
1750560848330117600,1.24511767578125,-0.03478749841451645,0.07204999774694443,-0.07672499865293503
1750560848339722500,1.254722412109375,-0.03478749841451645,0.02928750030696392,-0.06077500060200691
1750560848349327400,1.264327392578125,-0.03973750025033951,-0.030524998903274536,-0.0057749999687075615
1750560848358932200,1.27393212890625,-0.03355000168085098,-0.06847500056028366,0.052799999713897705
1750560848368537000,1.283537109375,-0.011549999937415123,-0.07204999774694443,0.08208750188350677
1750560848378141700,1.2931416015625,0.005499999970197678,-0.04647500067949295,0.07975000143051147
1750560848387746600,1.30274658203125,0.023787500336766243,-0.028049999848008156,0.060087498277425766
1750560848397351400,1.312351318359375,0.02502499893307686,-0.00976249948143959,0.03451250120997429
1750560848406956300,1.321956298828125,0.011687500402331352,0.0147124994546175,0.021037500351667404
1750560848416561200,1.33156103515625,-0.011549999937415123,0.02447500079870224,0.01251249946653843
1750560848426166000,1.341166015625,-0.028737500309944153,0.018287500366568565,0.02227500081062317
1750560848435771000,1.35077099609375,-0.03849999979138374,0.010999999940395355,0.04908749833703041
1750560848445375700,1.360375732421875,-0.040837500244379044,0.01223750039935112,0.06503749638795853
1750560848454980600,1.369980712890625,-0.03849999979138374,0.04152499884366989,0.04908749833703041
1750560848464585500,1.37958544921875,-0.03973750025033951,0.08552499860525131,0.005224999971687794
1750560848474190300,1.3891904296875,-0.04455000162124634,0.10752499848604202,-0.04124999791383743
1750560848483795200,1.398795166015625,-0.04702499881386757,0.09652499854564667,-0.05472499877214432
1750560848493399800,1.40839990234375,-0.04207500070333481,0.0635249987244606,-0.026537500321865082
1750560848503005000,1.4180048828125,-0.029975000768899918,0.02447500079870224,0.02227500081062317
1750560848512609500,1.427609619140625,-0.017737500369548798,0.007287499960511923,0.07232499867677689
1750560848522214400,1.43721435546875,-0.0042624999769032,0.0085249999538064,0.09803749620914459
1750560848531819300,1.4468193359375,0.0042624999769032,0.0037124999798834324,0.08332499861717224
1750560848541424000,1.456424072265625,-0.0005499999970197678,0.018287500366568565,0.03932499885559082
1750560848551029000,1.466029052734375,-0.014024999924004078,0.042762499302625656,-0.009487500414252281
1750560848560633900,1.4756337890625,-0.02502499893307686,0.05871250107884407,-0.0387750007212162
1750560848570238700,1.48523876953125,-0.028737500309944153,0.05623750016093254,-0.0364375002682209
1750560848579843600,1.494843505859375,-0.023787500336766243,0.05252499878406525,-0.009487500414252281
1750560848589448400,1.504448486328125,-0.007974999956786633,0.06228749826550484,0.01251249946653843
1750560848599053300,1.51405322265625,0.009212499484419823,0.10628750175237656,0.011274999938905239
1750560848608658000,1.523657958984375,0.026262499392032623,0.15399999916553497,-0.010724999941885471
1750560848618263000,1.533262939453125,0.031212499365210533,0.16609999537467957,-0.03272499889135361
1750560848627867600,1.54286767578125,0.021449999883770943,0.12333749979734421,-0.04372499883174896
1750560848637472500,1.552472412109375,-0.0030249999836087227,0.05004999786615372,-0.022962499409914017
1750560848647077400,1.562077392578125,-0.036024998873472214,-0.0147124994546175,0.021037500351667404
1750560848656682200,1.57168212890625,-0.06407500058412552,-0.04028749838471413,0.05884999781847
1750560848666287000,1.581287109375,-0.07631249725818634,-0.028049999848008156,0.06875000149011612
1750560848675892000,1.59089208984375,-0.06283749639987946,-0.002474999986588955,0.056512501090765
1750560848685496800,1.600496826171875,-0.03726249933242798,0.002474999986588955,0.025987500324845314
1750560848695101700,1.610101806640625,-0.006737499963492155,0.002474999986588955,-0.013199999928474426
1750560848704706600,1.61970654296875,0.018975000828504562,0.01952499896287918,-0.04001250118017197
1750560848714311200,1.629311279296875,0.029975000768899918,0.03904999792575836,-0.04372499883174896
1750560848723916000,1.638916015625,0.028737500309944153,0.05623750016093254,-0.025437500327825546
1750560848733521000,1.64852099609375,0.014024999924004078,0.06228749826550484,-0.0034374999813735485
1750560848743125800,1.658125732421875,-0.0042624999769032,0.054999999701976776,0.003987499978393316
1750560848752730600,1.667730712890625,-0.015262499451637268,0.03671250119805336,-0.0009624999947845936
1750560848762335500,1.67733544921875,-0.017737500369548798,0.018287500366568565,-0.002199999988079071
1750560848771940400,1.6869404296875,-0.005499999970197678,0.0170499999076128,0.002749999985098839
1750560848781545000,1.696544921875,0.010449999943375587,0.018287500366568565,0.006324999965727329
1750560848791150000,1.706150146484375,0.018975000828504562,0.023237500339746475,-0.0009624999947845936
1750560848800755000,1.7157548828125,0.022687500342726707,0.03671250119805336,-0.01924999989569187
1750560848810359800,1.72535986328125,0.015262499451637268,0.032999999821186066,-0.03519999980926514
1750560848819964400,1.73496435546875,0.0030249999836087227,0.015949999913573265,-0.03272499889135361
1750560848829569300,1.7445693359375,-0.0017874999903142452,-0.025712499395012856,-0.011962499469518661
1750560848839174400,1.75417431640625,0.0017874999903142452,-0.06476250290870667,0.016224998980760574
1750560848848779300,1.763779296875,0.0030249999836087227,-0.05252499878406525,0.02227500081062317
1750560848858384100,1.773384033203125,0.009212499484419823,0.0085249999538064,0.006324999965727329
1750560848867988700,1.78298876953125,0.021449999883770943,0.06476250290870667,-0.021724998950958252
1750560848877593600,1.792593505859375,0.026262499392032623,0.08057499676942825,-0.04743750020861626
1750560848887198500,1.802198486328125,0.022687500342726707,0.045237500220537186,-0.05472499877214432
1750560848896803300,1.81180322265625,0.005499999970197678,0.0012374999932944775,-0.03148749843239784
1750560848906408400,1.821408447265625,-0.006737499963492155,-0.01223750039935112,0.02227500081062317
1750560848916013000,1.831012939453125,-0.0017874999903142452,-0.018287500366568565,0.07232499867677689
1750560848925618000,1.840617919921875,0.026262499392032623,-0.02199999988079071,0.09556250274181366
1750560848935222800,1.850222900390625,0.058024998754262924,-0.0085249999538064,0.07603749632835388
1750560848944827400,1.859827392578125,0.06902500241994858,0.025712499395012856,0.02227500081062317
1750560848954432500,1.8694326171875,0.058024998754262924,0.05623750016093254,-0.0364375002682209
1750560848964037400,1.879037353515625,0.04097500070929527,0.04152499884366989,-0.06696250289678574
1750560848973642000,1.88864208984375,0.023787500336766243,0.010999999940395355,-0.06324999779462814
1750560848983246800,1.898246826171875,0.02502499893307686,-0.0037124999798834324,-0.0387750007212162
1750560848992851700,1.907851806640625,0.03478749841451645,0.018287500366568565,-0.01924999989569187
1750560849002456300,1.917456298828125,0.03849999979138374,0.07081250101327896,-0.014437500387430191
1750560849012061400,1.9270615234375,0.03478749841451645,0.11852499842643738,-0.025437500327825546
1750560849021666000,1.936666015625,0.018975000828504562,0.12333749979734421,-0.029012499377131462
1750560849031271200,1.946271240234375,0.0042624999769032,0.09047500044107437,-0.01677500084042549
1750560849040876000,1.9558759765625,0.0030249999836087227,0.03671250119805336,0.0002749999985098839
1750560849050480600,1.965480712890625,-0.0005499999970197678,-0.025712499395012856,0.011274999938905239
1750560849060085500,1.97508544921875,0.0042624999769032,-0.0635249987244606,0.010037500411272049
1750560849069690400,1.9846904296875,0.010449999943375587,-0.06476250290870667,-0.0034374999813735485
1750560849079295500,1.99429541015625,0.014024999924004078,-0.018287500366568565,-0.01677500084042549
1750560849088900400,2.003900390625,0.017737500369548798,0.020762499421834946,-0.011962499469518661
1750560849098505000,2.0135048828125,0.026262499392032623,0.0085249999538064,0.02474999986588955
1750560849108109800,2.02310986328125,0.028737500309944153,-0.025712499395012856,0.08332499861717224
1750560849117714700,2.032714599609375,0.015262499451637268,-0.03904999792575836,0.12484999746084213
1750560849127319600,2.042319580078125,-0.015262499451637268,-0.042762499302625656,0.13337500393390656
1750560849136924400,2.05192431640625,-0.0518375001847744,-0.03904999792575836,0.11879999935626984
1750560849146529300,2.061529296875,-0.07026249915361404,-0.054999999701976776,0.0882750004529953
1750560849156134000,2.0711337890625,-0.05926249921321869,-0.08552499860525131,0.05884999781847
1750560849165738800,2.08073876953125,-0.03355000168085098,-0.10023749619722366,0.043037500232458115
1750560849175343900,2.09034375,-0.009074999950826168,-0.05128749832510948,0.028324998915195465
1750560849184948700,2.09994873046875,0.007974999956786633,0.05128749832510948,-0.011962499469518661
1750560849194553600,2.1095537109375,0.02502499893307686,0.14533749222755432,-0.07301250100135803
1750560849204158200,2.119158203125,0.048262499272823334,0.19552500545978546,-0.13282500207424164
1750560849213763000,2.12876318359375,0.060499999672174454,0.20281249284744263,-0.17448750138282776
1750560849223368000,2.138367919921875,0.06421250104904175,0.18081249296665192,-0.18782499432563782
1750560849232972800,2.147972900390625,0.058024998754262924,0.10999999940395355,-0.1695374995470047
1750560849242577700,2.15757763671875,0.03726249933242798,0,-0.11948750168085098
1750560849252182500,2.1671826171875,0.011687500402331352,-0.10381250083446503,-0.04853750020265579
1750560849261787400,2.176787353515625,0.0030249999836087227,-0.15399999916553497,0.006324999965727329
1750560849271392000,2.18639208984375,0.014024999924004078,-0.1270499974489212,0.023512499406933784
1750560849280997000,2.1959970703125,0.03244999796152115,-0.05857500061392784,0.011274999938905239
1750560849290602000,2.20560205078125,0.03849999979138374,0.0170499999076128,-0.022962499409914017
1750560849300206600,2.21520654296875,0.026262499392032623,0.08181250095367432,-0.05719999969005585
1750560849309811500,2.2248115234375,0.011687500402331352,0.09281250089406967,-0.06929999589920044
1750560849319416300,2.234416259765625,0.0017874999903142452,0.05004999786615372,-0.04853750020265579
1750560849329021200,2.244021240234375,-0.006737499963492155,-0.00976249948143959,-0.013199999928474426
1750560849338626000,2.2536259765625,-0.016499999910593033,-0.047712501138448715,0.013749999925494194
1750560849348231200,2.263231201171875,-0.026262499392032623,-0.037812501192092896,0.028324998915195465
1750560849357835800,2.272835693359375,-0.02502499893307686,-0.01223750039935112,0.030799999833106995
1750560849367440600,2.282440673828125,-0.011549999937415123,0,0.02227500081062317
1750560849377045500,2.29204541015625,0.012787500396370888,0.00494999997317791,0.014987500384449959
1750560849386650400,2.301650390625,0.028737500309944153,0.025712499395012856,0.01251249946653843
1750560849396255200,2.311255126953125,0.04221250116825104,0.07204999774694443,0.007562499959021807
1750560849405860000,2.320860107421875,0.04702499881386757,0.11123749613761902,-0.010724999941885471
1750560849415465000,2.33046484375,0.036024998873472214,0.12828749418258667,-0.03272499889135361
1750560849425069800,2.34006982421875,0.015262499451637268,0.11852499842643738,-0.04372499883174896
1750560849434674400,2.34967431640625,0.009212499484419823,0.07081250101327896,-0.0387750007212162
1750560849444279600,2.359279541015625,0.016499999910593033,0.0147124994546175,-0.004674999974668026
1750560849453884400,2.368884521484375,0.022687500342726707,-0.042762499302625656,0.03698749840259552
1750560849463489000,2.378489013671875,0.03478749841451645,-0.057475000619888306,0.06503749638795853
1750560849473094000,2.388093994140625,0.03726249933242798,-0.02199999988079071,0.06503749638795853
1750560849482698800,2.39769873046875,0.027499999850988388,0.023237500339746475,0.04179999977350235
1750560849492303600,2.4073037109375,0.023787500336766243,0.05128749832510948,0.0015124999918043613
1750560849501908500,2.416908447265625,0.023787500336766243,0.04399999976158142,-0.030249999836087227
1750560849511513300,2.426513427734375,0.022687500342726707,0.0085249999538064,-0.04977500066161156
1750560849521118200,2.4361181640625,0.02502499893307686,-0.04028749838471413,-0.04853750020265579
1750560849530722800,2.445722900390625,0.03478749841451645,-0.06228749826550484,-0.026537500321865082
1750560849540328000,2.455327880859375,0.05321250110864639,-0.02681249938905239,-0.004674999974668026
1750560849549932500,2.4649326171875,0.05926249921321869,0.02447500079870224,-0.002199999988079071
1750560849559537700,2.47453759765625,0.048262499272823334,0.07576250284910202,-0.025437500327825546
1750560849569142500,2.484142578125,0.028737500309944153,0.11123749613761902,-0.0644875019788742
1750560849578747100,2.4937470703125,0.0006874999962747097,0.10023749619722366,-0.0999625027179718
1750560849588352000,2.50335205078125,-0.017737500369548798,0.04028749838471413,-0.10353749990463257
1750560849597956900,2.512956787109375,-0.021312499418854713,-0.032999999821186066,-0.06324999779462814
1750560849607561700,2.522561767578125,-0.018975000828504562,-0.09776250272989273,0.003987499978393316
1750560849617166600,2.53216650390625,-0.015262499451637268,-0.12952500581741333,0.06751249730587006
1750560849626771500,2.541771484375,-0.005499999970197678,-0.10876250267028809,0.09184999763965607
1750560849636376300,2.551376220703125,0.012787500396370888,-0.03671250119805336,0.060087498277425766
1750560849645981200,2.560981201171875,0.022687500342726707,0.047712501138448715,-0.0034374999813735485
1750560849655586000,2.5705859375,0.018975000828504562,0.11233749985694885,-0.05719999969005585
1750560849665191000,2.58019091796875,-0.0017874999903142452,0.12333749979734421,-0.07919999957084656
1750560849674795500,2.58979541015625,-0.027499999850988388,0.10023749619722366,-0.06929999589920044
1750560849684400400,2.599400390625,-0.03849999979138374,0.04881250113248825,-0.03753750026226044
1750560849694005500,2.609005615234375,-0.03973750025033951,-0.015812499448657036,-0.0009624999947845936
1750560849703610400,2.6186103515625,-0.027499999850988388,-0.057475000619888306,0.03451250120997429
1750560849713215000,2.628215087890625,-0.007974999956786633,-0.07081250101327896,0.05403750017285347
1750560849722819800,2.63781982421875,0.015262499451637268,-0.06104999780654907,0.06379999965429306
1750560849732425000,2.647425048828125,0.03849999979138374,-0.023237500339746475,0.06132499873638153
1750560849742029600,2.657029541015625,0.0494999997317791,0.03671250119805336,0.04179999977350235
1750560849751634400,2.666634521484375,0.0494999997317791,0.09281250089406967,0.0015124999918043613
1750560849761239600,2.676239501953125,0.03478749841451645,0.11728750169277191,-0.05224999785423279
1750560849770844200,2.68584423828125,0.009212499484419823,0.10257499665021896,-0.09872499853372574
1750560849780449000,2.695448974609375,-0.020075000822544098,0.059812501072883606,-0.1060125008225441
1750560849790054000,2.705053955078125,-0.036024998873472214,-0.0012374999932944775,-0.06201250106096268
1750560849799659000,2.714658935546875,-0.03973750025033951,-0.04028749838471413,0.013749999925494194
1750560849809263600,2.724263671875,-0.036024998873472214,-0.04152499884366989,0.08579999953508377
1750560849818868500,2.733868408203125,-0.036024998873472214,-0.018287500366568565,0.11384999752044678
1750560849828473000,2.74347314453125,-0.04207500070333481,0.01223750039935112,0.08208750188350677
1750560849838078000,2.753077880859375,-0.048262499272823334,0.032999999821186066,0.02708750031888485
1750560849847682800,2.762682861328125,-0.05431250110268593,0.057475000619888306,-0.01924999989569187
1750560849857288000,2.772287841796875,-0.05678749829530716,0.07947500050067902,-0.05224999785423279
1750560849866892500,2.781892578125,-0.03973750025033951,0.07081250101327896,-0.05596249923110008
1750560849876497400,2.791497314453125,-0.021312499418854713,0.0317624993622303,-0.04743750020861626
1750560849886102300,2.801102294921875,-0.007974999956786633,-0.010999999940395355,-0.03396249935030937
1750560849895707100,2.81070703125,-0.0042624999769032,-0.02681249938905239,-0.021724998950958252
1750560849905312000,2.82031201171875,-0.010312499478459358,-0.02681249938905239,-0.020487500354647636
1750560849914916900,2.829916748046875,-0.016499999910593033,-0.015812499448657036,-0.02419999986886978
1750560849924521700,2.839521728515625,-0.015262499451637268,0.00976249948143959,-0.027775000780820847
1750560849934126600,2.849126708984375,-0.010312499478459358,0.04028749838471413,-0.03148749843239784
1750560849943731500,2.8587314453125,0.011687500402331352,0.059812501072883606,-0.04743750020861626
1750560849953336000,2.868336181640625,0.03478749841451645,0.06228749826550484,-0.0742499977350235
1750560849962941000,2.87794091796875,0.03726249933242798,0.054999999701976776,-0.10477499663829803
1750560849972545800,2.8875458984375,0.020212499424815178,0.04399999976158142,-0.12430000305175781
1750560849982150700,2.897150634765625,0.0006874999962747097,0.030524998903274536,-0.12430000305175781
1750560849991755500,2.906755615234375,-0.007974999956786633,0.01952499896287918,-0.10477499663829803
1750560850001360400,2.9163603515625,-0.0017874999903142452,0,-0.07177499681711197
1750560850010965200,2.92596533203125,0.011687500402331352,-0.023237500339746475,-0.022962499409914017
1750560850020570400,2.9355703125,0.018975000828504562,-0.04399999976158142,0.01732499897480011
1750560850030175000,2.945175048828125,0.012787500396370888,-0.05857500061392784,0.02956249937415123
1750560850039779800,2.95477978515625,0.0017874999903142452,-0.04028749838471413,0.01251249946653843
1750560850049384400,2.964384521484375,-0.006737499963492155,0.002474999986588955,-0.011962499469518661
1750560850058989600,2.973989501953125,-0.006737499963492155,0.03904999792575836,-0.03272499889135361
1750560850068594400,2.983594482421875,-0.0017874999903142452,0.057475000619888306,-0.04853750020265579
1750560850078199300,2.99319921875,0.007974999956786633,0.06476250290870667,-0.05719999969005585
1750560850087804000,3.002803955078125,0.016499999910593033,0.06228749826550484,-0.05472499877214432
1750560850097408800,3.01240869140625,0.020212499424815178,0.04399999976158142,-0.04001250118017197
1750560850107014000,3.022013916015625,0.014024999924004078,0.0085249999538064,-0.020487500354647636
1750560850116618800,3.03161865234375,0.009212499484419823,-0.0147124994546175,-0.002199999988079071
1750560850126223400,3.041223388671875,0.0006874999962747097,0.0012374999932944775,0.002749999985098839
1750560850135828200,3.050828125,-0.0017874999903142452,0.032999999821186066,-0.007012499962002039
1750560850145433300,3.060433349609375,0.005499999970197678,0.05128749832510948,-0.018012499436736107
1750560850155038200,3.0700380859375,0.005499999970197678,0.047712501138448715,-0.03148749843239784
1750560850164642800,3.079642822265625,-0.0030249999836087227,0.02928750030696392,-0.027775000780820847
1750560850174247700,3.08924755859375,-0.0030249999836087227,0.0085249999538064,-0.002199999988079071
1750560850183852800,3.098852783203125,0.0042624999769032,0,0.025987500324845314
1750560850193457400,3.10845751953125,0.009212499484419823,0.007287499960511923,0.03932499885559082
1750560850203062300,3.118062255859375,0.012787500396370888,0.02681249938905239,0.03698749840259552
1750560850212667100,3.127667236328125,0.014024999924004078,0.03671250119805336,0.021037500351667404
1750560850222272000,3.13727197265625,0.006737499963492155,0.02199999988079071,-0.002199999988079071
1750560850231876900,3.146876953125,-0.0005499999970197678,-0.002474999986588955,-0.022962499409914017
1750560850241481500,3.1564814453125,-0.0030249999836087227,0,-0.04001250118017197
1750560850251086300,3.16608642578125,0.0030249999836087227,0.010999999940395355,-0.04496249929070473
1750560850260691200,3.175691162109375,0.017737500369548798,0.01952499896287918,-0.03272499889135361
1750560850270296300,3.18529638671875,0.03478749841451645,0.007287499960511923,-0.015537500381469727
1750560850279901000,3.19490087890625,0.04702499881386757,-0.002474999986588955,-0.010724999941885471
1750560850289505800,3.204505859375,0.04455000162124634,0.007287499960511923,-0.020487500354647636
1750560850299110700,3.214110595703125,0.018975000828504562,0.02447500079870224,-0.04372499883174896
1750560850308715300,3.22371533203125,-0.0017874999903142452,0.05376249924302101,-0.05953750014305115
1750560850318320000,3.233320068359375,-0.017737500369548798,0.07699999958276749,-0.06077500060200691
1750560850327925000,3.242925048828125,-0.021312499418854713,0.08057499676942825,-0.05348749831318855
1750560850337529900,3.25252978515625,-0.0030249999836087227,0.05623750016093254,-0.0387750007212162
1750560850347135000,3.262135009765625,0.010449999943375587,0.02681249938905239,-0.01924999989569187
1750560850356739600,3.271739501953125,0.009212499484419823,0.007287499960511923,-0.007012499962002039
1750560850366344400,3.281344482421875,0.009212499484419823,-0.020762499421834946,0.0015124999918043613
1750560850375949300,3.29094921875,0.006737499963492155,-0.054999999701976776,0.023512499406933784
1750560850385554200,3.30055419921875,0.011687500402331352,-0.07204999774694443,0.05403750017285347
1750560850395158800,3.31015869140625,0.02502499893307686,-0.06847500056028366,0.07975000143051147
1750560850404764000,3.319763916015625,0.027499999850988388,-0.04881250113248825,0.08579999953508377
1750560850414368500,3.329368408203125,0.015262499451637268,-0.01952499896287918,0.057750001549720764
1750560850423973600,3.3389736328125,-0.0042624999769032,0.00494999997317791,0.007562499959021807
1750560850433578200,3.348578125,-0.016499999910593033,0.018287500366568565,-0.04001250118017197
1750560850443183000,3.35818310546875,-0.022549999877810478,0.028049999848008156,-0.07796250283718109
1750560850452788200,3.367788330078125,-0.022549999877810478,0.04399999976158142,-0.09006249904632568
1750560850462392800,3.377392822265625,-0.007974999956786633,0.059812501072883606,-0.06696250289678574
1750560850471997700,3.386997802734375,0.010449999943375587,0.05128749832510948,-0.03272499889135361
1750560850481602600,3.3966025390625,0.016499999910593033,0.023237500339746475,-0.0057749999687075615
1750560850491207400,3.40620751953125,0.011687500402331352,-0.0012374999932944775,0.016224998980760574
1750560850500812000,3.41581201171875,-0.0030249999836087227,-0.01952499896287918,0.03451250120997429
1750560850510417200,3.425417236328125,-0.027499999850988388,-0.035475000739097595,0.05156249925494194
1750560850520021800,3.435021728515625,-0.04331250116229057,-0.042762499302625656,0.055275000631809235
1750560850529627000,3.444626953125,-0.05073750019073486,-0.05128749832510948,0.038087498396635056
1750560850539231700,3.454231689453125,-0.048262499272823334,-0.045237500220537186,0.01251249946653843
1750560850548836400,3.46383642578125,-0.036024998873472214,-0.00976249948143959,-0.014437500387430191
1750560850558441200,3.473441162109375,-0.011549999937415123,0.03904999792575836,-0.03396249935030937
1750560850568046000,3.483046142578125,0.0042624999769032,0.07576250284910202,-0.04977500066161156
1750560850577651000,3.49265087890625,0.014024999924004078,0.08799999952316284,-0.04743750020861626
1750560850587255800,3.502255859375,0.010449999943375587,0.07576250284910202,-0.025437500327825546
1750560850596860700,3.511860595703125,0.0017874999903142452,0.02928750030696392,0.016224998980760574
1750560850606465300,3.52146533203125,-0.0017874999903142452,-0.018287500366568565,0.06503749638795853
1750560850616070100,3.531070068359375,-0.006737499963492155,-0.03671250119805336,0.08951249718666077
1750560850625675300,3.54067529296875,-0.015262499451637268,-0.037812501192092896,0.07851249724626541
1750560850635280100,3.550280029296875,-0.010312499478459358,-0.030524998903274536,0.043037500232458115
1750560850644885000,3.559885009765625,0.0042624999769032,-0.020762499421834946,0.003987499978393316
1750560850654489600,3.569489501953125,0.02502499893307686,-0.018287500366568565,-0.01677500084042549
1750560850664094700,3.5790947265625,0.03973750025033951,-0.030524998903274536,-0.014437500387430191
1750560850673699300,3.58869921875,0.05197500064969063,-0.020762499421834946,0.007562499959021807
1750560850683304200,3.59830419921875,0.05444999784231186,0.0170499999076128,0.02474999986588955
1750560850692909000,3.607908935546875,0.04221250116825104,0.0635249987244606,0.01251249946653843
1750560850702514000,3.617513916015625,0.03244999796152115,0.09404999762773514,-0.01924999989569187
1750560850712118800,3.627118896484375,0.03244999796152115,0.08057499676942825,-0.04977500066161156
1750560850721723400,3.636723388671875,0.036024998873472214,0.03423750028014183,-0.06324999779462814
1750560850731328500,3.64632861328125,0.03368749842047691,-0.01952499896287918,-0.05953750014305115
1750560850740933400,3.655933349609375,0.018975000828504562,-0.07081250101327896,-0.04372499883174896
1750560850750538200,3.665538330078125,0.005499999970197678,-0.09281250089406967,-0.015537500381469727
1750560850760143000,3.67514306640625,0.0017874999903142452,-0.07081250101327896,0.014987500384449959
1750560850769747700,3.684747802734375,0.0030249999836087227,-0.002474999986588955,0.02956249937415123
1750560850779352600,3.6943525390625,0.012787500396370888,0.07947500050067902,0.01732499897480011
1750560850788957700,3.703957763671875,0.023787500336766243,0.12099999934434891,-0.02419999986886978
1750560850798562600,3.7135625,0.02502499893307686,0.10999999940395355,-0.05829999968409538
1750560850808167200,3.723167236328125,0.016499999910593033,0.0635249987244606,-0.05829999968409538
1750560850817772000,3.73277197265625,-0.0042624999769032,-0.010999999940395355,-0.03519999980926514
1750560850827377000,3.742376953125,-0.027499999850988388,-0.08304999768733978,0.0002749999985098839
1750560850836981800,3.751981689453125,-0.036024998873472214,-0.11852499842643738,0.02956249937415123
1750560850846586600,3.761586669921875,-0.036024998873472214,-0.11728750169277191,0.038087498396635056
1750560850856191500,3.77119140625,-0.022549999877810478,-0.07081250101327896,0.04179999977350235
1750560850865796400,3.78079638671875,0.006737499963492155,-0.006049999967217445,0.043037500232458115
1750560850875401200,3.790401123046875,0.03726249933242798,0.0317624993622303,0.03698749840259552
1750560850885006000,3.800006103515625,0.05555000156164169,0.04881250113248825,0.025987500324845314
1750560850894610700,3.809610595703125,0.05444999784231186,0.05128749832510948,0.008799999952316284
1750560850904215800,3.8192158203125,0.03368749842047691,0.03904999792575836,-0.0057749999687075615
1750560850913820700,3.828820556640625,0.006737499963492155,0.015949999913573265,-0.009487500414252281
1750560850923425300,3.83842529296875,-0.011549999937415123,-0.023237500339746475,0.003987499978393316
1750560850933030100,3.848030029296875,-0.015262499451637268,-0.06104999780654907,0.03203750029206276
1750560850942634800,3.857634765625,-0.009074999950826168,-0.06228749826550484,0.055275000631809235
1750560850952239900,3.867239990234375,-0.010312499478459358,-0.025712499395012856,0.04908749833703041
1750560850961844700,3.8768447265625,-0.007974999956786633,0.02447500079870224,0.01979999989271164
1750560850971449600,3.88644970703125,0.0042624999769032,0.05376249924302101,-0.021724998950958252
1750560850981054200,3.89605419921875,0.018975000828504562,0.05252499878406525,-0.05224999785423279
1750560850990659300,3.905659423828125,0.026262499392032623,0.02447500079870224,-0.04743750020861626
1750560851000264200,3.91526416015625,0.018975000828504562,-0.0147124994546175,-0.015537500381469727
1750560851009869000,3.924869140625,0.0006874999962747097,-0.03904999792575836,0.01979999989271164
1750560851019473700,3.9344736328125,-0.020075000822544098,-0.03904999792575836,0.038087498396635056
1750560851029078500,3.94407861328125,-0.028737500309944153,-0.020762499421834946,0.02708750031888485
1750560851038683600,3.95368359375,-0.016499999910593033,0.0037124999798834324,0.005224999971687794
1750560851048288300,3.963288330078125,0.010449999943375587,0.015949999913573265,-0.007012499962002039
1750560851057893000,3.97289306640625,0.03368749842047691,0.00494999997317791,-0.0034374999813735485
1750560851067498000,3.982498046875,0.03849999979138374,-0.007287499960511923,0.007562499959021807
1750560851077102800,3.992102783203125,0.031212499365210533,-0.0085249999538064,0.010037500411272049
1750560851086707700,4.001707763671875,0.010449999943375587,-0.00976249948143959,-0.004674999974668026
1750560851096312600,4.0113125,-0.0042624999769032,-0.006049999967217445,-0.013199999928474426
1750560851105917400,4.02091748046875,-0.0030249999836087227,-0.007287499960511923,-0.009487500414252281
1750560851115522300,4.030522216796875,-0.0005499999970197678,-0.010999999940395355,0.0002749999985098839
1750560851125127200,4.040127197265625,0.006737499963492155,-0.0012374999932944775,0.006324999965727329
1750560851134731800,4.049731689453125,0.017737500369548798,0.00494999997317791,-0.0057749999687075615
1750560851144337000,4.0593369140625,0.020212499424815178,-0.002474999986588955,-0.026537500321865082
1750560851153941800,4.068941650390625,0.017737500369548798,-0.0085249999538064,-0.04001250118017197
1750560851163546600,4.078546630859375,0.007974999956786633,0.006049999967217445,-0.0424874983727932
1750560851173151500,4.0881513671875,-0.005499999970197678,0.04028749838471413,-0.0424874983727932
1750560851182756000,4.097756103515625,-0.0030249999836087227,0.0635249987244606,-0.0424874983727932
1750560851192361000,4.10736083984375,0.010449999943375587,0.05871250107884407,-0.03396249935030937
1750560851201965600,4.116965576171875,0.023787500336766243,0.035475000739097595,-0.014437500387430191
1750560851211570700,4.12657080078125,0.026262499392032623,0.002474999986588955,0.010037500411272049
1750560851221175600,4.136175537109375,0.014024999924004078,-0.035475000739097595,0.03203750029206276
1750560851230780400,4.145780517578125,-0.0030249999836087227,-0.0672374963760376,0.045512501150369644
1750560851240385300,4.15538525390625,-0.026262499392032623,-0.10023749619722366,0.033275000751018524
1750560851249990000,4.164989990234375,-0.0518375001847744,-0.10999999940395355,0.01251249946653843
1750560851259594800,4.1745947265625,-0.04702499881386757,-0.04399999976158142,-0.0057749999687075615
1750560851269200000,4.184199951171875,-0.026262499392032623,0.04028749838471413,-0.04496249929070473
1750560851278804700,4.1938046875,0.0017874999903142452,0.08676250278949738,-0.09129999577999115
1750560851288409600,4.20340966796875,0.02502499893307686,0.08676250278949738,-0.1097249984741211
1750560851298014200,4.21301416015625,0.03478749841451645,0.05252499878406525,-0.08277499675750732
1750560851307619000,4.222619140625,0.03368749842047691,-0.0085249999538064,-0.02419999986886978
1750560851317224200,4.23222412109375,0.029975000768899918,-0.05376249924302101,0.040562499314546585
1750560851326828800,4.241828857421875,0.014024999924004078,-0.0672374963760376,0.06503749638795853
1750560851336433700,4.25143359375,-0.0005499999970197678,-0.054999999701976776,0.040562499314546585
1750560851346038500,4.26103857421875,-0.0017874999903142452,-0.020762499421834946,-0.007012499962002039
1750560851355643400,4.270643310546875,0.016499999910593033,0.01223750039935112,-0.05953750014305115
1750560851365248300,4.280248291015625,0.06173750013113022,0.032999999821186066,-0.1023000031709671
1750560851374853000,4.28985302734375,0.09597499668598175,0.02681249938905239,-0.13048750162124634
1750560851384458000,4.2994580078125,0.09350000321865082,0.0012374999932944775,-0.09748750180006027
1750560851394062800,4.309062744140625,0.07397499680519104,-0.0147124994546175,-0.015537500381469727
1750560851403667500,4.31866748046875,0.04097500070929527,-0.06228749826550484,0.06875000149011612
1750560851413272600,4.3282724609375,0.009212499484419823,-0.10876250267028809,0.15303750336170197
1750560851422877400,4.33787744140625,-0.010312499478459358,-0.11481250077486038,0.2055625021457672
1750560851432482000,4.34748193359375,-0.022549999877810478,-0.08923749625682831,0.1835625022649765
1750560851442087000,4.3570869140625,-0.05431250110268593,-0.04881250113248825,0.0943249985575676
1750560851451691800,4.36669189453125,-0.09583749622106552,0.01952499896287918,-0.014437500387430191
1750560851461296600,4.376296630859375,-0.12526249885559082,0.09404999762773514,-0.09748750180006027
1750560851470901200,4.3859013671875,-0.12278749793767929,0.12223749607801437,-0.13529999554157257
1750560851480506400,4.39550634765625,-0.10449999570846558,0.10752499848604202,-0.1377750039100647
1750560851490111200,4.405111328125,-0.13007499277591705,0.13805000483989716,-0.13653749227523804
1750560851499716000,4.414716064453125,-0.2913624942302704,0.2578125,-0.13653749227523804
1750560851509320700,4.42432080078125,-0.7104625105857849,0.4996750056743622,-0.09253749996423721
1750560851518925600,4.433925537109375,-1.3969999551773071,0.7720624804496765,-0.04124999791383743
1750560851528530400,4.443530517578125,-2.3755874633789062,0.7953000068664551,0.03932499885559082
1750560851538135600,4.453135498046875,-3.337125062942505,0.4641999900341034,0.22013749182224274
1750560851547740200,4.462740234375,-3.914900064468384,-0.3091000020503998,0.3863750100135803
1750560851557345000,4.472344970703125,-4.203237533569336,-1.29868745803833,0.5268999934196472
1750560851566950000,4.481949951171875,-4.421999931335449,-2.2748000621795654,0.6930000185966492
1750560851576554500,4.491554443359375,-4.671150207519531,-2.842949867248535,0.9103875160217285
1750560851586159600,4.50115966796875,-4.671150207519531,-2.7354249954223633,1.1339625120162964
1750560851595764500,4.510764404296875,-4.373050212860107,-2.147749900817871,1.2122000455856323
1750560851605369300,4.520369384765625,-3.7756125926971436,-1.205875039100647,1.1413874626159668
1750560851614974200,4.52997412109375,-2.958312511444092,-0.3493874967098236,0.8982874751091003
1750560851624578800,4.539578857421875,-2.116537570953369,0.11976250261068344,0.5134249925613403
1750560851634184000,4.549183837890625,-1.3982374668121338,0.06476250290870667,0.17379999160766602
1750560851643788800,4.558788818359375,-0.9559000134468079,-0.32010000944137573,-0.026537500321865082
1750560851653393700,4.5683935546875,-0.7482749819755554,-0.6389625072479248,-0.13901250064373016
1750560851662998500,4.57799853515625,-0.561412513256073,-0.8540124893188477,-0.2525874972343445
1750560851672603100,4.58760302734375,-0.31212499737739563,-1.0543500185012817,-0.405349999666214
1750560851682208000,4.5972080078125,-0.0005499999970197678,-1.127637505531311,-0.4871625006198883
1750560851691813000,4.606813232421875,0.3854124844074249,-1.0995874404907227,-0.45416250824928284
1750560851701417700,4.616417724609375,0.9047499895095825,-1.123924970626831,-0.34911251068115234
1750560851711022600,4.626022705078125,1.558287501335144,-1.0861124992370605,-0.19882500171661377
1750560851720627500,4.63562744140625,2.3194875717163086,-0.935824990272522,-0.026537500321865082
1750560851730232000,4.645232177734375,2.968212366104126,-0.603487491607666,-0.0009624999947845936
1750560851739837200,4.654837158203125,3.3236498832702637,0.035475000739097595,-0.20377500355243683
1750560851749442000,4.664442138671875,3.487412452697754,0.6621999740600586,-0.5689749717712402
1750560851759047000,4.674046875,3.545987367630005,0.8893499970436096,-0.9563124775886536
1750560851768651500,4.683651611328125,3.534987449645996,0.7244874835014343,-1.1261249780654907
1750560851778256400,4.69325634765625,3.572937488555908,0.3078624904155731,-0.953837513923645
1750560851787861200,4.702861328125,3.4776499271392822,-0.1868624985218048,-0.6875
1750560851797466000,4.712466064453125,3.0658373832702637,-0.4398624897003174,-0.5299249887466431
1750560851807071000,4.722071044921875,2.3755874633789062,-0.16981250047683716,-0.4713499844074249
1750560851816675800,4.73167578125,1.641337513923645,0.30662500858306885,-0.405349999666214
1750560851826280700,4.74128076171875,1.138087511062622,0.45086249709129333,-0.227012500166893
1750560851835885600,4.750885498046875,0.8949875235557556,0.2798124849796295,0.05403750017285347
1750560851845490200,4.760490234375,0.815512478351593,-0.025712499395012856,0.35089999437332153
1750560851855095300,4.77009521484375,0.7605124711990356,-0.23828749358654022,0.527999997138977
1750560851864700200,4.7797001953125,0.6701750159263611,-0.26881250739097595,0.5439500212669373
1750560851874305000,4.789304931640625,0.5234624743461609,-0.17476250231266022,0.43271249532699585
1750560851883910000,4.798909912109375,0.36465001106262207,-0.02681249938905239,0.28008750081062317
1750560851893514800,4.8085146484375,0.21559999883174896,0.09652499854564667,0.12361250072717667
1750560851903119400,4.818119384765625,0.08002500236034393,0.19786250591278076,0.013749999925494194
1750560851912724500,4.827724365234375,-0.026262499392032623,0.40191251039505005,-0.04496249929070473
1750560851922329000,4.8373291015625,-0.036024998873472214,0.6756749749183655,-0.09253749996423721
1750560851931934000,4.846933837890625,0.04097500070929527,0.7977749705314636,-0.147537499666214
1750560851941538800,4.856538818359375,0.1508374959230423,0.7391999959945679,-0.17077499628067017
1750560851951143400,4.866143310546875,0.2363625019788742,0.5326749682426453,-0.14272500574588776
1750560851960748800,4.875748779296875,0.23526249825954437,0.32010000944137573,-0.06696250289678574
1750560851970353400,4.885353515625,0.14231249690055847,0.19181250035762787,0.040562499314546585
1750560851979958300,4.894958251953125,-0.028737500309944153,0.11604999750852585,0.13708749413490295
1750560851989563100,4.904563232421875,-0.17159999907016754,0.0317624993622303,0.1993750035762787
1750560851999167700,4.914167724609375,-0.2363625019788742,-0.059812501072883606,0.2287999987602234
1750560852008772900,4.92377294921875,-0.24131250381469727,-0.14781250059604645,0.22990000247955322
1750560852018377500,4.93337744140625,-0.2083124965429306,-0.1905750036239624,0.20061250030994415
1750560852027982300,4.942982421875,-0.14836250245571136,-0.10257499665021896,0.15908749401569366
1750560852037587200,4.952587158203125,-0.06173750013113022,0.06476250290870667,0.09927500039339066
1750560852047192000,4.962192138671875,0.03973750025033951,0.20281249284744263,0.014987500384449959
1750560852056797000,4.971796875,0.116737499833107,0.2638624906539917,-0.07796250283718109
1750560852066401800,4.98140185546875,0.13007499277591705,0.2516250014305115,-0.15372499823570251
1750560852076006700,4.991006591796875,0.0849749967455864,0.19304999709129333,-0.19401249289512634
1750560852085611500,5.000611572265625,0.0042624999769032,0.10023749619722366,-0.17682500183582306
1750560852095216400,5.01021630859375,-0.058024998754262924,0.0012374999932944775,-0.09501250088214874
1750560852104821000,5.019821044921875,-0.0775500014424324,-0.07823749631643295,0.014987500384449959
1750560852114426000,5.029426025390625,-0.06173750013113022,-0.12333749979734421,0.0943249985575676
1750560852124031000,5.039031005859375,-0.018975000828504562,-0.10876250267028809,0.11027500033378601
1750560852133635600,5.048635498046875,0.029975000768899918,-0.06476250290870667,0.07727500051259995
1750560852143240400,5.058240478515625,0.05321250110864639,-0.04399999976158142,0.010037500411272049
1750560852152845300,5.06784521484375,0.03478749841451645,-0.01952499896287918,-0.0681999996304512
1750560852162450400,5.077450439453125,-0.0030249999836087227,0.0170499999076128,-0.12430000305175781
1750560852172055000,5.087054931640625,-0.02502499893307686,0.0635249987244606,-0.12430000305175781
1750560852181660000,5.096659912109375,-0.020075000822544098,0.09047500044107437,-0.09377499669790268
1750560852191264800,5.1062646484375,-0.0030249999836087227,0.07452499866485596,-0.05472499877214432
1750560852200869600,5.11586962890625,0.023787500336766243,0.04881250113248825,-0.01677500084042549
1750560852210474200,5.12547412109375,0.04702499881386757,0.02447500079870224,0.007562499959021807
1750560852220079400,5.135079345703125,0.05197500064969063,0.002474999986588955,0.010037500411272049
1750560852229684200,5.144684326171875,0.04702499881386757,0.01347499992698431,0.008799999952316284
1750560852239289000,5.1542890625,0.031212499365210533,0.04399999976158142,0.0002749999985098839
1750560852248894000,5.16389404296875,0.011687500402331352,0.08057499676942825,-0.009487500414252281
1750560852258498600,5.17349853515625,-0.012787500396370888,0.11728750169277191,-0.021724998950958252
1750560852268103400,5.183103515625,-0.027499999850988388,0.1405249983072281,-0.0424874983727932
1750560852277708300,5.192708251953125,-0.009074999950826168,0.13928750157356262,-0.06324999779462814
1750560852287313200,5.202313232421875,0.012787500396370888,0.11728750169277191,-0.07548750191926956
1750560852296918000,5.21191796875,0.022687500342726707,0.06599999964237213,-0.07548750191926956
1750560852306523000,5.22152294921875,0.02502499893307686,-0.0037124999798834324,-0.05596249923110008
1750560852316127700,5.231127685546875,0.029975000768899918,-0.0635249987244606,0.0002749999985098839
1750560852325732600,5.240732666015625,0.03244999796152115,-0.08799999952316284,0.07727500051259995
1750560852335337500,5.25033740234375,0.028737500309944153,-0.06847500056028366,0.1260875016450882
1750560852344942300,5.2599423828125,0.036024998873472214,-0.0085249999538064,0.12484999746084213
1750560852354547200,5.269547119140625,0.05444999784231186,0.05004999786615372,0.08084999769926071
1750560852364152000,5.279152099609375,0.0775500014424324,0.07947500050067902,0.03932499885559082
1750560852373756700,5.288756591796875,0.08855000138282776,0.05252499878406525,0.01251249946653843
1750560852383361500,5.298361572265625,0.08621250092983246,0,0.018562499433755875
1750560852392966400,5.30796630859375,0.07631249725818634,-0.015812499448657036,0.06503749638795853
1750560852402571300,5.3175712890625,0.06421250104904175,-0.010999999940395355,0.11151249706745148
1750560852412176100,5.327176025390625,0.07878749817609787,0.0085249999538064,0.13832500576972961
1750560852421781000,5.336781005859375,0.10573749989271164,0.04152499884366989,0.1163249984383583
1750560852431385600,5.346385498046875,0.1264999955892563,0.07452499866485596,0.047987498342990875
1750560852440990700,5.35599072265625,0.12402500212192535,0.12952500581741333,-0.04001250118017197
1750560852450595300,5.36559521484375,0.09955000132322311,0.1527625024318695,-0.11701250076293945
1750560852460200400,5.375200439453125,0.06655000150203705,0.11728750169277191,-0.1438249945640564
1750560852469805000,5.38480517578125,0.027499999850988388,0.06476250290870667,-0.11948750168085098
1750560852479410000,5.394409912109375,-0.0017874999903142452,0.018287500366568565,-0.0681999996304512
1750560852489014800,5.404014892578125,-0.0017874999903142452,0.0012374999932944775,-0.018012499436736107
1750560852498619600,5.41361962890625,0.014024999924004078,0.018287500366568565,0.011274999938905239
1750560852508224500,5.423224609375,0.023787500336766243,0.05252499878406525,0.023512499406933784
1750560852517829400,5.432829345703125,0.036024998873472214,0.08057499676942825,0.02956249937415123
1750560852527434200,5.442434326171875,0.036024998873472214,0.08676250278949738,0.018562499433755875
1750560852537039000,5.4520390625,0.022687500342726707,0.06599999964237213,-0.0057749999687075615
1750560852546643700,5.461643798828125,0.010449999943375587,0.002474999986588955,-0.01677500084042549
1750560852556248800,5.471248779296875,-0.0042624999769032,-0.08181250095367432,-0.0034374999813735485
1750560852565853700,5.480853759765625,-0.021312499418854713,-0.12828749418258667,0.033275000751018524
1750560852575458600,5.49045849609375,-0.020075000822544098,-0.10023749619722366,0.05884999781847
1750560852585063400,5.5000634765625,0.0042624999769032,-0.05252499878406525,0.03932499885559082
1750560852594668000,5.50966796875,0.04702499881386757,-0.01223750039935112,0.0002749999985098839
1750560852604273000,5.51927294921875,0.0849749967455864,0.0317624993622303,-0.027775000780820847
1750560852613877800,5.528877685546875,0.09831249713897705,0.08923749625682831,-0.030249999836087227
1750560852623482600,5.538482666015625,0.08978749811649323,0.10752499848604202,-0.009487500414252281
1750560852633087500,5.54808740234375,0.07150000333786011,0.07823749631643295,0.02474999986588955
1750560852642692400,5.5576923828125,0.04221250116825104,0.020762499421834946,0.057750001549720764
1750560852652297000,5.567296875,0.0017874999903142452,-0.037812501192092896,0.055275000631809235
1750560852661901800,5.57690185546875,-0.04207500070333481,-0.0672374963760376,0.021037500351667404
1750560852671506700,5.586506591796875,-0.06173750013113022,-0.04399999976158142,-0.020487500354647636
1750560852681111800,5.59611181640625,-0.04207500070333481,0.002474999986588955,-0.05224999785423279
1750560852690716700,5.605716552734375,-0.0005499999970197678,0.045237500220537186,-0.0742499977350235
1750560852700321300,5.6153212890625,0.03726249933242798,0.08181250095367432,-0.08153750002384186
1750560852709926100,5.624926025390625,0.05073750019073486,0.11357499659061432,-0.08030000329017639
1750560852719530800,5.63453076171875,0.03973750025033951,0.1270499974489212,-0.06324999779462814
1750560852729135900,5.644135986328125,0.015262499451637268,0.10999999940395355,-0.03396249935030937
1750560852738740700,5.65374072265625,-0.009074999950826168,0.057475000619888306,-0.007012499962002039
1750560852748345600,5.663345703125,-0.016499999910593033,-0.0317624993622303,0.01979999989271164
1750560852757950500,5.672950439453125,-0.020075000822544098,-0.11481250077486038,0.035750001668930054
1750560852767555300,5.682555419921875,-0.028737500309944153,-0.12828749418258667,0.021037500351667404
1750560852777160200,5.69216015625,-0.022549999877810478,-0.07452499866485596,-0.029012499377131462
1750560852786765000,5.70176513671875,-0.010312499478459358,0.00976249948143959,-0.08772499859333038
1750560852796370000,5.711369873046875,0.006737499963492155,0.06599999964237213,-0.10724999755620956
1750560852805974500,5.720974609375,0.018975000828504562,0.07947500050067902,-0.07672499865293503
1750560852815579400,5.730579345703125,0.009212499484419823,0.04881250113248825,-0.015537500381469727
1750560852825184300,5.740184326171875,-0.007974999956786633,-0.010999999940395355,0.05156249925494194
1750560852834789000,5.7497890625,-0.009074999950826168,-0.06104999780654907,0.09927500039339066
1750560852844394000,5.75939404296875,-0.0005499999970197678,-0.07204999774694443,0.09556250274181366
1750560852853998800,5.768998779296875,0.017737500369548798,-0.03423750028014183,0.05403750017285347
1750560852863603700,5.778603759765625,0.03478749841451645,0.0037124999798834324,0.005224999971687794
1750560852873208300,5.788208251953125,0.043449997901916504,0.02447500079870224,-0.020487500354647636
1750560852882813200,5.797813232421875,0.03849999979138374,0.03904999792575836,-0.025437500327825546
1750560852892418000,5.80741796875,0.03478749841451645,0.059812501072883606,-0.02419999986886978
1750560852902023000,5.81702294921875,0.036024998873472214,0.10381250083446503,-0.03148749843239784
1750560852911627800,5.826627685546875,0.028737500309944153,0.10876250267028809,-0.04743750020861626
1750560852921232600,5.836232666015625,0.012787500396370888,0.08057499676942825,-0.05596249923110008
1750560852930837500,5.84583740234375,-0.005499999970197678,0.035475000739097595,-0.04496249929070473
1750560852940442400,5.8554423828125,-0.020075000822544098,-0.01347499992698431,-0.018012499436736107
1750560852950047200,5.865047119140625,-0.029975000768899918,-0.0695749968290329,0.010037500411272049
1750560852959652000,5.874652099609375,-0.023787500336766243,-0.10381250083446503,0.045512501150369644
1750560852969257000,5.884257080078125,-0.012787500396370888,-0.09281250089406967,0.07851249724626541
1750560852978861800,5.89386181640625,-0.010312499478459358,-0.04152499884366989,0.08208750188350677
1750560852988466400,5.903466552734375,-0.0042624999769032,0.018287500366568565,0.038087498396635056
1750560852998071300,5.9130712890625,0.006737499963492155,0.047712501138448715,-0.030249999836087227
1750560853007676200,5.92267626953125,0.009212499484419823,0.05128749832510948,-0.08153750002384186
1750560853017281000,5.932281005859375,-0.0017874999903142452,0.0317624993622303,-0.09624999761581421
1750560853026886000,5.941885986328125,-0.014024999924004078,0.0085249999538064,-0.0742499977350235
1750560853036490800,5.95149072265625,-0.017737500369548798,0.01223750039935112,-0.03753750026226044
1750560853046095400,5.961095458984375,-0.010312499478459358,0.032999999821186066,-0.01677500084042549
1750560853055700500,5.970700439453125,0.006737499963492155,0.059812501072883606,-0.01677500084042549
1750560853065305300,5.980305419921875,0.021449999883770943,0.0635249987244606,-0.027775000780820847
1750560853074910200,5.98991015625,0.026262499392032623,0.04399999976158142,-0.03519999980926514
1750560853084514800,5.999514892578125,0.022687500342726707,0.025712499395012856,-0.04124999791383743
1750560853094119700,6.00911962890625,0.020212499424815178,0.0037124999798834324,-0.04619999974966049
1750560853103724500,6.018724609375,0.011687500402331352,-0.018287500366568565,-0.05224999785423279
1750560853113329700,6.02832958984375,0.0030249999836087227,-0.00494999997317791,-0.05596249923110008
1750560853122934300,6.037934326171875,-0.014024999924004078,0.02681249938905239,-0.06201250106096268
1750560853132539100,6.0475390625,-0.02502499893307686,0.04152499884366989,-0.06324999779462814
1750560853142144000,6.05714404296875,-0.016499999910593033,0.02199999988079071,-0.03753750026226044
1750560853151748600,6.06674853515625,0.0006874999962747097,-0.007287499960511923,0.007562499959021807
1750560853161353700,6.076353759765625,0.005499999970197678,-0.028049999848008156,0.033275000751018524
1750560853170958600,6.08595849609375,-0.0042624999769032,-0.032999999821186066,0.03203750029206276
1750560853180563500,6.0955634765625,-0.015262499451637268,-0.020762499421834946,0.018562499433755875
1750560853190168300,6.105168212890625,-0.011549999937415123,-0.0037124999798834324,0.010037500411272049
1750560853199773000,6.11477294921875,0.009212499484419823,0.00976249948143959,0.008799999952316284
1750560853209378000,6.1243779296875,0.020212499424815178,0.023237500339746475,0.0002749999985098839
1750560853218983000,6.13398291015625,0.011687500402331352,0.04152499884366989,-0.014437500387430191
1750560853228587500,6.14358740234375,-0.007974999956786633,0.05623750016093254,-0.02419999986886978
1750560853238192400,6.1531923828125,-0.021312499418854713,0.032999999821186066,-0.025437500327825546
1750560853247797200,6.16279736328125,-0.014024999924004078,-0.020762499421834946,-0.007012499962002039
1750560853257402000,6.172402099609375,0.0030249999836087227,-0.057475000619888306,0.02956249937415123
1750560853267007000,6.182007080078125,0.009212499484419823,-0.04647500067949295,0.056512501090765
1750560853276611800,6.19161181640625,0.009212499484419823,0.0012374999932944775,0.0625625029206276
1750560853286216700,6.201216796875,0.012787500396370888,0.03904999792575836,0.040562499314546585
1750560853295821600,6.210821533203125,0.005499999970197678,0.030524998903274536,0.002749999985098839
1750560853305426400,6.220426513671875,-0.009074999950826168,0.020762499421834946,-0.03396249935030937
1750560853315031000,6.230031005859375,-0.018975000828504562,0.02199999988079071,-0.05829999968409538
1750560853324636000,6.239635986328125,-0.017737500369548798,0.015949999913573265,-0.04743750020861626
1750560853334240800,6.24924072265625,-0.007974999956786633,0.010999999940395355,-0.007012499962002039
1750560853343845600,6.258845703125,0.0042624999769032,0.007287499960511923,0.03451250120997429
1750560853353450500,6.268450439453125,0.021449999883770943,-0.00494999997317791,0.050324998795986176
1750560853363055400,6.278055419921875,0.04221250116825104,-0.01347499992698431,0.047987498342990875
1750560853372660000,6.287659912109375,0.05073750019073486,-0.0037124999798834324,0.04179999977350235
1750560853382264800,6.297264892578125,0.03368749842047691,0.01223750039935112,0.01732499897480011
1750560853391870000,6.306869873046875,0.011687500402331352,0.0170499999076128,-0.0057749999687075615
1750560853401474600,6.316474609375,-0.0017874999903142452,0.01223750039935112,-0.020487500354647636
1750560853411079400,6.326079345703125,-0.017737500369548798,-0.00976249948143959,-0.03272499889135361
1750560853420684300,6.335684326171875,-0.02502499893307686,-0.030524998903274536,-0.03753750026226044
1750560853430289200,6.3452890625,-0.027499999850988388,-0.045237500220537186,-0.027775000780820847
1750560853439894300,6.354894287109375,-0.022549999877810478,-0.04028749838471413,0.01732499897480011
1750560853449499000,6.364498779296875,-0.017737500369548798,-0.02681249938905239,0.06984999775886536
1750560853459103700,6.374103759765625,-0.006737499963492155,-0.0085249999538064,0.10532499849796295
1750560853468708400,6.383708251953125,0.015262499451637268,0.006049999967217445,0.11261250078678131
1750560853478313500,6.3933134765625,0.03244999796152115,0.023237500339746475,0.08332499861717224
1750560853487918300,6.40291845703125,0.03478749841451645,0.02928750030696392,0.02474999986588955
1750560853497523200,6.412523193359375,0.023787500336766243,0.018287500366568565,-0.0424874983727932
1750560853507127800,6.4221279296875,-0.0005499999970197678,-0.0085249999538064,-0.08648750185966492
1750560853516732700,6.431732666015625,-0.026262499392032623,-0.04028749838471413,-0.08030000329017639
1750560853526337500,6.441337646484375,-0.036024998873472214,-0.04028749838471413,-0.03519999980926514
1750560853535942700,6.450942626953125,-0.02502499893307686,-0.02199999988079071,0.010037500411272049
1750560853545547500,6.460547607421875,0.007974999956786633,-0.007287499960511923,0.035750001668930054
1750560853555152100,6.470152099609375,0.03478749841451645,0.01347499992698431,0.02956249937415123
1750560853564757000,6.479757080078125,0.05073750019073486,0.01952499896287918,-0.0057749999687075615
1750560853574361900,6.48936181640625,0.05444999784231186,0.01223750039935112,-0.04372499883174896
1750560853583966700,6.498966796875,0.04455000162124634,0.0012374999932944775,-0.05719999969005585
1750560853593571600,6.508571533203125,0.03244999796152115,0.01347499992698431,-0.04853750020265579
1750560853603176400,6.518176513671875,0.011687500402331352,0.045237500220537186,-0.03519999980926514
1750560853612781300,6.52778125,-0.0005499999970197678,0.05871250107884407,-0.009487500414252281
1750560853622386000,6.537385986328125,-0.036024998873472214,0.06228749826550484,0.01732499897480011
1750560853631990800,6.54699072265625,-0.11055000126361847,0.1050499975681305,0.05156249925494194
1750560853641595600,6.556595703125,-0.2633124887943268,0.24186250567436218,0.07603749632835388
1750560853651200800,6.56620068359375,-0.5979874730110168,0.48867499828338623,0.07975000143051147
1750560853660805400,6.575805419921875,-1.0988999605178833,0.6707249879837036,0.07232499867677689
1750560853670410200,6.58541015625,-1.8514374494552612,0.5974375009536743,0.11384999752044678
1750560853680014800,6.595014892578125,-2.7726874351501465,0.1405249983072281,0.29589998722076416
1750560853689620000,6.604619873046875,-3.6999874114990234,-0.7440124750137329,0.5304750204086304
1750560853699224800,6.614224853515625,-4.476999759674072,-1.6737874746322632,0.7760499715805054
1750560853708829700,6.62382958984375,-5.063300132751465,-2.5228500366210938,1.0008624792099
1750560853718434600,6.6334345703125,-5.495874881744385,-2.869762420654297,1.2073874473571777
1750560853728039200,6.6430390625,-5.544687271118164,-2.6853749752044678,1.4210624694824219
1750560853737644000,6.65264404296875,-5.170825004577637,-2.164799928665161,1.564062476158142
1750560853747249200,6.662249267578125,-4.454999923706055,-1.4172124862670898,1.5628249645233154
1750560853756853800,6.671853759765625,-3.564275026321411,-0.7953000068664551,1.3417249917984009
1750560853766458600,6.681458740234375,-2.7164499759674072,-0.41538751125335693,0.934862494468689
1750560853776063500,6.6910634765625,-2.0530123710632324,-0.17104999721050262,0.4534749984741211
1750560853785668600,6.700668701171875,-1.646287441253662,-0.045237500220537186,-0.03753750026226044
1750560853795273500,6.7102734375,-1.4262875318527222,0.05376249924302101,-0.5043500065803528
1750560853804878000,6.719878173828125,-1.203950047492981,0.10752499848604202,-0.8964999914169312
1750560853814483000,6.72948291015625,-0.8705124855041504,0.07452499866485596,-1.120074987411499
1750560853824088000,6.739088134765625,-0.42941248416900635,0.03423750028014183,-1.1053625345230103
1750560853833692700,6.748692626953125,0.03849999979138374,0.023237500339746475,-0.9233124852180481
1750560853843297500,6.758297607421875,0.522362470626831,0.025712499395012856,-0.6814500093460083
1750560853852902100,6.767902099609375,1.0696125030517578,0.0635249987244606,-0.4468750059604645
1750560853862507000,6.777507080078125,1.6377625465393066,0.2626250088214874,-0.267300009727478
1750560853872112000,6.787112060546875,2.213200092315674,0.5119125247001648,-0.1755875051021576
1750560853881717000,6.796717041015625,2.805687427520752,0.6219124794006348,-0.1597750037908554
1750560853891321900,6.80632177734375,3.350600004196167,0.5424374938011169,-0.2110625058412552
1750560853900926500,6.815926513671875,3.8110873699188232,0.2700499892234802,-0.32106250524520874
1750560853910531300,6.82553125,4.1606125831604,0.047712501138448715,-0.5066875219345093
1750560853920136200,6.83513623046875,4.37318754196167,0.14904999732971191,-0.8232125043869019
1750560853929741000,6.844740966796875,4.410999774932861,0.5619624853134155,-1.265412449836731
1750560853939346000,6.854345947265625,4.092137336730957,1.1593999862670898,-1.744325041770935
1750560853948950800,6.86395068359375,3.475174903869629,1.6920750141143799,-2.0619499683380127
1750560853958555600,6.8735556640625,2.8094000816345215,1.7250750064849854,-2.075424909591675
1750560853968160300,6.88316015625,2.3317248821258545,1.1643500328063965,-1.7162749767303467
1750560853977765000,6.89276513671875,2.013962507247925,0.3713875114917755,-1.0833624601364136
1750560853987370000,6.902369873046875,1.6695250272750854,-0.14904999732971191,-0.46392500400543213
1750560853996974600,6.911974609375,1.269950032234192,-0.2798124849796295,-0.0681999996304512
1750560854006579700,6.921579833984375,0.8325625061988831,-0.1722874939441681,0.08332499861717224
1750560854016184600,6.9311845703125,0.4478375017642975,-0.1050499975681305,0.13832500576972961
1750560854025789400,6.94078955078125,0.22907499969005585,-0.19304999709129333,0.24213749170303345
1750560854035394300,6.950394287109375,0.16307500004768372,-0.3433375060558319,0.4059000015258789
1750560854044999000,6.9599990234375,0.16431249678134918,-0.4288625121116638,0.527999997138977
1750560854054603800,6.969603759765625,0.17173749208450317,-0.3763374984264374,0.527999997138977
1750560854064208600,6.979208740234375,0.17531250417232513,-0.19304999709129333,0.4241875112056732
1750560854073813500,6.9888134765625,0.1667875051498413,0.08304999768733978,0.2616625130176544
1750560854083418400,6.99841845703125,0.17407499253749847,0.340862512588501,0.10903749614953995
1750560854093023200,7.008023193359375,0.19249999523162842,0.4496249854564667,0.021037500351667404
1750560854102628000,7.017628173828125,0.18150000274181366,0.44591251015663147,0.010037500411272049
1750560854112232700,7.027232666015625,0.13997499644756317,0.3811500072479248,0.055275000631809235
1750560854121837600,7.036837646484375,0.0849749967455864,0.27486249804496765,0.11508750170469284
1750560854131442400,7.0464423828125,0.017737500369548798,0.14904999732971191,0.14685000479221344
1750560854141047300,7.05604736328125,-0.04207500070333481,0.0170499999076128,0.15661250054836273
1750560854150652200,7.065652099609375,-0.07383749634027481,-0.07452499866485596,0.15427500009536743
1750560854160257000,7.075257080078125,-0.0775500014424324,-0.12209999561309814,0.15427500009536743
1750560854169861600,7.084861572265625,-0.07026249915361404,-0.14533749222755432,0.16032500565052032
1750560854179466500,7.094466552734375,-0.045787498354911804,-0.1050499975681305,0.15537500381469727
1750560854189071600,7.104071533203125,0.005499999970197678,0.0085249999538064,0.12361250072717667
1750560854198676200,7.11367626953125,0.08249999582767487,0.12581250071525574,0.04908749833703041
1750560854208281000,7.123281005859375,0.1350249946117401,0.18809999525547028,-0.05472499877214432
1750560854217886000,7.132885986328125,0.14354999363422394,0.1905750036239624,-0.12430000305175781
1750560854227490800,7.14249072265625,0.13750000298023224,0.11852499842643738,-0.12430000305175781
1750560854237095700,7.152095703125,0.12155000120401382,-0.010999999940395355,-0.04977500066161156
1750560854246700500,7.161700439453125,0.09102500230073929,-0.17104999721050262,0.06751249730587006
1750560854256305400,7.171305419921875,0.05555000156164169,-0.273624986410141,0.16513749957084656
1750560854265910000,7.180909912109375,0.02502499893307686,-0.25533750653266907,0.1835625022649765
1750560854275515000,7.190514892578125,-0.0017874999903142452,-0.15152500569820404,0.11879999935626984
1750560854285119700,7.20011962890625,-0.009074999950826168,-0.0147124994546175,0.018562499433755875
1750560854294724600,7.209724609375,0.011687500402331352,0.08428750187158585,-0.0742499977350235
1750560854304329700,7.219329833984375,0.028737500309944153,0.15028749406337738,-0.13653749227523804
1750560854313934300,7.228934326171875,0.04221250116825104,0.16128750145435333,-0.14877499639987946
1750560854323539200,7.238539306640625,0.060499999672174454,0.12581250071525574,-0.11096250265836716
1750560854333143800,7.248143798828125,0.08002500236034393,0.04881250113248825,-0.03396249935030937
1750560854342748700,7.257748779296875,0.09226249903440475,-0.054999999701976776,0.055275000631809235
1750560854352353500,7.267353515625,0.08249999582767487,-0.12099999934434891,0.1163249984383583
1750560854361958700,7.276958740234375,0.031212499365210533,-0.09652499854564667,0.1163249984383583
1750560854371563300,7.286563232421875,-0.03849999979138374,-0.0147124994546175,0.05403750017285347
1750560854381168000,7.296168212890625,-0.09350000321865082,0.08799999952316284,-0.0387750007212162
1750560854390773000,7.30577294921875,-0.12526249885559082,0.13928750157356262,-0.1120624989271164
1750560854400377900,7.3153779296875,-0.12031249701976776,0.0989999994635582,-0.12925000488758087
1750560854409982700,7.324982666015625,-0.07878749817609787,0.02928750030696392,-0.08030000329017639
1750560854419587600,7.334587646484375,-0.026262499392032623,-0.028049999848008156,0.01732499897480011
1750560854429192400,7.3441923828125,0.0006874999962747097,-0.05376249924302101,0.10903749614953995
1750560854438797300,7.35379736328125,0.0030249999836087227,-0.08181250095367432,0.1615625023841858
1750560854448402000,7.36340185546875,-0.010312499478459358,-0.09157499670982361,0.1676124930381775
1750560854458006800,7.3730068359375,-0.03478749841451645,-0.059812501072883606,0.1260875016450882
1750560854467611600,7.382611572265625,-0.0518375001847744,0.0170499999076128,0.040562499314546585
1750560854477216500,7.392216552734375,-0.0494999997317791,0.0989999994635582,-0.05596249923110008
1750560854486821400,7.4018212890625,-0.03355000168085098,0.11123749613761902,-0.12430000305175781
1750560854496426200,7.41142626953125,-0.0042624999769032,0.06228749826550484,-0.12306249886751175
1750560854506030800,7.42103076171875,0.022687500342726707,0.01347499992698431,-0.06201250106096268
1750560854515635700,7.4306357421875,0.04097500070929527,-0.006049999967217445,0.028324998915195465
1750560854525240800,7.44024072265625,0.03726249933242798,0.00976249948143959,0.10161250084638596
1750560854534845700,7.449845703125,0.020212499424815178,0.03671250119805336,0.11879999935626984
1750560854544450300,7.4594501953125,-0.015262499451637268,0.07204999774694443,0.07727500051259995
1750560854554055200,7.46905517578125,-0.05431250110268593,0.08304999768733978,0.023512499406933784
1750560854563660000,7.478659912109375,-0.09102500230073929,0.0635249987244606,-0.021724998950958252
1750560854573264600,7.4882646484375,-0.12526249885559082,0.01347499992698431,-0.04372499883174896
1750560854582869800,7.497869873046875,-0.12759999930858612,-0.06228749826550484,-0.01924999989569187
1750560854592474400,7.507474365234375,-0.10078749805688858,-0.11123749613761902,0.038087498396635056
1750560854602079500,7.51707958984375,-0.06283749639987946,-0.10257499665021896,0.09308750182390213
1750560854611684000,7.52668408203125,-0.017737500369548798,-0.054999999701976776,0.11261250078678131
1750560854621289000,7.5362890625,0.020212499424815178,0,0.09556250274181366
1750560854630893800,7.545893798828125,0.0494999997317791,0.03671250119805336,0.06132499873638153
1750560854640498700,7.555498779296875,0.07026249915361404,0.02928750030696392,0.02227500081062317
1750560854650103600,7.565103515625,0.06655000150203705,0.006049999967217445,-0.011962499469518661
1750560854659708400,7.57470849609375,0.036024998873472214,0.0012374999932944775,-0.04372499883174896
1750560854669313300,7.584313232421875,0.0030249999836087227,0.0317624993622303,-0.08524999767541885
1750560854678918000,7.59391796875,-0.017737500369548798,0.08552499860525131,-0.12196250259876251
1750560854688522800,7.603522705078125,-0.016499999910593033,0.08799999952316284,-0.1280124932527542
1750560854698127600,7.613127685546875,0.012787500396370888,0.028049999848008156,-0.07672499865293503
1750560854707732700,7.622732666015625,0.04221250116825104,-0.06228749826550484,0.01251249946653843
1750560854717337300,7.63233740234375,0.05321250110864639,-0.10752499848604202,0.08703749626874924
1750560854726942200,7.641942138671875,0.06297499686479568,-0.07699999958276749,0.0943249985575676
1750560854736547000,7.651547119140625,0.06655000150203705,-0.0012374999932944775,0.043037500232458115
1750560854746152000,7.66115185546875,0.06297499686479568,0.09281250089406967,-0.02419999986886978
1750560854755756800,7.6707568359375,0.05678749829530716,0.12223749607801437,-0.08524999767541885
1750560854765361700,7.680361572265625,0.05321250110864639,0.10023749619722366,-0.1120624989271164
1750560854774966500,7.689966552734375,0.04455000162124634,0.05623750016093254,-0.10353749990463257
1750560854784571100,7.699571044921875,0.028737500309944153,-0.002474999986588955,-0.06077500060200691
1750560854794176000,7.709176025390625,0.006737499963492155,-0.028049999848008156,0.007562499959021807
1750560854803780900,7.71878076171875,-0.0042624999769032,-0.01347499992698431,0.07356250286102295
1750560854813385700,7.7283857421875,0.0017874999903142452,0.01952499896287918,0.09556250274181366
1750560854822990600,7.737990478515625,0.020212499424815178,0.032999999821186066,0.06627500057220459
1750560854832595500,7.747595458984375,0.029975000768899918,0.03671250119805336,0.014987500384449959
1750560854842200000,7.757199951171875,0.03244999796152115,0.04647500067949295,-0.030249999836087227
1750560854851805000,7.766804931640625,0.023787500336766243,0.05376249924302101,-0.06929999589920044
1750560854861410000,7.77641015625,0.007974999956786633,0.0317624993622303,-0.09253749996423721
1750560854871015000,7.786014892578125,0.0030249999836087227,0.0085249999538064,-0.08772499859333038
1750560854880619500,7.79561962890625,0.017737500369548798,0.01223750039935112,-0.05953750014305115
1750560854890224400,7.805224365234375,0.04097500070929527,0.025712499395012856,-0.021724998950958252
1750560854899829200,7.814829345703125,0.06297499686479568,0.0317624993622303,0.025987500324845314
1750560854909433900,7.824433837890625,0.06544999778270721,0.02199999988079071,0.056512501090765
1750560854919039000,7.8340390625,0.05321250110864639,-0.00494999997317791,0.057750001549720764
1750560854928643800,7.843643798828125,0.022687500342726707,-0.03671250119805336,0.038087498396635056
1750560854938248700,7.853248779296875,-0.009074999950826168,-0.06599999964237213,0.01979999989271164
1750560854947853300,7.862853271484375,-0.020075000822544098,-0.05623750016093254,0.014987500384449959
1750560854957458200,7.872458251953125,-0.0017874999903142452,-0.00976249948143959,-0.0009624999947845936
1750560854967063300,7.882063232421875,0.029975000768899918,0.0317624993622303,-0.0387750007212162
1750560854976668200,7.891668212890625,0.04702499881386757,0.08057499676942825,-0.08648750185966492
1750560854986272800,7.901272705078125,0.04702499881386757,0.12099999934434891,-0.11096250265836716
1750560854995877600,7.910877685546875,0.03973750025033951,0.09776250272989273,-0.1023000031709671
1750560855005482500,7.920482421875,0.02502499893307686,0.01223750039935112,-0.05472499877214432
1750560855015087400,7.93008740234375,0.007974999956786633,-0.07328750193119049,0.01251249946653843
1750560855024692200,7.939692138671875,-0.010312499478459358,-0.11233749985694885,0.06627500057220459
1750560855034297000,7.949297119140625,-0.022549999877810478,-0.0952875018119812,0.08084999769926071
1750560855043902000,7.95890185546875,-0.020075000822544098,-0.042762499302625656,0.05403750017285347
1750560855053506600,7.968506591796875,0.0017874999903142452,0.02447500079870224,0.01251249946653843
1750560855063111400,7.978111328125,0.016499999910593033,0.08057499676942825,-0.029012499377131462
1750560855072716300,7.98771630859375,0.022687500342726707,0.11233749985694885,-0.05348749831318855
1750560855082321200,7.997321044921875,0.015262499451637268,0.0989999994635582,-0.06077500060200691
1750560855091926000,8.006926025390625,-0.0042624999769032,0.045237500220537186,-0.05596249923110008
1750560855101531000,8.01653076171875,-0.027499999850988388,-0.03671250119805336,-0.0364375002682209
1750560855111135700,8.0261357421875,-0.05073750019073486,-0.11233749985694885,0.0015124999918043613
1750560855120740600,8.03574072265625,-0.07026249915361404,-0.14657500386238098,0.040562499314546585
1750560855130345200,8.04534521484375,-0.06531249731779099,-0.0952875018119812,0.056512501090765
1750560855139950300,8.054950439453124,-0.04207500070333481,0,0.033275000751018524
1750560855149555000,8.064554931640625,-0.011549999937415123,0.08799999952316284,-0.008249999955296516
1750560855159159800,8.074159912109375,0.021449999883770943,0.1270499974489212,-0.0424874983727932
1750560855168764700,8.0837646484375,0.05444999784231186,0.09404999762773514,-0.04496249929070473
1750560855178369300,8.093369384765625,0.0812624990940094,0.02447500079870224,-0.008249999955296516
1750560855187974400,8.102974365234376,0.07878749817609787,-0.028049999848008156,0.050324998795986176
1750560855197579300,8.112579345703125,0.06902500241994858,-0.054999999701976776,0.11151249706745148
1750560855207184100,8.12218408203125,0.06778749823570251,-0.06228749826550484,0.1518000066280365
1750560855216788700,8.131788818359375,0.05678749829530716,-0.045237500220537186,0.14079999923706055
1750560855226393600,8.1413935546875,0.03726249933242798,-0.01952499896287918,0.07851249724626541
1750560855235998500,8.15099853515625,0.011687500402331352,-0.0012374999932944775,0.005224999971687794
1750560855245603300,8.160603271484375,-0.0042624999769032,0.007287499960511923,-0.05101250112056732
1750560855255208200,8.170208251953126,-0.009074999950826168,0.002474999986588955,-0.08030000329017639
1750560855264813000,8.17981298828125,0.0006874999962747097,0.0037124999798834324,-0.08401250094175339
1750560855274417700,8.189417724609376,0.020212499424815178,0.01347499992698431,-0.05829999968409538
1750560855284022800,8.199022705078125,0.05197500064969063,0.032999999821186066,-0.01677500084042549
1750560855293627400,8.20862744140625,0.08002500236034393,0.04881250113248825,0.023512499406933784
1750560855303232300,8.218232177734375,0.08373750001192093,0.03904999792575836,0.04179999977350235
1750560855312837000,8.227837158203124,0.060499999672174454,0.010999999940395355,0.02474999986588955
1750560855322442000,8.23744189453125,0.021449999883770943,-0.0085249999538064,-0.018012499436736107
1750560855332046800,8.247046875,-0.009074999950826168,-0.015812499448657036,-0.0644875019788742
1750560855341651500,8.2566513671875,-0.022549999877810478,-0.02681249938905239,-0.09006249904632568
1750560855351256300,8.26625634765625,-0.023787500336766243,-0.0317624993622303,-0.08277499675750732
1750560855360861400,8.275861328125,-0.015262499451637268,-0.023237500339746475,-0.05953750014305115
1750560855370466000,8.285466064453125,-0.010312499478459358,-0.01223750039935112,-0.04496249929070473
1750560855380071000,8.29507080078125,-0.0017874999903142452,-0.0012374999932944775,-0.03519999980926514
1750560855389675800,8.30467578125,0.0042624999769032,0.018287500366568565,-0.04124999791383743
1750560855399280600,8.31428076171875,0.006737499963492155,0.02928750030696392,-0.05472499877214432
1750560855408885500,8.323885498046875,0.005499999970197678,0.02928750030696392,-0.05472499877214432
1750560855418490400,8.333490478515625,0.0042624999769032,0.006049999967217445,-0.04496249929070473
1750560855428095000,8.343094970703126,0.0042624999769032,-0.02681249938905239,-0.03272499889135361
1750560855437699800,8.352699951171875,0.0042624999769032,-0.035475000739097595,-0.030249999836087227
1750560855447304700,8.3623046875,0.005499999970197678,-0.030524998903274536,-0.0364375002682209
1750560855456909600,8.37190966796875,0.012787500396370888,-0.01223750039935112,-0.03753750026226044
1750560855466514400,8.381514404296874,0.018975000828504562,0.015949999913573265,-0.03396249935030937
1750560855476119000,8.391119140625,0.02502499893307686,0.02681249938905239,-0.025437500327825546
1750560855485724200,8.40072412109375,0.03368749842047691,0.028049999848008156,-0.008249999955296516
1750560855495329000,8.4103291015625,0.045787498354911804,0.020762499421834946,0.008799999952316284
1750560855504934000,8.419933837890625,0.06297499686479568,0.010999999940395355,0.021037500351667404
1750560855514538500,8.42953857421875,0.05926249921321869,0.0085249999538064,0.016224998980760574
1750560855524143400,8.439143310546875,0.03726249933242798,-0.002474999986588955,0.006324999965727329
1750560855533748200,8.448748291015624,0.018975000828504562,-0.02199999988079071,0.02474999986588955
1750560855543353000,8.45835302734375,-0.0030249999836087227,-0.04028749838471413,0.07232499867677689
1750560855552958000,8.4679580078125,-0.010312499478459358,-0.035475000739097595,0.1260875016450882
1750560855562562800,8.477562744140625,-0.0017874999903142452,-0.0012374999932944775,0.1443749964237213
1750560855572167700,8.487167724609375,0.016499999910593033,0.0317624993622303,0.10903749614953995
1750560855581772300,8.496772216796876,0.036024998873472214,0.05252499878406525,0.04427500069141388
1750560855591377400,8.50637744140625,0.04702499881386757,0.04647500067949295,-0.008249999955296516
1750560855600982300,8.515982177734376,0.03973750025033951,0.0147124994546175,-0.029012499377131462
1750560855610587000,8.5255869140625,0.017737500369548798,-0.02681249938905239,-0.009487500414252281
1750560855620191700,8.535191650390624,-0.009074999950826168,-0.05128749832510948,0.03932499885559082
1750560855629796600,8.544796630859375,-0.028737500309944153,-0.035475000739097595,0.08084999769926071
1750560855639401500,8.5544013671875,-0.03478749841451645,-0.010999999940395355,0.07603749632835388
1750560855649006300,8.56400634765625,-0.029975000768899918,0.00976249948143959,0.033275000751018524
1750560855658611200,8.573611083984375,-0.03231250122189522,0.042762499302625656,-0.026537500321865082
1750560855668215800,8.5832158203125,-0.021312499418854713,0.06847500056028366,-0.05719999969005585
1750560855677820700,8.592820556640625,-0.0030249999836087227,0.05376249924302101,-0.05472499877214432
1750560855687425500,8.602425537109376,0.015262499451637268,-0.01347499992698431,-0.0364375002682209
1750560855697030400,8.612030517578125,0.027499999850988388,-0.057475000619888306,-0.004674999974668026
1750560855706635300,8.62163525390625,0.029975000768899918,-0.0635249987244606,0.013749999925494194
1750560855716240100,8.631240234375,0.028737500309944153,-0.04647500067949295,0.01251249946653843
1750560855725845000,8.640844970703125,0.026262499392032623,-0.007287499960511923,-0.0057749999687075615
1750560855735449900,8.650449951171876,0.028737500309944153,-0.0037124999798834324,-0.022962499409914017
1750560855745054500,8.660054443359375,0.020212499424815178,-0.023237500339746475,0.005224999971687794
1750560855754659300,8.669659423828126,0.011687500402331352,-0.05252499878406525,0.07479999959468842
1750560855764264400,8.679264404296875,0.0042624999769032,-0.0989999994635582,0.1297999918460846
1750560855773869300,8.688869384765624,-0.007974999956786633,-0.11728750169277191,0.15537500381469727
1750560855783474000,8.698473876953125,-0.04207500070333481,-0.08428750187158585,0.13832500576972961
1750560855793078800,8.708078857421874,-0.11302500218153,-0.010999999940395355,0.11508750170469284
1750560855802683600,8.71768359375,-0.2938374876976013,0.0695749968290329,0.09927500039339066
1750560855812288500,8.72728857421875,-0.6676999926567078,0.13805000483989716,0.09184999763965607
1750560855821893400,8.736893310546876,-1.1379499435424805,0.14176249504089355,0.12251249700784683
1750560855831498200,8.746498291015625,-1.6438125371932983,0.2040500044822693,0.19813749194145203
1750560855841102800,8.756102783203126,-2.100724935531616,0.37991249561309814,0.31542500853538513
1750560855850707700,8.765707763671875,-2.577162504196167,0.1942874938249588,0.4534749984741211
1750560855860312300,8.775312255859374,-3.1476500034332275,-0.4544374942779541,0.6342874765396118
1750560855869917400,8.78491748046875,-3.8563249111175537,-1.3134000301361084,0.8310499787330627
1750560855879522300,8.794522216796874,-4.594150066375732,-1.9351749420166016,1.0375750064849854
1750560855889127200,8.804127197265625,-5.076775074005127,-2.2100374698638916,1.1951500177383423
1750560855898731800,8.813731689453125,-5.21482515335083,-2.141700029373169,1.2537250518798828
1750560855908336600,8.823336669921876,-5.053537368774414,-1.8166500329971313,1.2342000007629395
1750560855917941500,8.83294140625,-4.7286248207092285,-1.485550045967102,1.1131999492645264
1750560855927546600,8.842546630859376,-4.269237518310547,-1.1459250450134277,0.9031000137329102
1750560855937151200,8.852151123046875,-3.6192750930786133,-0.8245875239372253,0.6807624697685242
1750560855946756000,8.861756103515624,-2.853262424468994,-0.5791500210762024,0.5072374939918518
1750560855956361000,8.87136083984375,-2.0530123710632324,-0.42391249537467957,0.39489999413490295
1750560855965965600,8.880965576171874,-1.269950032234192,-0.44110000133514404,0.28737500309944153
1750560855975570700,8.89057080078125,-0.5931749939918518,-0.45196250081062317,0.12251249700784683
1750560855985175600,8.900175537109375,-0.08483749628067017,-0.404387503862381,-0.08277499675750732
1750560855994780400,8.909780517578126,0.295074999332428,-0.32257500290870667,-0.26001250743865967
1750560856004385000,8.919385009765625,0.635937511920929,-0.1868624985218048,-0.34911251068115234
1750560856013990000,8.928989990234374,0.981612503528595,0.010999999940395355,-0.3564000129699707
1750560856023594800,8.9385947265625,1.3103749752044678,0.1307625025510788,-0.34540000557899475
1750560856033199600,8.94819970703125,1.6853375434875488,0.0695749968290329,-0.3063499927520752
1750560856042804500,8.957804443359375,2.1434874534606934,-0.08923749625682831,-0.26358750462532043
1750560856052409300,8.967409423828125,2.685925006866455,-0.21752500534057617,-0.26001250743865967
1750560856062014000,8.977013916015625,3.2075998783111572,-0.19910000264644623,-0.3515875041484833
1750560856071618800,8.986618896484375,3.572937488555908,-0.042762499302625656,-0.5506874918937683
1750560856081223700,8.9962236328125,3.8673250675201416,0.1331000030040741,-0.7889750003814697
1750560856090828500,9.00582861328125,4.033562660217285,0.1685750037431717,-1.0870749950408936
1750560856100433400,9.015433349609374,3.960137367248535,0.38609999418258667,-1.3729374408721924
1750560856110038300,9.025038330078125,3.7305123805999756,1.0396374464035034,-1.6220874786376953
1750560856119643100,9.03464306640625,3.301650047302246,1.6578375101089478,-1.8335624933242798
1750560856129247700,9.044247802734375,2.734874963760376,1.7751250267028809,-1.8298499584197998
1750560856138852600,9.0538525390625,2.247299909591675,1.272974967956543,-1.4584624767303467
1750560856148457500,9.06345751953125,1.8576250076293945,0.4398624897003174,-0.7950249910354614
1750560856158062600,9.0730625,1.541237473487854,-0.30057498812675476,-0.09501250088214874
1750560856167667200,9.082667236328126,1.2431374788284302,-0.5912500023841858,0.36918750405311584
1750560856177272000,9.09227197265625,0.8680375218391418,-0.39586248993873596,0.5219500064849854
1750560856186877000,9.101876953125,0.4758875072002411,-0.057475000619888306,0.466949999332428
1750560856196481500,9.1114814453125,0.19607499241828918,0.07204999774694443,0.3741374909877777
1750560856206086700,9.121086669921874,0.06173750013113022,0.03671250119805336,0.3460874855518341
1750560856215691500,9.13069140625,0.016499999910593033,0.037812501192092896,0.3546124994754791
1750560856225296400,9.14029638671875,0.0494999997317791,0.16733749210834503,0.33137500286102295
1750560856234901200,9.1499013671875,0.15578749775886536,0.3335750102996826,0.2593249976634979
1750560856244505900,9.159505859375,0.2975499927997589,0.4386250078678131,0.17861250042915344
1750560856254110700,9.16911083984375,0.36465001106262207,0.4739624857902527,0.11027500033378601
1750560856263715600,9.178715576171875,0.32807499170303345,0.4581499993801117,0.06751249730587006
1750560856273320400,9.188320556640624,0.2303124964237213,0.37014999985694885,0.06751249730587006
1750560856282925300,9.19792529296875,0.09350000321865082,0.2480500042438507,0.12732499837875366
1750560856292530000,9.207530029296874,-0.03849999979138374,0.12099999934434891,0.21779999136924744
1750560856302134800,9.217134765625,-0.11055000126361847,0.025712499395012856,0.27156248688697815
1750560856311739600,9.22673974609375,-0.12636250257492065,-0.0147124994546175,0.25437501072883606
1750560856321344500,9.236344482421876,-0.11659999936819077,-0.0170499999076128,0.19085000455379486
1750560856330949400,9.245949462890625,-0.07631249725818634,-0.0012374999932944775,0.1260875016450882
1750560856340554200,9.25555419921875,-0.015262499451637268,0.025712499395012856,0.08084999769926071
1750560856350158800,9.265158935546875,0.04097500070929527,0.035475000739097595,0.07479999959468842
1750560856359763700,9.274763671875,0.09102500230073929,0.07204999774694443,0.09803749620914459
1750560856369368600,9.28436865234375,0.13626250624656677,0.13199999928474426,0.09556250274181366
1750560856378973700,9.2939736328125,0.1508374959230423,0.16376249492168427,0.035750001668930054
1750560856388578600,9.30357861328125,0.13378749787807465,0.14409999549388885,-0.0424874983727932
1750560856398183200,9.31318310546875,0.10202500224113464,0.07699999958276749,-0.09006249904632568
1750560856407788000,9.3227880859375,0.06902500241994858,-0.01347499992698431,-0.09748750180006027
1750560856417393000,9.332392822265625,0.04702499881386757,-0.08676250278949738,-0.05953750014305115
1750560856426997800,9.341997802734374,0.045787498354911804,-0.0989999994635582,0.016224998980760574
1750560856436602400,9.351602294921875,0.07397499680519104,-0.05857500061392784,0.09679999947547913
1750560856446207500,9.36120751953125,0.11178749799728394,0.01347499992698431,0.1443749964237213
1750560856455812400,9.370812255859375,0.141075000166893,0.0672374963760376,0.13956250250339508
1750560856465417000,9.3804169921875,0.16183750331401825,0.07699999958276749,0.0943249985575676
1750560856475022000,9.39002197265625,0.15702499449253082,0.047712501138448715,0.04675000160932541
1750560856484626700,9.399626708984375,0.1313125044107437,-0.007287499960511923,0.030799999833106995
1750560856494231600,9.4092314453125,0.09955000132322311,-0.0989999994635582,0.040562499314546585
1750560856503836400,9.41883642578125,0.06655000150203705,-0.17710000276565552,0.08951249718666077
1750560856513441000,9.42844091796875,0.03973750025033951,-0.1845249980688095,0.1578499972820282
1750560856523046000,9.4380458984375,0.022687500342726707,-0.10257499665021896,0.18713749945163727
1750560856532650800,9.447650634765624,0.021449999883770943,0.02681249938905239,0.16403749585151672
1750560856542255600,9.457255615234375,0.05321250110864639,0.10023749619722366,0.10903749614953995
1750560856551860500,9.466860595703125,0.09955000132322311,0.0989999994635582,0.06132499873638153
1750560856561465300,9.47646533203125,0.1387374997138977,0.04881250113248825,0.05884999781847
1750560856571070000,9.486070068359375,0.13997499644756317,0.0085249999538064,0.06132499873638153
1750560856580674800,9.4956748046875,0.09955000132322311,0.015949999913573265,0.02474999986588955
1750560856590279700,9.50527978515625,0.06173750013113022,0.028049999848008156,-0.026537500321865082
1750560856599884500,9.514884521484374,0.036024998873472214,0.037812501192092896,-0.06077500060200691
1750560856609489400,9.524489501953125,0.006737499963492155,0.04028749838471413,-0.07301250100135803
1750560856619094300,9.53409423828125,-0.011549999937415123,0.037812501192092896,-0.05596249923110008
1750560856628699100,9.54369921875,-0.010312499478459358,0.010999999940395355,-0.020487500354647636
1750560856638304000,9.553303955078125,-0.006737499963492155,-0.01952499896287918,0.01979999989271164
1750560856647908600,9.56290869140625,0.010449999943375587,-0.018287500366568565,0.050324998795986176
1750560856657513700,9.572513671875,0.03849999979138374,0.015949999913573265,0.04179999977350235
1750560856667118600,9.58211865234375,0.07397499680519104,0.06104999780654907,-0.011962499469518661
1750560856676723500,9.591723388671875,0.10821250081062317,0.09404999762773514,-0.08030000329017639
1750560856686328000,9.601328125,0.12031249701976776,0.11976250261068344,-0.15729999542236328
1750560856695933000,9.610932861328125,0.09226249903440475,0.14409999549388885,-0.21230000257492065
1750560856705537800,9.620537841796875,0.04702499881386757,0.16376249492168427,-0.21834999322891235
1750560856715143000,9.630142822265626,0.016499999910593033,0.12828749418258667,-0.17201249301433563
1750560856724747500,9.63974755859375,0.017737500369548798,0.0672374963760376,-0.08401250094175339
1750560856734352400,9.649352294921876,0.03849999979138374,-0.01223750039935112,0.01251249946653843
1750560856743957000,9.65895703125,0.07397499680519104,-0.08552499860525131,0.0882750004529953
1750560856753561900,9.668561767578124,0.09721250087022781,-0.11357499659061432,0.11151249706745148
1750560856763166700,9.678166748046875,0.0849749967455864,-0.05376249924302101,0.08332499861717224
1750560856772771600,9.687771484375,0.06173750013113022,0.03904999792575836,0.03203750029206276
1750560856782376400,9.69737646484375,0.031212499365210533,0.08304999768733978,-0.021724998950958252
1750560856791981000,9.70698095703125,0.006737499963492155,0.0952875018119812,-0.0681999996304512
1750560856801586000,9.7165859375,0.007974999956786633,0.10999999940395355,-0.11096250265836716
1750560856811190800,9.726190673828125,0.03478749841451645,0.15757499635219574,-0.14506250619888306
1750560856820795600,9.735795654296876,0.0775500014424324,0.17833749949932098,-0.15482500195503235
1750560856830400500,9.745400390625,0.11797499656677246,0.14781250059604645,-0.1280124932527542
1750560856840005400,9.75500537109375,0.148499995470047,0.0952875018119812,-0.06201250106096268
1750560856849610200,9.7646103515625,0.1667875051498413,0.04028749838471413,0.033275000751018524
1750560856859215000,9.774215087890624,0.1387374997138977,-0.020762499421834946,0.09927500039339066
1750560856868819700,9.78381982421875,0.08373750001192093,-0.07452499866485596,0.11756250262260437
1750560856878424600,9.793424560546875,0.027499999850988388,-0.07947500050067902,0.09184999763965607
1750560856888029700,9.80302978515625,-0.018975000828504562,-0.0672374963760376,0.047987498342990875
1750560856897634600,9.812634521484375,-0.04331250116229057,-0.035475000739097595,0.014987500384449959
1750560856907239200,9.8222392578125,-0.048262499272823334,-0.01223750039935112,-0.002199999988079071
1750560856916844000,9.831843994140625,-0.031075000762939453,0.010999999940395355,0.0015124999918043613
1750560856926448600,9.84144873046875,0.006737499963492155,0.07576250284910202,0.013749999925494194
1750560856936053800,9.8510537109375,0.05444999784231186,0.12333749979734421,0.013749999925494194
1750560856945658600,9.86065869140625,0.08621250092983246,0.10876250267028809,-0.004674999974668026
1750560856955263500,9.870263427734375,0.0873124971985817,0.06599999964237213,-0.03396249935030937
1750560856964868000,9.8798681640625,0.05197500064969063,0.037812501192092896,-0.06201250106096268
1750560856974473000,9.889472900390626,0.0006874999962747097,0.018287500366568565,-0.07177499681711197
1750560856984077800,9.899077880859375,-0.03478749841451645,-0.015812499448657036,-0.04977500066161156
1750560856993682700,9.9086826171875,-0.03726249933242798,-0.054999999701976776,-0.009487500414252281
1750560857003287300,9.918287353515625,-0.020075000822544098,-0.08181250095367432,0.025987500324845314
1750560857012892400,9.927892333984374,0.0017874999903142452,-0.07081250101327896,0.050324998795986176
1750560857022497000,9.9374970703125,0.020212499424815178,-0.025712499395012856,0.05156249925494194
1750560857032102000,9.947101806640624,0.03368749842047691,0.06104999780654907,0.01732499897480011
1750560857041706800,9.956706787109376,0.048262499272823334,0.15399999916553497,-0.0364375002682209
1750560857051311400,9.966311279296875,0.04455000162124634,0.18328750133514404,-0.09377499669790268
1750560857060916200,9.975916259765626,0.03478749841451645,0.13557499647140503,-0.12196250259876251
1750560857070521300,9.985521240234375,0.023787500336766243,0.06476250290870667,-0.11329999566078186
1750560857080126200,9.995126220703124,0.010449999943375587,0,-0.07548750191926956
1750560857089730800,10.004730712890625,-0.005499999970197678,-0.04152499884366989,-0.011962499469518661
1750560857099335700,10.014335693359374,-0.017737500369548798,-0.06104999780654907,0.04675000160932541
1750560857108940500,10.0239404296875,-0.011549999937415123,-0.0317624993622303,0.06751249730587006
1750560857118545700,10.033545654296875,0.009212499484419823,0.035475000739097595,0.035750001668930054
1750560857128150300,10.043150390625,0.03726249933242798,0.07947500050067902,-0.026537500321865082
1750560857137755100,10.052755126953125,0.05197500064969063,0.09281250089406967,-0.06696250289678574
1750560857147359700,10.06235986328125,0.04702499881386757,0.057475000619888306,-0.05953750014305115
1750560857156964900,10.07196484375,0.015262499451637268,-0.01223750039935112,-0.018012499436736107
1750560857166569700,10.08156982421875,-0.022549999877810478,-0.06228749826550484,0.04179999977350235
1750560857176174300,10.09117431640625,-0.03726249933242798,-0.07204999774694443,0.08703749626874924
1750560857185779200,10.100779296875,-0.026262499392032623,-0.057475000619888306,0.10408750176429749
1750560857195384000,10.110384033203125,0.005499999970197678,-0.037812501192092896,0.09679999947547913
1750560857204989000,10.119989013671875,0.04702499881386757,0.007287499960511923,0.08084999769926071
1750560857214593800,10.12959375,0.08249999582767487,0.0635249987244606,0.055275000631809235
1750560857224198700,10.13919873046875,0.09350000321865082,0.10628750175237656,0.021037500351667404
1750560857233803500,10.148803466796876,0.08621250092983246,0.11481250077486038,-0.011962499469518661
1750560857243408100,10.158408203125,0.06421250104904175,0.0695749968290329,-0.0387750007212162
1750560857253013000,10.168012939453124,0.03973750025033951,0.00976249948143959,-0.04372499883174896
1750560857262617900,10.177617919921875,0.022687500342726707,-0.01223750039935112,-0.020487500354647636
1750560857272222700,10.18722265625,0.009212499484419823,0.010999999940395355,0.005224999971687794
1750560857281827600,10.19682763671875,0.0042624999769032,0.03423750028014183,0.011274999938905239
1750560857291432400,10.206432373046875,0.016499999910593033,0.04399999976158142,0.01251249946653843
1750560857301037000,10.216037109375,0.03368749842047691,0.035475000739097595,0.010037500411272049
1750560857310642000,10.225641845703125,0.045787498354911804,0.0147124994546175,0.006324999965727329
1750560857320246800,10.235246826171876,0.048262499272823334,-0.002474999986588955,0.0002749999985098839
1750560857329851600,10.2448515625,0.03478749841451645,-0.020762499421834946,-0.004674999974668026
1750560857339456800,10.254456787109374,0.0006874999962747097,-0.03904999792575836,-0.007012499962002039
1750560857349061400,10.264061279296875,-0.03726249933242798,-0.047712501138448715,-0.0034374999813735485
1750560857358666200,10.273666259765625,-0.05555000156164169,-0.015812499448657036,-0.004674999974668026
1750560857368270800,10.283270751953125,-0.04207500070333481,0.023237500339746475,-0.018012499436736107
1750560857377875700,10.292875732421875,0.0017874999903142452,0.04399999976158142,-0.029012499377131462
1750560857387480600,10.30248046875,0.04097500070929527,0.047712501138448715,-0.03519999980926514
1750560857397085400,10.31208544921875,0.06655000150203705,0.0695749968290329,-0.027775000780820847
1750560857406690300,10.321690185546874,0.058024998754262924,0.08676250278949738,-0.018012499436736107
1750560857416295200,10.331295166015625,0.026262499392032623,0.05252499878406525,-0.007012499962002039
1750560857425900000,10.340900146484374,-0.0042624999769032,-0.018287500366568565,0.02227500081062317
1750560857435504600,10.350504638671875,-0.023787500336766243,-0.05623750016093254,0.05156249925494194
1750560857445109800,10.36010986328125,-0.018975000828504562,-0.045237500220537186,0.05156249925494194
1750560857454714400,10.36971435546875,0.005499999970197678,-0.006049999967217445,0.025987500324845314
1750560857464319200,10.3793193359375,0.027499999850988388,0.04152499884366989,-0.015537500381469727
1750560857473924000,10.388924072265626,0.045787498354911804,0.05623750016093254,-0.0387750007212162
1750560857483529000,10.398529052734375,0.045787498354911804,0.025712499395012856,-0.029012499377131462
1750560857493133600,10.408133544921874,0.022687500342726707,-0.02199999988079071,0.003987499978393316
1750560857502738400,10.417738525390625,0.0017874999903142452,-0.03671250119805336,0.04427500069141388
1750560857512343600,10.427343505859374,-0.011549999937415123,-0.0012374999932944775,0.045512501150369644
1750560857521948200,10.4369482421875,-0.017737500369548798,0.03904999792575836,0.005224999971687794
1750560857531553000,10.446552978515625,-0.009074999950826168,0.0635249987244606,-0.0424874983727932
1750560857541158000,10.456157958984376,0.0042624999769032,0.03904999792575836,-0.07301250100135803
1750560857550762500,10.465762451171875,0.010449999943375587,-0.01223750039935112,-0.07177499681711197
1750560857560367600,10.47536767578125,0.011687500402331352,-0.030524998903274536,-0.03519999980926514
1750560857569972500,10.484972412109375,0.010449999943375587,-0.018287500366568565,0.0015124999918043613
1750560857579577300,10.494577392578124,0.010449999943375587,-0.01347499992698431,0.02956249937415123
1750560857589182200,10.50418212890625,0.011687500402331352,-0.0012374999932944775,0.047987498342990875
1750560857598786800,10.513786865234374,-0.0017874999903142452,0.01952499896287918,0.04179999977350235
1750560857608391700,10.5233916015625,-0.009074999950826168,0.00976249948143959,0.021037500351667404
1750560857617996500,10.53299658203125,-0.0030249999836087227,-0.020762499421834946,0.003987499978393316
1750560857627601400,10.542601318359376,0.007974999956786633,-0.02928750030696392,-0.0034374999813735485
1750560857637206300,10.552206298828125,0.021449999883770943,-0.002474999986588955,-0.018012499436736107
1750560857646811000,10.561810791015626,0.021449999883770943,0.02928750030696392,-0.04743750020861626
1750560857656415700,10.571415771484375,0.022687500342726707,0.042762499302625656,-0.0681999996304512
1750560857666020600,10.5810205078125,0.018975000828504562,0.023237500339746475,-0.06572499871253967
1750560857675625500,10.59062548828125,0.007974999956786633,0,-0.03272499889135361
1750560857685230600,10.600230712890625,0.0042624999769032,0.006049999967217445,0.02708750031888485
1750560857694835200,10.609835205078125,0.007974999956786633,0.0170499999076128,0.06379999965429306
1750560857704439800,10.619439697265625,0.015262499451637268,0.02199999988079071,0.057750001549720764
1750560857714044700,10.629044677734376,0.017737500369548798,0.045237500220537186,0.01732499897480011
1750560857723649500,10.6386494140625,0.017737500369548798,0.0672374963760376,-0.029012499377131462
1750560857733254100,10.648254150390626,0.026262499392032623,0.05623750016093254,-0.05348749831318855
1750560857742859300,10.657859375,0.02502499893307686,0.01223750039935112,-0.0644875019788742
1750560857752464100,10.667464111328124,0.014024999924004078,-0.02681249938905239,-0.04372499883174896
1750560857762069000,10.677069091796875,-0.012787500396370888,-0.030524998903274536,0.0002749999985098839
1750560857771673600,10.686673583984375,-0.027499999850988388,-0.03423750028014183,0.040562499314546585
1750560857781278500,10.696278564453126,-0.009074999950826168,-0.025712499395012856,0.06503749638795853
1750560857790883600,10.705883544921875,0.007974999956786633,-0.00494999997317791,0.0625625029206276
1750560857800488200,10.71548828125,0.014024999924004078,0.007287499960511923,0.047987498342990875
1750560857810093000,10.725093017578125,0.012787500396370888,0.015949999913573265,0.028324998915195465
1750560857819698000,10.734697998046874,0.014024999924004078,0.015949999913573265,0.0002749999985098839
1750560857829302500,10.744302490234375,0.027499999850988388,-0.010999999940395355,-0.03272499889135361
1750560857838907400,10.753907470703124,0.04455000162124634,-0.02681249938905239,-0.06324999779462814
1750560857848512300,10.76351220703125,0.06297499686479568,-0.0170499999076128,-0.08030000329017639
1750560857858117000,10.7731171875,0.07150000333786011,-0.010999999940395355,-0.08648750185966492
1750560857867722000,10.782721923828126,0.07397499680519104,0.0012374999932944775,-0.06696250289678574
1750560857877326800,10.792326904296875,0.04455000162124634,0.03671250119805336,-0.018012499436736107
1750560857886931700,10.801931640625,-0.017737500369548798,0.0695749968290329,0.033275000751018524
1750560857896536300,10.811536376953125,-0.09831249713897705,0.09047500044107437,0.02956249937415123
1750560857906141200,10.82114111328125,-0.31459999084472656,0.18081249296665192,-0.05953750014305115
1750560857915746300,10.830746337890625,-0.6199874877929688,0.27857500314712524,-0.16224999725818634
1750560857925351200,10.84035107421875,-1.1013749837875366,0.23952500522136688,-0.258774995803833
1750560857934955800,10.849955810546875,-1.861199975013733,0.1527625024318695,-0.30153748393058777
1750560857944560600,10.859560546875,-2.7421624660491943,-0.07452499866485596,-0.30277499556541443
1750560857954165500,10.86916552734375,-3.6375625133514404,-0.11233749985694885,-0.24158750474452972
1750560857963770400,10.878770263671875,-4.1947126388549805,-0.08799999952316284,-0.06201250106096268
1750560857973375200,10.888375244140626,-4.2912373542785645,-0.35186249017715454,0.21285000443458557
1750560857982979800,10.897979736328125,-4.178899765014648,-0.7550125122070312,0.5354250073432922
1750560857992584700,10.907584716796874,-4.320525169372559,-1.036062479019165,0.7602375149726868
1750560858002189600,10.917189453125,-4.705387592315674,-1.1081124544143677,0.7845749855041504
1750560858011794200,10.926794189453124,-4.937487602233887,-1.0726374387741089,0.6001874804496765
1750560858021399300,10.9363994140625,-4.792150020599365,-0.9578250050544739,0.2653749883174896
1750560858031004200,10.946004150390625,-4.190999984741211,-0.8870124816894531,-0.04496249929070473
1750560858040609000,10.955609130859376,-3.1843624114990234,-0.7867749929428101,-0.16101250052452087
1750560858050213600,10.965213623046875,-1.9894875288009644,-0.5937250256538391,-0.12072499841451645
1750560858059818500,10.974818603515626,-0.890037477016449,-0.2870999872684479,-0.1023000031709671
1750560858069423400,10.98442333984375,-0.023787500336766243,0.11728750169277191,-0.20982499420642853
1750560858079028200,10.9940283203125,0.6029375195503235,0.40562498569488525,-0.39806249737739563
1750560858088633000,11.003633056640625,1.10013747215271,0.5571500062942505,-0.5934500098228455
1750560858098238000,11.013238037109375,1.4972374439239502,0.7367249727249146,-0.7339749932289124
1750560858107842600,11.022842529296875,1.7782875299453735,0.9003499746322632,-0.81454998254776
1750560858117447400,11.032447509765625,2.022624969482422,0.9248250126838684,-0.7937874794006348
1750560858127052500,11.042052490234376,2.3084874153137207,0.7965375185012817,-0.7132124900817871
1750560858136657200,11.0516572265625,2.5943500995635986,0.5559124946594238,-0.7046874761581421
1750560858146262000,11.061261962890624,2.91444993019104,0.3763374984264374,-0.7864999771118164
1750560858155867000,11.070866943359375,3.229599952697754,0.273624986410141,-0.9343125224113464
1750560858165471700,11.0804716796875,3.4286999702453613,0.11123749613761902,-1.0405999422073364
1750560858175076600,11.09007666015625,3.499650001525879,-0.10752499848604202,-0.9917874932289124
1750560858184681500,11.099681396484375,3.492224931716919,-0.04647500067949295,-0.7804499864578247
1750560858194286000,11.1092861328125,3.6229875087738037,0.32615000009536743,-0.4713499844074249
1750560858203891000,11.118890869140625,3.8233249187469482,0.5351499915122986,-0.26606249809265137
1750560858213495800,11.128495849609376,3.8770875930786133,0.6975374817848206,-0.21353749930858612
1750560858223100700,11.1381005859375,3.4434125423431396,0.9321125149726868,-0.34540000557899475
1750560858232705500,11.14770556640625,2.6113998889923096,0.9725375175476074,-0.5286874771118164
1750560858242310400,11.157310302734375,1.785575032234192,0.524150013923645,-0.5299249887466431
1750560858251915300,11.166915283203124,1.203950047492981,-0.1966249942779541,-0.2367749959230423
1750560858261520100,11.17652001953125,0.9022749662399292,-0.7953000068664551,0.23966249823570251
1750560858271124700,11.186124755859375,0.7788000106811523,-1.081162452697754,0.6440500020980835
1750560858280729600,11.1957294921875,0.7580375075340271,-0.9468249678611755,0.8640499711036682
1750560858290334500,11.20533447265625,0.6737499833106995,-0.4801499843597412,0.843287467956543
1750560858299939000,11.21493896484375,0.4184125065803528,-0.03671250119805336,0.6282374858856201
1750560858309544200,11.224544189453125,0.19249999523162842,0.18576249480247498,0.383899986743927
1750560858319148800,11.234148681640624,0.10573749989271164,0.17352500557899475,0.16513749957084656
1750560858328753700,11.243753662109375,0.10078749805688858,0.11604999750852585,-0.014437500387430191
1750560858338358500,11.253358642578124,0.11302500218153,0.17710000276565552,-0.16458749771118164
1750560858347963100,11.262963134765625,0.11178749799728394,0.30057498812675476,-0.2563000023365021
1750560858357568300,11.272568359375,0.11797499656677246,0.35186249017715454,-0.2050125002861023
1750560858367173000,11.282173095703126,0.16073749959468842,0.21986250579357147,-0.0009624999947845936
1750560858376777700,11.29177783203125,0.20350000262260437,-0.02681249938905239,0.2116124927997589
1750560858386382600,11.301382568359376,0.17173749208450317,-0.14409999549388885,0.2763749957084656
1750560858395987500,11.310987548828125,0.031212499365210533,-0.08304999768733978,0.19085000455379486
1750560858405592300,11.32059228515625,-0.1447875052690506,-0.02928750030696392,0.07479999959468842
1750560858415197200,11.330197265625,-0.2633124887943268,-0.07328750193119049,0.01732499897480011
1750560858424801800,11.3398017578125,-0.2961750030517578,-0.1270499974489212,0.04675000160932541
1750560858434407000,11.349406982421876,-0.24255000054836273,-0.1405249983072281,0.10779999941587448
1750560858444011500,11.359011474609375,-0.1350249946117401,-0.11233749985694885,0.1200374960899353
1750560858453616400,11.368616455078126,-0.015262499451637268,-0.03904999792575836,0.07356250286102295
1750560858463221200,11.37822119140625,0.1093124970793724,0.04881250113248825,0.010037500411272049
1750560858472826000,11.387826171875,0.20707499980926514,0.08923749625682831,-0.05472499877214432
1750560858482431000,11.397430908203125,0.21931250393390656,0.10257499665021896,-0.12072499841451645
1750560858492035800,11.407035888671874,0.16073749959468842,0.1331000030040741,-0.15729999542236328
1750560858501640700,11.416640625,0.04702499881386757,0.11976250261068344,-0.13653749227523804
1750560858511245300,11.426245361328125,-0.07150000333786011,0.047712501138448715,-0.05953750014305115
1750560858520850200,11.43585009765625,-0.12155000120401382,-0.042762499302625656,0.02708750031888485
1750560858530455000,11.445455078125,-0.11055000126361847,-0.11123749613761902,0.07108750194311142
1750560858540060000,11.455059814453126,-0.06531249731779099,-0.11123749613761902,0.06379999965429306
1750560858549664800,11.464664794921875,-0.012787500396370888,-0.06599999964237213,0.030799999833106995
1750560858559269600,11.47426953125,0.029975000768899918,-0.037812501192092896,0.01251249946653843
1750560858568874200,11.483874267578125,0.05073750019073486,-0.059812501072883606,0.025987500324845314
1750560858578479000,11.49347900390625,0.05926249921321869,-0.0695749968290329,0.05403750017285347
1750560858588084000,11.503083984375,0.04455000162124634,-0.0147124994546175,0.05156249925494194
1750560858597688800,11.512688720703125,0.031212499365210533,0.03904999792575836,0.008799999952316284
1750560858607293700,11.522293701171876,0.03368749842047691,0.05376249924302101,-0.04372499883174896
1750560858616898300,11.531898193359375,0.04097500070929527,0.00494999997317791,-0.0644875019788742
1750560858626503200,11.541503173828126,0.0494999997317791,-0.07576250284910202,-0.04372499883174896
1750560858636108000,11.55110791015625,0.05555000156164169,-0.13928750157356262,0.011274999938905239
1750560858645713000,11.560712890625,0.0494999997317791,-0.13199999928474426,0.07603749632835388
1750560858655317800,11.57031787109375,0.03973750025033951,-0.06476250290870667,0.10779999941587448
1750560858664922600,11.579922607421874,0.03726249933242798,0.006049999967217445,0.09184999763965607
1750560858674527500,11.589527587890625,0.043449997901916504,0.042762499302625656,0.038087498396635056
1750560858684132000,11.599132080078125,0.043449997901916504,0.057475000619888306,-0.020487500354647636
1750560858693737000,11.608737060546876,0.03368749842047691,0.045237500220537186,-0.05348749831318855
1750560858703341800,11.618341796875,0.017737500369548798,0.007287499960511923,-0.04743750020861626
1750560858712946700,11.62794677734375,0.010449999943375587,-0.05376249924302101,0.0002749999985098839
1750560858722551600,11.637551513671875,0.011687500402331352,-0.0989999994635582,0.06984999775886536
1750560858732156400,11.647156494140624,0.017737500369548798,-0.08552499860525131,0.11151249706745148
1750560858741761000,11.656760986328125,0.021449999883770943,-0.02199999988079071,0.0943249985575676
1750560858751366000,11.666365966796874,0.03368749842047691,0.03423750028014183,0.03203750029206276
1750560858760971000,11.675970947265625,0.048262499272823334,0.054999999701976776,-0.03148749843239784
1750560858770575600,11.68557568359375,0.048262499272823334,0.05376249924302101,-0.06696250289678574
1750560858780180500,11.695180419921876,0.03244999796152115,0.04152499884366989,-0.05953750014305115
1750560858789785300,11.704785400390625,0.011687500402331352,-0.007287499960511923,-0.015537500381469727
1750560858799390200,11.71439013671875,-0.0005499999970197678,-0.05623750016093254,0.04675000160932541
1750560858808994800,11.723994873046875,0.006737499963492155,-0.0635249987244606,0.09184999763965607
