time,seconds_elapsed,z,y,x
1750560847148721700,0.0637216796875,-0.038362499326467514,-0.07507500052452087,0.18150000274181366
1750560847158326800,0.073326904296875,-0.10807500034570694,-0.07631249725818634,0.21821250021457672
1750560847167931400,0.082931396484375,-0.1531749963760376,-0.1288374960422516,0.29026249051094055
1750560847177536300,0.092536376953125,-0.17036250233650208,-0.16060000658035278,0.39160001277923584
1750560847187141000,0.10214111328125,-0.15812499821186066,-0.18507499992847443,0.4515500068664551
1750560847196746200,0.111746337890625,-0.14217500388622284,-0.2241249978542328,0.4343625009059906
1750560847206351000,0.12135107421875,-0.1629374921321869,-0.20336249470710754,0.4123624861240387
1750560847215955700,0.130955810546875,-0.23017500340938568,-0.17531250417232513,0.4025999903678894
1750560847225560600,0.140560546875,-0.3254624903202057,-0.20336249470710754,0.3880249857902527
1750560847235165400,0.15016552734375,-0.391462504863739,-0.2619374990463257,0.36959999799728394
1750560847244770300,0.159770263671875,-0.3694624900817871,-0.37070000171661377,0.3513124883174896
1750560847254375200,0.169375244140625,-0.2741749882698059,-0.32670000195503235,0.34402498602867126
1750560847263980000,0.17897998046875,-0.14588749408721924,-0.2106499969959259,0.32202500104904175
1750560847273585000,0.1885849609375,-0.050599999725818634,-0.10559999942779541,0.2657875120639801
1750560847283189500,0.198189453125,0.006874999962747097,-0.10078749805688858,0.18878750503063202
1750560847292794600,0.207794677734375,0.05321250110864639,-0.21793749928474426,0.1326874941587448
1750560847302399500,0.2173994140625,0.22302499413490295,-0.40741249918937683,0.1839749962091446
1750560847312004400,0.22700439453125,0.2535499930381775,-0.4819374978542328,0.196212500333786
1750560847321609000,0.23660888671875,0.19868749380111694,-0.5357000231742859,0.2059749960899353
1750560847331213800,0.2462138671875,0.13626250624656677,-0.6480374932289124,0.25478750467300415
1750560847340818700,0.255818603515625,0.07273750007152557,-0.7922750115394592,0.3232625126838684
1750560847350423600,0.265423583984375,0.018975000828504562,-0.9363750219345093,0.3683624863624573
1750560847360028700,0.275028564453125,-0.028599999845027924,-1.0817124843597412,0.3708375096321106
1750560847369633300,0.28463330078125,-0.0798875018954277,-1.1574749946594238,0.342787504196167
1750560847379238100,0.294238037109375,-0.1251250058412552,-1.0243749618530273,0.2915000021457672
1750560847388843000,0.303843017578125,-0.1434125006198883,-0.6272749900817871,0.10821250081062317
1750560847398447900,0.31344775390625,-0.06641250103712082,-0.2656500041484833,-0.07259999960660934
1750560847408052700,0.323052734375,0.06173750013113022,0.14368750154972076,-0.14231249690055847
1750560847417657600,0.33265771484375,0.24255000054836273,0.596887469291687,-0.18741250038146973
1750560847427262500,0.342262451171875,0.3684999942779541,0.7814124822616577,-0.1886499971151352
1750560847436867000,0.3518671875,0.40878748893737793,0.5944125056266785,-0.15812499821186066
1750560847446472000,0.361471923828125,0.3708375096321106,0.3110249936580658,-0.1116499975323677
1750560847456077000,0.3710771484375,0.2829749882221222,0.1106875017285347,-0.014024999924004078
1750560847465682000,0.380681884765625,0.19126249849796295,-0.050599999725818634,0.09968750178813934
1750560847475286800,0.390286865234375,0.08016250282526016,-0.1568875014781952,0.1704999953508377
1750560847484891400,0.399891357421875,0.0006874999962747097,-0.18383750319480896,0.24021250009536743
1750560847494496300,0.409496337890625,0.0471624992787838,-0.23883749544620514,0.3573625087738037
1750560847504101000,0.41910107421875,0.18892499804496765,-0.1825999915599823,0.44907498359680176
1750560847513706000,0.4287060546875,0.3330250084400177,0.0494999997317791,0.3843125104904175
1750560847523310800,0.438310791015625,0.3830749988555908,0.30607500672340393,0.12168750166893005
1750560847532915700,0.447915771484375,0.3330250084400177,0.5638874769210815,-0.2461249977350235
1750560847542520600,0.4575205078125,0.23154999315738678,0.7496500015258789,-0.58451247215271
1750560847552125200,0.467125244140625,0.2157374918460846,0.754462480545044,-0.7836124897003174
1750560847561730300,0.476730224609375,0.24502499401569366,0.4881249964237213,-0.806850016117096
1750560847571335000,0.4863349609375,0.19126249849796295,0.1704999953508377,-0.6639875173568726
1750560847580939800,0.495939697265625,0.1387374997138977,-0.09707500040531158,-0.36465001106262207
1750560847590545000,0.505544921875,0.1289750039577484,-0.20336249470710754,-0.10188750177621841
1750560847600149500,0.5151494140625,0.09350000321865082,-0.260699987411499,-0.0775500014424324
1750560847609754400,0.52475439453125,0.04097500070929527,-0.29864999651908875,-0.18741250038146973
1750560847619359200,0.534359130859375,0.015399999916553497,-0.2204124927520752,-0.24860000610351562
1750560847628963800,0.5439638671875,-0.011549999937415123,-0.05555000156164169,-0.23017500340938568
1750560847638569000,0.55356884765625,-0.040837500244379044,0.15344999730587006,-0.21683749556541443
1750560847648173800,0.563173828125,-0.0518375001847744,0.2877874970436096,-0.26317501068115234
1750560847657778700,0.57277880859375,-0.07136250287294388,0.3158375024795532,-0.3438875079154968
1750560847667383600,0.582383544921875,-0.10807500034570694,0.30855000019073486,-0.3768875002861023
1750560847676988200,0.59198828125,-0.13488750159740448,0.4380750060081482,-0.3866499960422516
1750560847686593000,0.601593017578125,-0.11288750171661377,0.5271750092506409,-0.40617498755455017
1750560847696198000,0.611197998046875,-0.009074999950826168,0.5944125056266785,-0.4305124878883362
1750560847705802800,0.620802734375,0.1289750039577484,0.7349374890327454,-0.4464625120162964
1750560847715407600,0.63040771484375,0.2475000023841858,0.8424624800682068,-0.4342249929904938
1750560847725012500,0.640012451171875,0.29878750443458557,0.8827499747276306,-0.382937490940094
1750560847734617300,0.649617431640625,0.2657875120639801,0.8962249755859375,-0.30841249227523804
1750560847744222000,0.659221923828125,0.18768750131130219,0.7471749782562256,-0.24365000426769257
1750560847753826800,0.668826904296875,0.0752125009894371,0.414837509393692,-0.13241249322891235
1750560847763431700,0.678431640625,-0.023787500336766243,0.1447875052690506,0.05444999784231186
1750560847773036500,0.68803662109375,-0.07507500052452087,-0.060362499207258224,0.21697500348091125
1750560847782641700,0.6976416015625,-0.0873124971985817,-0.15331250429153442,0.31459999084472656
1750560847792246300,0.707246337890625,-0.07383749634027481,-0.1373624950647354,0.31831249594688416
1750560847801851100,0.71685107421875,-0.0518375001847744,-0.045787498354911804,0.22302499413490295
1750560847811456000,0.7264560546875,-0.03712499886751175,0.043449997901916504,0.08621250092983246
1750560847821060600,0.736060546875,0.006874999962747097,0.08744999766349792,0.007974999956786633
1750560847830665700,0.745665771484375,0.07644999772310257,0.012924999929964542,0.009212499484419823
1750560847840270600,0.7552705078125,0.10944999754428864,-0.18507499992847443,0.03849999979138374
1750560847849875500,0.76487548828125,0.07768750190734863,-0.36822500824928284,0.05321250110864639
1750560847859480000,0.77447998046875,0.006874999962747097,-0.41346248984336853,0.04468749836087227
1750560847869085000,0.7840849609375,-0.06407500058412552,-0.37070000171661377,0.015399999916553497
1750560847878689800,0.793689697265625,-0.13241249322891235,-0.3144625127315521,-0.012787500396370888
1750560847888295000,0.803294921875,-0.16788749396800995,-0.24365000426769257,-0.0030249999836087227
1750560847897899500,0.8128994140625,-0.13612499833106995,-0.1190750002861023,0.026399999856948853
1750560847907504400,0.82250439453125,-0.04688749834895134,0.03616249933838844,0.03739999979734421
1750560847917109200,0.832109130859375,0.06916250288486481,0.15702499449253082,0.010449999943375587
1750560847926713900,0.8417138671875,0.15950000286102295,0.24873749911785126,-0.050599999725818634
1750560847936319000,0.851319091796875,0.19002500176429749,0.31459999084472656,-0.10312499850988388
1750560847945923800,0.860923828125,0.16073749959468842,0.3170749843120575,-0.13488750159740448
1750560847955528700,0.87052880859375,0.0752125009894371,0.18878750503063202,-0.1434125006198883
1750560847965133600,0.880133544921875,-0.007837500423192978,0.028737500309944153,-0.10683749616146088
1750560847974738200,0.88973828125,-0.05555000156164169,-0.0775500014424324,-0.03478749841451645
1750560847984343000,0.899343017578125,-0.06407500058412552,-0.11412499845027924,0.03492499887943268
1750560847993948200,0.9089482421875,-0.035887498408555984,-0.08483749628067017,0.06297499686479568
1750560848003553000,0.918552978515625,0.006874999962747097,-0.010312499478459358,0.03492499887943268
1750560848013157600,0.92815771484375,0.03863750025629997,0.08868750184774399,-0.040837500244379044
1750560848022762500,0.937762451171875,0.055687498301267624,0.1742125004529953,-0.11288750171661377
1750560848032367400,0.947367431640625,0.03492499887943268,0.21078750491142273,-0.133650004863739
1750560848041972200,0.95697216796875,0.008112499490380287,0.19126249849796295,-0.08607500046491623
1750560848051577000,0.9665771484375,-0.006599999964237213,0.13997499644756317,-0.011549999937415123
1750560848061182000,0.976181884765625,-0.015124999918043613,0.08373750001192093,0.03973750025033951
1750560848070786800,0.985786865234375,-0.023787500336766243,0.05444999784231186,0.04468749836087227
1750560848080391400,0.995391357421875,-0.03355000168085098,0.06421250104904175,0.028737500309944153
1750560848089996500,1.00499658203125,-0.03959999978542328,0.09226249903440475,0.016637500375509262
1750560848099601400,1.014601318359375,-0.03464999794960022,0.0849749967455864,0.017737500369548798
1750560848109206300,1.024206298828125,-0.023787500336766243,0.04592499881982803,0.04221250116825104
1750560848118811100,1.03381103515625,-0.022549999877810478,-0.006599999964237213,0.0752125009894371
1750560848128415700,1.043415771484375,-0.038362499326467514,-0.06283749639987946,0.08744999766349792
1750560848138020600,1.0530205078125,-0.06159999966621399,-0.08978749811649323,0.07397499680519104
1750560848147625500,1.06262548828125,-0.07631249725818634,-0.05678749829530716,0.04468749836087227
1750560848157230600,1.072230712890625,-0.06641250103712082,0.028737500309944153,0.0006874999962747097
1750560848166835200,1.081835205078125,-0.03959999978542328,0.12044999748468399,-0.04702499881386757
1750560848176440000,1.091440185546875,-0.012787500396370888,0.18521249294281006,-0.07507500052452087
1750560848186045000,1.101044921875,-0.0028874999843537807,0.2083124965429306,-0.08607500046491623
1750560848195649800,1.11064990234375,-0.010312499478459358,0.18878750503063202,-0.0775500014424324
1750560848205254700,1.120254638671875,-0.028599999845027924,0.14726249873638153,-0.048124998807907104
1750560848214859500,1.129859619140625,-0.04936249926686287,0.0849749967455864,-0.018837500363588333
1750560848224464400,1.13946435546875,-0.06283749639987946,0.04221250116825104,0.0031624999828636646
1750560848234069000,1.149069091796875,-0.07383749634027481,0.03849999979138374,0.004399999976158142
1750560848243673900,1.158673828125,-0.08483749628067017,0.06421250104904175,-0.015124999918043613
1750560848253278700,1.16827880859375,-0.089649997651577,0.08373750001192093,-0.02983750030398369
1750560848262883800,1.1778837890625,-0.08607500046491623,0.06173750013113022,-0.02502499893307686
1750560848272488400,1.187488525390625,-0.06283749639987946,0.028737500309944153,-0.0005499999970197678
1750560848282093300,1.19709326171875,-0.040837500244379044,0.015399999916553497,0.027499999850988388
1750560848291698200,1.2066982421875,-0.03464999794960022,0.031212499365210533,0.04097500070929527
1750560848301302800,1.216302734375,-0.03712499886751175,0.06173750013113022,0.026399999856948853
1750560848310908000,1.225907958984375,-0.03959999978542328,0.08621250092983246,-0.012787500396370888
1750560848320512800,1.2355126953125,-0.040837500244379044,0.08744999766349792,-0.05678749829530716
1750560848330117600,1.24511767578125,-0.03712499886751175,0.07273750007152557,-0.0775500014424324
1750560848339722500,1.254722412109375,-0.03712499886751175,0.029975000768899918,-0.06159999966621399
1750560848349327400,1.264327392578125,-0.04207500070333481,-0.02983750030398369,-0.006599999964237213
1750560848358932200,1.27393212890625,-0.035887498408555984,-0.06778749823570251,0.05197500064969063
1750560848368537000,1.283537109375,-0.013887500390410423,-0.07136250287294388,0.0812624990940094
1750560848378141700,1.2931416015625,0.0031624999828636646,-0.045787498354911804,0.0789249986410141
1750560848387746600,1.30274658203125,0.021449999883770943,-0.02736249938607216,0.05926249921321869
1750560848397351400,1.312351318359375,0.022687500342726707,-0.009074999950826168,0.03368749842047691
1750560848406956300,1.321956298828125,0.009212499484419823,0.015399999916553497,0.020212499424815178
1750560848416561200,1.33156103515625,-0.013887500390410423,0.025162499397993088,0.011687500402331352
1750560848426166000,1.341166015625,-0.031075000762939453,0.018975000828504562,0.021449999883770943
1750560848435771000,1.35077099609375,-0.040837500244379044,0.011687500402331352,0.04839999973773956
1750560848445375700,1.360375732421875,-0.04331250116229057,0.012924999929964542,0.06421250104904175
1750560848454980600,1.369980712890625,-0.040837500244379044,0.04221250116825104,0.04839999973773956
1750560848464585500,1.37958544921875,-0.04207500070333481,0.08621250092983246,0.004399999976158142
1750560848474190300,1.3891904296875,-0.04688749834895134,0.10821250081062317,-0.04207500070333481
1750560848483795200,1.398795166015625,-0.04936249926686287,0.09721250087022781,-0.05555000156164169
1750560848493399800,1.40839990234375,-0.04455000162124634,0.06421250104904175,-0.02736249938607216
1750560848503005000,1.4180048828125,-0.03231250122189522,0.025162499397993088,0.021449999883770943
1750560848512609500,1.427609619140625,-0.020075000822544098,0.007974999956786633,0.07150000333786011
1750560848522214400,1.43721435546875,-0.006599999964237213,0.009212499484419823,0.09721250087022781
1750560848531819300,1.4468193359375,0.0019249999895691872,0.004399999976158142,0.08249999582767487
1750560848541424000,1.456424072265625,-0.0028874999843537807,0.018975000828504562,0.03849999979138374
1750560848551029000,1.466029052734375,-0.016362499445676804,0.043449997901916504,-0.010312499478459358
1750560848560633900,1.4756337890625,-0.02736249938607216,0.05926249921321869,-0.03959999978542328
1750560848570238700,1.48523876953125,-0.031075000762939453,0.05692499876022339,-0.03712499886751175
1750560848579843600,1.494843505859375,-0.026124998927116394,0.05321250110864639,-0.010312499478459358
1750560848589448400,1.504448486328125,-0.010312499478459358,0.06297499686479568,0.011687500402331352
1750560848599053300,1.51405322265625,0.006874999962747097,0.1069749966263771,0.010449999943375587
1750560848608658000,1.523657958984375,0.023924998939037323,0.1545500010251999,-0.011549999937415123
1750560848618263000,1.533262939453125,0.028875000774860382,0.1667875051498413,-0.03355000168085098
1750560848627867600,1.54286767578125,0.018975000828504562,0.12402500212192535,-0.04455000162124634
1750560848637472500,1.552472412109375,-0.005362499970942736,0.05073750019073486,-0.023787500336766243
1750560848647077400,1.562077392578125,-0.038362499326467514,-0.014024999924004078,0.020212499424815178
1750560848656682200,1.57168212890625,-0.06641250103712082,-0.03959999978542328,0.05816249921917915
1750560848666287000,1.581287109375,-0.07864999771118164,-0.02736249938607216,0.06792499870061874
1750560848675892000,1.59089208984375,-0.06531249731779099,-0.0017874999903142452,0.055687498301267624
1750560848685496800,1.600496826171875,-0.03959999978542328,0.0031624999828636646,0.025162499397993088
1750560848695101700,1.610101806640625,-0.009074999950826168,0.0031624999828636646,-0.014024999924004078
1750560848704706600,1.61970654296875,0.016637500375509262,0.020212499424815178,-0.040837500244379044
1750560848714311200,1.629311279296875,0.027637500315904617,0.03973750025033951,-0.04455000162124634
1750560848723916000,1.638916015625,0.026399999856948853,0.05692499876022339,-0.026124998927116394
1750560848733521000,1.64852099609375,0.011687500402331352,0.06297499686479568,-0.0042624999769032
1750560848743125800,1.658125732421875,-0.006599999964237213,0.055687498301267624,0.0031624999828636646
1750560848752730600,1.667730712890625,-0.01759999990463257,0.03726249933242798,-0.0017874999903142452
1750560848762335500,1.67733544921875,-0.020075000822544098,0.018975000828504562,-0.0030249999836087227
1750560848771940400,1.6869404296875,-0.007837500423192978,0.017737500369548798,0.0019249999895691872
1750560848781545000,1.696544921875,0.008112499490380287,0.018975000828504562,0.0056374999694526196
1750560848791150000,1.706150146484375,0.016637500375509262,0.023924998939037323,-0.0017874999903142452
1750560848800755000,1.7157548828125,0.020212499424815178,0.03726249933242798,-0.020075000822544098
1750560848810359800,1.72535986328125,0.012924999929964542,0.03368749842047691,-0.036024998873472214
1750560848819964400,1.73496435546875,0.0006874999962747097,0.016499999910593033,-0.03355000168085098
1750560848829569300,1.7445693359375,-0.004124999977648258,-0.02502499893307686,-0.012787500396370888
1750560848839174400,1.75417431640625,-0.0005499999970197678,-0.06407500058412552,0.015399999916553497
1750560848848779300,1.763779296875,0.0006874999962747097,-0.0518375001847744,0.021449999883770943
1750560848858384100,1.773384033203125,0.006874999962747097,0.009212499484419823,0.0056374999694526196
1750560848867988700,1.78298876953125,0.018975000828504562,0.06544999778270721,-0.022549999877810478
1750560848877593600,1.792593505859375,0.023924998939037323,0.0812624990940094,-0.048124998807907104
1750560848887198500,1.802198486328125,0.020212499424815178,0.04592499881982803,-0.05555000156164169
1750560848896803300,1.81180322265625,0.0031624999828636646,0.0019249999895691872,-0.03231250122189522
1750560848906408400,1.821408447265625,-0.009074999950826168,-0.011549999937415123,0.021449999883770943
1750560848916013000,1.831012939453125,-0.004124999977648258,-0.01759999990463257,0.07150000333786011
1750560848925618000,1.840617919921875,0.023924998939037323,-0.021312499418854713,0.09473749995231628
1750560848935222800,1.850222900390625,0.055687498301267624,-0.007837500423192978,0.0752125009894371
1750560848944827400,1.859827392578125,0.06668750196695328,0.026399999856948853,0.021449999883770943
1750560848954432500,1.8694326171875,0.055687498301267624,0.05692499876022339,-0.03712499886751175
1750560848964037400,1.879037353515625,0.03863750025629997,0.04221250116825104,-0.06778749823570251
1750560848973642000,1.88864208984375,0.021449999883770943,0.011687500402331352,-0.06407500058412552
1750560848983246800,1.898246826171875,0.022687500342726707,-0.0030249999836087227,-0.03959999978542328
1750560848992851700,1.907851806640625,0.03244999796152115,0.018975000828504562,-0.020075000822544098
1750560849002456300,1.917456298828125,0.03616249933838844,0.07150000333786011,-0.015124999918043613
1750560849012061400,1.9270615234375,0.03244999796152115,0.11921250075101852,-0.026124998927116394
1750560849021666000,1.936666015625,0.016637500375509262,0.12402500212192535,-0.02983750030398369
1750560849031271200,1.946271240234375,0.0019249999895691872,0.09102500230073929,-0.01759999990463257
1750560849040876000,1.9558759765625,0.0006874999962747097,0.03726249933242798,-0.0005499999970197678
1750560849050480600,1.965480712890625,-0.0028874999843537807,-0.02502499893307686,0.010449999943375587
1750560849060085500,1.97508544921875,0.0019249999895691872,-0.06283749639987946,0.009212499484419823
1750560849069690400,1.9846904296875,0.008112499490380287,-0.06407500058412552,-0.0042624999769032
1750560849079295500,1.99429541015625,0.011687500402331352,-0.01759999990463257,-0.01759999990463257
1750560849088900400,2.003900390625,0.015399999916553497,0.021449999883770943,-0.012787500396370888
1750560849098505000,2.0135048828125,0.023924998939037323,0.009212499484419823,0.023924998939037323
1750560849108109800,2.02310986328125,0.026399999856948853,-0.02502499893307686,0.08249999582767487
1750560849117714700,2.032714599609375,0.012924999929964542,-0.038362499326467514,0.12402500212192535
1750560849127319600,2.042319580078125,-0.01759999990463257,-0.04207500070333481,0.1326874941587448
1750560849136924400,2.05192431640625,-0.05431250110268593,-0.038362499326467514,0.11797499656677246
1750560849146529300,2.061529296875,-0.07259999960660934,-0.05431250110268593,0.08744999766349792
1750560849156134000,2.0711337890625,-0.06159999966621399,-0.08483749628067017,0.05816249921917915
1750560849165738800,2.08073876953125,-0.035887498408555984,-0.09955000132322311,0.04221250116825104
1750560849175343900,2.09034375,-0.011549999937415123,-0.050599999725818634,0.027499999850988388
1750560849184948700,2.09994873046875,0.0056374999694526196,0.05197500064969063,-0.012787500396370888
1750560849194553600,2.1095537109375,0.022687500342726707,0.14602500200271606,-0.07383749634027481
1750560849204158200,2.119158203125,0.04592499881982803,0.196212500333786,-0.133650004863739
1750560849213763000,2.12876318359375,0.05816249921917915,0.20350000262260437,-0.1751749962568283
1750560849223368000,2.138367919921875,0.06173750013113022,0.18150000274181366,-0.1886499971151352
1750560849232972800,2.147972900390625,0.055687498301267624,0.1106875017285347,-0.17036250233650208
1750560849242577700,2.15757763671875,0.03492499887943268,0.0006874999962747097,-0.12031249701976776
1750560849252182500,2.1671826171875,0.009212499484419823,-0.10312499850988388,-0.04936249926686287
1750560849261787400,2.176787353515625,0.0006874999962747097,-0.15331250429153442,0.0056374999694526196
1750560849271392000,2.18639208984375,0.011687500402331352,-0.12636250257492065,0.022687500342726707
1750560849280997000,2.1959970703125,0.029975000768899918,-0.058024998754262924,0.010449999943375587
1750560849290602000,2.20560205078125,0.03616249933838844,0.017737500369548798,-0.023787500336766243
1750560849300206600,2.21520654296875,0.023924998939037323,0.08249999582767487,-0.057887498289346695
1750560849309811500,2.2248115234375,0.009212499484419823,0.09350000321865082,-0.07012499868869781
1750560849319416300,2.234416259765625,-0.0005499999970197678,0.05073750019073486,-0.04936249926686287
1750560849329021200,2.244021240234375,-0.009074999950826168,-0.009074999950826168,-0.014024999924004078
1750560849338626000,2.2536259765625,-0.018837500363588333,-0.04702499881386757,0.012924999929964542
1750560849348231200,2.263231201171875,-0.028599999845027924,-0.03712499886751175,0.027499999850988388
1750560849357835800,2.272835693359375,-0.02736249938607216,-0.011549999937415123,0.029975000768899918
1750560849367440600,2.282440673828125,-0.013887500390410423,0.0006874999962747097,0.021449999883770943
1750560849377045500,2.29204541015625,0.010449999943375587,0.005499999970197678,0.014162499457597733
1750560849386650400,2.301650390625,0.026399999856948853,0.026399999856948853,0.011687500402331352
1750560849396255200,2.311255126953125,0.03987500071525574,0.07273750007152557,0.006737499963492155
1750560849405860000,2.320860107421875,0.04468749836087227,0.11178749799728394,-0.011549999937415123
1750560849415465000,2.33046484375,0.03368749842047691,0.1289750039577484,-0.03355000168085098
1750560849425069800,2.34006982421875,0.012924999929964542,0.11921250075101852,-0.04455000162124634
1750560849434674400,2.34967431640625,0.006874999962747097,0.07150000333786011,-0.03959999978542328
1750560849444279600,2.359279541015625,0.014162499457597733,0.015399999916553497,-0.005362499970942736
1750560849453884400,2.368884521484375,0.020212499424815178,-0.04207500070333481,0.03616249933838844
1750560849463489000,2.378489013671875,0.03244999796152115,-0.05678749829530716,0.06421250104904175
1750560849473094000,2.388093994140625,0.03492499887943268,-0.021312499418854713,0.06421250104904175
1750560849482698800,2.39769873046875,0.025162499397993088,0.023924998939037323,0.04097500070929527
1750560849492303600,2.4073037109375,0.021449999883770943,0.05197500064969063,0.0006874999962747097
1750560849501908500,2.416908447265625,0.021449999883770943,0.04468749836087227,-0.031075000762939453
1750560849511513300,2.426513427734375,0.020212499424815178,0.009212499484419823,-0.050599999725818634
1750560849521118200,2.4361181640625,0.022687500342726707,-0.03959999978542328,-0.04936249926686287
1750560849530722800,2.445722900390625,0.03244999796152115,-0.06159999966621399,-0.02736249938607216
1750560849540328000,2.455327880859375,0.05073750019073486,-0.026262499392032623,-0.005362499970942736
1750560849549932500,2.4649326171875,0.05692499876022339,0.025162499397993088,-0.0030249999836087227
1750560849559537700,2.47453759765625,0.04592499881982803,0.07644999772310257,-0.026124998927116394
1750560849569142500,2.484142578125,0.026399999856948853,0.11178749799728394,-0.06531249731779099
1750560849578747100,2.4937470703125,-0.0017874999903142452,0.10092499852180481,-0.10064999759197235
1750560849588352000,2.50335205078125,-0.020075000822544098,0.04097500070929527,-0.10436250269412994
1750560849597956900,2.512956787109375,-0.023787500336766243,-0.03231250122189522,-0.06407500058412552
1750560849607561700,2.522561767578125,-0.021312499418854713,-0.09707500040531158,0.0031624999828636646
1750560849617166600,2.53216650390625,-0.01759999990463257,-0.1288374960422516,0.06668750196695328
1750560849626771500,2.541771484375,-0.007837500423192978,-0.10807500034570694,0.09116250276565552
1750560849636376300,2.551376220703125,0.010449999943375587,-0.036024998873472214,0.05926249921321869
1750560849645981200,2.560981201171875,0.020212499424815178,0.048262499272823334,-0.0042624999769032
1750560849655586000,2.5705859375,0.016637500375509262,0.11302500218153,-0.057887498289346695
1750560849665191000,2.58019091796875,-0.004124999977648258,0.12402500212192535,-0.0798875018954277
1750560849674795500,2.58979541015625,-0.02983750030398369,0.10092499852180481,-0.07012499868869781
1750560849684400400,2.599400390625,-0.040837500244379044,0.0494999997317791,-0.038362499326467514
1750560849694005500,2.609005615234375,-0.04207500070333481,-0.015262499451637268,-0.0017874999903142452
1750560849703610400,2.6186103515625,-0.02983750030398369,-0.05678749829530716,0.03368749842047691
1750560849713215000,2.628215087890625,-0.010312499478459358,-0.07012499868869781,0.05321250110864639
1750560849722819800,2.63781982421875,0.012924999929964542,-0.060362499207258224,0.06297499686479568
1750560849732425000,2.647425048828125,0.03616249933838844,-0.022549999877810478,0.060499999672174454
1750560849742029600,2.657029541015625,0.0471624992787838,0.03726249933242798,0.04097500070929527
1750560849751634400,2.666634521484375,0.0471624992787838,0.09350000321865082,0.0006874999962747097
1750560849761239600,2.676239501953125,0.03244999796152115,0.11797499656677246,-0.053075000643730164
1750560849770844200,2.68584423828125,0.006874999962747097,0.10326249897480011,-0.09955000132322311
1750560849780449000,2.695448974609375,-0.022549999877810478,0.060499999672174454,-0.10683749616146088
1750560849790054000,2.705053955078125,-0.038362499326467514,-0.0005499999970197678,-0.06283749639987946
1750560849799659000,2.714658935546875,-0.04207500070333481,-0.03959999978542328,0.012924999929964542
1750560849809263600,2.724263671875,-0.038362499326467514,-0.040837500244379044,0.0849749967455864
1750560849818868500,2.733868408203125,-0.038362499326467514,-0.01759999990463257,0.11302500218153
1750560849828473000,2.74347314453125,-0.04455000162124634,0.012924999929964542,0.0812624990940094
1750560849838078000,2.753077880859375,-0.050599999725818634,0.03368749842047691,0.026399999856948853
1750560849847682800,2.762682861328125,-0.05664999783039093,0.05816249921917915,-0.020075000822544098
1750560849857288000,2.772287841796875,-0.05912499874830246,0.08002500236034393,-0.053075000643730164
1750560849866892500,2.781892578125,-0.04207500070333481,0.07150000333786011,-0.05678749829530716
1750560849876497400,2.791497314453125,-0.023787500336766243,0.03244999796152115,-0.048124998807907104
1750560849886102300,2.801102294921875,-0.010312499478459358,-0.010312499478459358,-0.03478749841451645
1750560849895707100,2.81070703125,-0.006599999964237213,-0.026262499392032623,-0.022549999877810478
1750560849905312000,2.82031201171875,-0.012787500396370888,-0.026262499392032623,-0.021312499418854713
1750560849914916900,2.829916748046875,-0.018837500363588333,-0.015262499451637268,-0.02502499893307686
1750560849924521700,2.839521728515625,-0.01759999990463257,0.010449999943375587,-0.028599999845027924
1750560849934126600,2.849126708984375,-0.012787500396370888,0.04097500070929527,-0.03231250122189522
1750560849943731500,2.8587314453125,0.009212499484419823,0.060499999672174454,-0.048124998807907104
1750560849953336000,2.868336181640625,0.03244999796152115,0.06297499686479568,-0.07507500052452087
1750560849962941000,2.87794091796875,0.03492499887943268,0.055687498301267624,-0.10559999942779541
1750560849972545800,2.8875458984375,0.017875000834465027,0.04468749836087227,-0.1251250058412552
1750560849982150700,2.897150634765625,-0.0017874999903142452,0.031212499365210533,-0.1251250058412552
1750560849991755500,2.906755615234375,-0.010312499478459358,0.020212499424815178,-0.10559999942779541
1750560850001360400,2.9163603515625,-0.004124999977648258,0.0006874999962747097,-0.07259999960660934
1750560850010965200,2.92596533203125,0.009212499484419823,-0.022549999877810478,-0.023787500336766243
1750560850020570400,2.9355703125,0.016637500375509262,-0.04331250116229057,0.016637500375509262
1750560850030175000,2.945175048828125,0.010449999943375587,-0.058024998754262924,0.028737500309944153
1750560850039779800,2.95477978515625,-0.0005499999970197678,-0.03959999978542328,0.011687500402331352
1750560850049384400,2.964384521484375,-0.009074999950826168,0.0031624999828636646,-0.012787500396370888
1750560850058989600,2.973989501953125,-0.009074999950826168,0.03973750025033951,-0.03355000168085098
1750560850068594400,2.983594482421875,-0.004124999977648258,0.05816249921917915,-0.04936249926686287
1750560850078199300,2.99319921875,0.0056374999694526196,0.06544999778270721,-0.057887498289346695
1750560850087804000,3.002803955078125,0.014162499457597733,0.06297499686479568,-0.05555000156164169
1750560850097408800,3.01240869140625,0.017875000834465027,0.04468749836087227,-0.040837500244379044
1750560850107014000,3.022013916015625,0.011687500402331352,0.009212499484419823,-0.021312499418854713
1750560850116618800,3.03161865234375,0.006874999962747097,-0.014024999924004078,-0.0030249999836087227
1750560850126223400,3.041223388671875,-0.0017874999903142452,0.0019249999895691872,0.0019249999895691872
1750560850135828200,3.050828125,-0.004124999977648258,0.03368749842047691,-0.007837500423192978
1750560850145433300,3.060433349609375,0.0031624999828636646,0.05197500064969063,-0.018837500363588333
1750560850155038200,3.0700380859375,0.0031624999828636646,0.048262499272823334,-0.03231250122189522
1750560850164642800,3.079642822265625,-0.005362499970942736,0.029975000768899918,-0.028599999845027924
1750560850174247700,3.08924755859375,-0.005362499970942736,0.009212499484419823,-0.0030249999836087227
1750560850183852800,3.098852783203125,0.0019249999895691872,0.0006874999962747097,0.025162499397993088
1750560850193457400,3.10845751953125,0.006874999962747097,0.007974999956786633,0.03849999979138374
1750560850203062300,3.118062255859375,0.010449999943375587,0.027499999850988388,0.03616249933838844
1750560850212667100,3.127667236328125,0.011687500402331352,0.03726249933242798,0.020212499424815178
1750560850222272000,3.13727197265625,0.004399999976158142,0.022687500342726707,-0.0030249999836087227
1750560850231876900,3.146876953125,-0.0028874999843537807,-0.0017874999903142452,-0.023787500336766243
1750560850241481500,3.1564814453125,-0.005362499970942736,0.0006874999962747097,-0.040837500244379044
1750560850251086300,3.16608642578125,0.0006874999962747097,0.011687500402331352,-0.045787498354911804
1750560850260691200,3.175691162109375,0.015399999916553497,0.020212499424815178,-0.03355000168085098
1750560850270296300,3.18529638671875,0.03244999796152115,0.007974999956786633,-0.016362499445676804
1750560850279901000,3.19490087890625,0.04468749836087227,-0.0017874999903142452,-0.011549999937415123
1750560850289505800,3.204505859375,0.04221250116825104,0.007974999956786633,-0.021312499418854713
1750560850299110700,3.214110595703125,0.016637500375509262,0.025162499397993088,-0.04455000162124634
1750560850308715300,3.22371533203125,-0.004124999977648258,0.05444999784231186,-0.060362499207258224
1750560850318320000,3.233320068359375,-0.020075000822544098,0.07768750190734863,-0.06159999966621399
1750560850327925000,3.242925048828125,-0.023787500336766243,0.0812624990940094,-0.05431250110268593
1750560850337529900,3.25252978515625,-0.005362499970942736,0.05692499876022339,-0.03959999978542328
1750560850347135000,3.262135009765625,0.008112499490380287,0.027499999850988388,-0.020075000822544098
1750560850356739600,3.271739501953125,0.006874999962747097,0.007974999956786633,-0.007837500423192978
1750560850366344400,3.281344482421875,0.006874999962747097,-0.020075000822544098,0.0006874999962747097
1750560850375949300,3.29094921875,0.004399999976158142,-0.05431250110268593,0.022687500342726707
1750560850385554200,3.30055419921875,0.009212499484419823,-0.07136250287294388,0.05321250110864639
1750560850395158800,3.31015869140625,0.022687500342726707,-0.06778749823570251,0.0789249986410141
1750560850404764000,3.319763916015625,0.025162499397993088,-0.048124998807907104,0.0849749967455864
1750560850414368500,3.329368408203125,0.012924999929964542,-0.018837500363588333,0.05692499876022339
1750560850423973600,3.3389736328125,-0.006599999964237213,0.005499999970197678,0.006737499963492155
1750560850433578200,3.348578125,-0.018837500363588333,0.018975000828504562,-0.040837500244379044
1750560850443183000,3.35818310546875,-0.02488750033080578,0.028737500309944153,-0.07878749817609787
1750560850452788200,3.367788330078125,-0.02488750033080578,0.04468749836087227,-0.09088750183582306
1750560850462392800,3.377392822265625,-0.010312499478459358,0.060499999672174454,-0.06778749823570251
1750560850471997700,3.386997802734375,0.008112499490380287,0.05197500064969063,-0.03355000168085098
1750560850481602600,3.3966025390625,0.014162499457597733,0.023924998939037323,-0.006599999964237213
1750560850491207400,3.40620751953125,0.009212499484419823,-0.0005499999970197678,0.015399999916553497
1750560850500812000,3.41581201171875,-0.005362499970942736,-0.018837500363588333,0.03368749842047691
1750560850510417200,3.425417236328125,-0.02983750030398369,-0.03478749841451645,0.05073750019073486
1750560850520021800,3.435021728515625,-0.045649997889995575,-0.04207500070333481,0.05444999784231186
1750560850529627000,3.444626953125,-0.053075000643730164,-0.050599999725818634,0.03739999979734421
1750560850539231700,3.454231689453125,-0.050599999725818634,-0.04455000162124634,0.011687500402331352
1750560850548836400,3.46383642578125,-0.038362499326467514,-0.009074999950826168,-0.015124999918043613
1750560850558441200,3.473441162109375,-0.013887500390410423,0.03973750025033951,-0.03478749841451645
1750560850568046000,3.483046142578125,0.0019249999895691872,0.07644999772310257,-0.050599999725818634
1750560850577651000,3.49265087890625,0.011687500402331352,0.08868750184774399,-0.048124998807907104
1750560850587255800,3.502255859375,0.008112499490380287,0.07644999772310257,-0.026124998927116394
1750560850596860700,3.511860595703125,-0.0005499999970197678,0.029975000768899918,0.015399999916553497
1750560850606465300,3.52146533203125,-0.004124999977648258,-0.01759999990463257,0.06421250104904175
1750560850616070100,3.531070068359375,-0.009074999950826168,-0.036024998873472214,0.08868750184774399
1750560850625675300,3.54067529296875,-0.01759999990463257,-0.03712499886751175,0.07768750190734863
1750560850635280100,3.550280029296875,-0.012787500396370888,-0.02983750030398369,0.04221250116825104
1750560850644885000,3.559885009765625,0.0019249999895691872,-0.020075000822544098,0.0031624999828636646
1750560850654489600,3.569489501953125,0.022687500342726707,-0.01759999990463257,-0.01759999990463257
1750560850664094700,3.5790947265625,0.03739999979734421,-0.02983750030398369,-0.015124999918043613
1750560850673699300,3.58869921875,0.04963750019669533,-0.020075000822544098,0.006737499963492155
1750560850683304200,3.59830419921875,0.05197500064969063,0.017737500369548798,0.023924998939037323
1750560850692909000,3.607908935546875,0.03987500071525574,0.06421250104904175,0.011687500402331352
1750560850702514000,3.617513916015625,0.029975000768899918,0.09473749995231628,-0.020075000822544098
1750560850712118800,3.627118896484375,0.029975000768899918,0.0812624990940094,-0.050599999725818634
1750560850721723400,3.636723388671875,0.03368749842047691,0.03492499887943268,-0.06407500058412552
1750560850731328500,3.64632861328125,0.031212499365210533,-0.018837500363588333,-0.060362499207258224
1750560850740933400,3.655933349609375,0.016637500375509262,-0.07012499868869781,-0.04455000162124634
1750560850750538200,3.665538330078125,0.0031624999828636646,-0.09212499856948853,-0.016362499445676804
1750560850760143000,3.67514306640625,-0.0005499999970197678,-0.07012499868869781,0.014162499457597733
1750560850769747700,3.684747802734375,0.0006874999962747097,-0.0017874999903142452,0.028737500309944153
1750560850779352600,3.6943525390625,0.010449999943375587,0.08002500236034393,0.016637500375509262
1750560850788957700,3.703957763671875,0.021449999883770943,0.12168750166893005,-0.02502499893307686
1750560850798562600,3.7135625,0.022687500342726707,0.1106875017285347,-0.05912499874830246
1750560850808167200,3.723167236328125,0.014162499457597733,0.06421250104904175,-0.05912499874830246
1750560850817772000,3.73277197265625,-0.006599999964237213,-0.010312499478459358,-0.036024998873472214
1750560850827377000,3.742376953125,-0.02983750030398369,-0.08236250281333923,-0.0005499999970197678
1750560850836981800,3.751981689453125,-0.038362499326467514,-0.11783749610185623,0.028737500309944153
1750560850846586600,3.761586669921875,-0.038362499326467514,-0.11659999936819077,0.03739999979734421
1750560850856191500,3.77119140625,-0.02488750033080578,-0.07012499868869781,0.04097500070929527
1750560850865796400,3.78079638671875,0.004399999976158142,-0.005362499970942736,0.04221250116825104
1750560850875401200,3.790401123046875,0.03492499887943268,0.03244999796152115,0.03616249933838844
1750560850885006000,3.800006103515625,0.05321250110864639,0.0494999997317791,0.025162499397993088
1750560850894610700,3.809610595703125,0.05197500064969063,0.05197500064969063,0.007974999956786633
1750560850904215800,3.8192158203125,0.031212499365210533,0.03973750025033951,-0.006599999964237213
1750560850913820700,3.828820556640625,0.004399999976158142,0.016499999910593033,-0.010312499478459358
1750560850923425300,3.83842529296875,-0.013887500390410423,-0.022549999877810478,0.0031624999828636646
1750560850933030100,3.848030029296875,-0.01759999990463257,-0.060362499207258224,0.031212499365210533
1750560850942634800,3.857634765625,-0.011549999937415123,-0.06159999966621399,0.05444999784231186
1750560850952239900,3.867239990234375,-0.012787500396370888,-0.02502499893307686,0.04839999973773956
1750560850961844700,3.8768447265625,-0.010312499478459358,0.025162499397993088,0.018975000828504562
1750560850971449600,3.88644970703125,0.0019249999895691872,0.05444999784231186,-0.022549999877810478
1750560850981054200,3.89605419921875,0.016637500375509262,0.05321250110864639,-0.053075000643730164
1750560850990659300,3.905659423828125,0.023924998939037323,0.025162499397993088,-0.048124998807907104
1750560851000264200,3.91526416015625,0.016637500375509262,-0.014024999924004078,-0.016362499445676804
1750560851009869000,3.924869140625,-0.0017874999903142452,-0.038362499326467514,0.018975000828504562
1750560851019473700,3.9344736328125,-0.022549999877810478,-0.038362499326467514,0.03739999979734421
1750560851029078500,3.94407861328125,-0.031075000762939453,-0.020075000822544098,0.026399999856948853
1750560851038683600,3.95368359375,-0.018837500363588333,0.004399999976158142,0.004399999976158142
1750560851048288300,3.963288330078125,0.008112499490380287,0.016499999910593033,-0.007837500423192978
1750560851057893000,3.97289306640625,0.031212499365210533,0.005499999970197678,-0.0042624999769032
1750560851067498000,3.982498046875,0.03616249933838844,-0.006599999964237213,0.006737499963492155
1750560851077102800,3.992102783203125,0.028875000774860382,-0.007837500423192978,0.009212499484419823
1750560851086707700,4.001707763671875,0.008112499490380287,-0.009074999950826168,-0.005362499970942736
1750560851096312600,4.0113125,-0.006599999964237213,-0.005362499970942736,-0.014024999924004078
1750560851105917400,4.02091748046875,-0.005362499970942736,-0.006599999964237213,-0.010312499478459358
1750560851115522300,4.030522216796875,-0.0028874999843537807,-0.010312499478459358,-0.0005499999970197678
1750560851125127200,4.040127197265625,0.004399999976158142,-0.0005499999970197678,0.0056374999694526196
1750560851134731800,4.049731689453125,0.015399999916553497,0.005499999970197678,-0.006599999964237213
1750560851144337000,4.0593369140625,0.017875000834465027,-0.0017874999903142452,-0.02736249938607216
1750560851153941800,4.068941650390625,0.015399999916553497,-0.007837500423192978,-0.040837500244379044
1750560851163546600,4.078546630859375,0.0056374999694526196,0.006737499963492155,-0.04331250116229057
1750560851173151500,4.0881513671875,-0.007837500423192978,0.04097500070929527,-0.04331250116229057
1750560851182756000,4.097756103515625,-0.005362499970942736,0.06421250104904175,-0.04331250116229057
1750560851192361000,4.10736083984375,0.008112499490380287,0.05926249921321869,-0.03478749841451645
1750560851201965600,4.116965576171875,0.021449999883770943,0.03616249933838844,-0.015124999918043613
1750560851211570700,4.12657080078125,0.023924998939037323,0.0031624999828636646,0.009212499484419823
1750560851221175600,4.136175537109375,0.011687500402331352,-0.03478749841451645,0.031212499365210533
1750560851230780400,4.145780517578125,-0.005362499970942736,-0.06655000150203705,0.04468749836087227
1750560851240385300,4.15538525390625,-0.028599999845027924,-0.09955000132322311,0.03244999796152115
1750560851249990000,4.164989990234375,-0.05431250110268593,-0.1093124970793724,0.011687500402331352
1750560851259594800,4.1745947265625,-0.04936249926686287,-0.04331250116229057,-0.006599999964237213
1750560851269200000,4.184199951171875,-0.028599999845027924,0.04097500070929527,-0.045787498354911804
1750560851278804700,4.1938046875,-0.0005499999970197678,0.08744999766349792,-0.09212499856948853
1750560851288409600,4.20340966796875,0.022687500342726707,0.08744999766349792,-0.11055000126361847
1750560851298014200,4.21301416015625,0.03244999796152115,0.05321250110864639,-0.0835999995470047
1750560851307619000,4.222619140625,0.031212499365210533,-0.007837500423192978,-0.02502499893307686
1750560851317224200,4.23222412109375,0.027637500315904617,-0.053075000643730164,0.03973750025033951
1750560851326828800,4.241828857421875,0.011687500402331352,-0.06655000150203705,0.06421250104904175
1750560851336433700,4.25143359375,-0.0028874999843537807,-0.05431250110268593,0.03973750025033951
1750560851346038500,4.26103857421875,-0.004124999977648258,-0.020075000822544098,-0.007837500423192978
1750560851355643400,4.270643310546875,0.014162499457597733,0.012924999929964542,-0.060362499207258224
1750560851365248300,4.280248291015625,0.05939999967813492,0.03368749842047691,-0.10312499850988388
1750560851374853000,4.28985302734375,0.09350000321865082,0.027499999850988388,-0.1313125044107437
1750560851384458000,4.2994580078125,0.09116250276565552,0.0019249999895691872,-0.09831249713897705
1750560851394062800,4.309062744140625,0.07163749635219574,-0.014024999924004078,-0.016362499445676804
1750560851403667500,4.31866748046875,0.03863750025629997,-0.06159999966621399,0.06792499870061874
1750560851413272600,4.3282724609375,0.006874999962747097,-0.10807500034570694,0.1522125005722046
1750560851422877400,4.33787744140625,-0.012787500396370888,-0.11412499845027924,0.20473749935626984
1750560851432482000,4.34748193359375,-0.02488750033080578,-0.08855000138282776,0.18273749947547913
1750560851442087000,4.3570869140625,-0.05664999783039093,-0.048124998807907104,0.09350000321865082
1750560851451691800,4.36669189453125,-0.09831249713897705,0.020212499424815178,-0.015124999918043613
1750560851461296600,4.376296630859375,-0.12759999930858612,0.09473749995231628,-0.09831249713897705
1750560851470901200,4.3859013671875,-0.1251250058412552,0.12278749793767929,-0.13612499833106995
1750560851480506400,4.39550634765625,-0.10683749616146088,0.10821250081062317,-0.13859999179840088
1750560851490111200,4.405111328125,-0.13241249322891235,0.1387374997138977,-0.1373624950647354
1750560851499716000,4.414716064453125,-0.2937000095844269,0.25850000977516174,-0.1373624950647354
1750560851509320700,4.42432080078125,-0.7128000259399414,0.5003625154495239,-0.09336250275373459
1750560851518925600,4.433925537109375,-1.3993375301361084,0.7727500200271606,-0.04207500070333481
1750560851528530400,4.443530517578125,-2.377924919128418,0.7959874868392944,0.03849999979138374
1750560851538135600,4.453135498046875,-3.3394625186920166,0.46488749980926514,0.21931250393390656
1750560851547740200,4.462740234375,-3.917375087738037,-0.30841249227523804,0.38554999232292175
1750560851557345000,4.472344970703125,-4.205574989318848,-1.2979999780654907,0.526075005531311
1750560851566950000,4.481949951171875,-4.424337387084961,-2.2741124629974365,0.6921749711036682
1750560851576554500,4.491554443359375,-4.673487663269043,-2.8422625064849854,0.9096999764442444
1750560851586159600,4.50115966796875,-4.673487663269043,-2.7347373962402344,1.133275032043457
1750560851595764500,4.510764404296875,-4.375387668609619,-2.1470625400543213,1.2113749980926514
1750560851605369300,4.520369384765625,-3.7780873775482178,-1.205187439918518,1.1405625343322754
1750560851614974200,4.52997412109375,-2.9606499671936035,-0.34869998693466187,0.8974624872207642
1750560851624578800,4.539578857421875,-2.1190125942230225,0.12044999748468399,0.5126000046730042
1750560851634184000,4.549183837890625,-1.400575041770935,0.06544999778270721,0.17297500371932983
1750560851643788800,4.558788818359375,-0.9583749771118164,-0.319412499666214,-0.02736249938607216
1750560851653393700,4.5683935546875,-0.7506124973297119,-0.6382749676704407,-0.13983750343322754
1750560851662998500,4.57799853515625,-0.5637499690055847,-0.8533250093460083,-0.25341248512268066
1750560851672603100,4.58760302734375,-0.3144625127315521,-1.0536625385284424,-0.40617498755455017
1750560851682208000,4.5972080078125,-0.0028874999843537807,-1.1269500255584717,-0.4879874885082245
1750560851691813000,4.606813232421875,0.3830749988555908,-1.0988999605178833,-0.454987496137619
1750560851701417700,4.616417724609375,0.9022749662399292,-1.1232374906539917,-0.3499374985694885
1750560851711022600,4.626022705078125,1.5559500455856323,-1.0854250192642212,-0.19965000450611115
1750560851720627500,4.63562744140625,2.3170125484466553,-0.9351375102996826,-0.02736249938607216
1750560851730232000,4.645232177734375,2.9657375812530518,-0.6028000116348267,-0.0017874999903142452
1750560851739837200,4.654837158203125,3.321312427520752,0.03616249933838844,-0.2046000063419342
1750560851749442000,4.664442138671875,3.485074996948242,0.6628875136375427,-0.5698000192642212
1750560851759047000,4.674046875,3.543649911880493,0.890037477016449,-0.9571374654769897
1750560851768651500,4.683651611328125,3.5326499938964844,0.7251750230789185,-1.1269500255584717
1750560851778256400,4.69325634765625,3.5706000328063965,0.30855000019073486,-0.9546625018119812
1750560851787861200,4.702861328125,3.4753124713897705,-0.18617500364780426,-0.6883249878883362
1750560851797466000,4.712466064453125,3.063499927520752,-0.439175009727478,-0.5307499766349792
1750560851807071000,4.722071044921875,2.3732500076293945,-0.1691250056028366,-0.4721750020980835
1750560851816675800,4.73167578125,1.6389999389648438,0.3073124885559082,-0.40617498755455017
1750560851826280700,4.74128076171875,1.1357499361038208,0.4515500068664551,-0.22783750295639038
1750560851835885600,4.750885498046875,0.8925125002861023,0.28049999475479126,0.05321250110864639
1750560851845490400,4.760490478515625,0.8131750226020813,-0.02502499893307686,0.35007500648498535
1750560851855095300,4.77009521484375,0.7581750154495239,-0.23759999871253967,0.5273125171661377
1750560851864700200,4.7797001953125,0.6676999926567078,-0.2681249976158142,0.5431249737739563
1750560851874305000,4.789304931640625,0.5211250185966492,-0.17407499253749847,0.43188750743865967
1750560851883910000,4.798909912109375,0.3623124957084656,-0.026262499392032623,0.279262512922287
1750560851893514800,4.8085146484375,0.21326249837875366,0.09721250087022781,0.12292499840259552
1750560851903119400,4.818119384765625,0.07768750190734863,0.1985500007867813,0.012924999929964542
1750560851912724500,4.827724365234375,-0.028599999845027924,0.4025999903678894,-0.045787498354911804
1750560851922329000,4.8373291015625,-0.038362499326467514,0.6762250065803528,-0.09336250275373459
1750560851931934000,4.846933837890625,0.03863750025629997,0.7984625101089478,-0.14836250245571136
1750560851941538800,4.856538818359375,0.148499995470047,0.7397499680519104,-0.17159999907016754
1750560851951143400,4.866143310546875,0.2340250015258789,0.5333625078201294,-0.1434125006198883
1750560851960748800,4.875748779296875,0.23278750479221344,0.3207874894142151,-0.06778749823570251
1750560851970353400,4.885353515625,0.13997499644756317,0.19249999523162842,0.03973750025033951
1750560851979958300,4.894958251953125,-0.031075000762939453,0.116737499833107,0.13626250624656677
1750560851989563100,4.904563232421875,-0.17393749952316284,0.03244999796152115,0.1985500007867813
1750560851999167700,4.914167724609375,-0.2387000024318695,-0.05912499874830246,0.227974995970726
1750560852008772900,4.92377294921875,-0.24365000426769257,-0.1471250057220459,0.22921249270439148
1750560852018377500,4.93337744140625,-0.2106499969959259,-0.18988749384880066,0.19978749752044678
1750560852027982300,4.942982421875,-0.1508374959230423,-0.10188750177621841,0.15826250612735748
1750560852037587200,4.952587158203125,-0.06407500058412552,0.06544999778270721,0.09844999760389328
1750560852047192000,4.962192138671875,0.03739999979734421,0.20350000262260437,0.014162499457597733
1750560852056797000,4.971796875,0.1143999993801117,0.26455000042915344,-0.07878749817609787
1750560852066401800,4.98140185546875,0.12773749232292175,0.2523125112056732,-0.15441249310970306
1750560852076006700,4.991006591796875,0.08249999582767487,0.19373749196529388,-0.19483749568462372
1750560852085611500,5.000611572265625,0.0019249999895691872,0.10092499852180481,-0.17765000462532043
1750560852095216400,5.01021630859375,-0.060362499207258224,0.0019249999895691872,-0.09583749622106552
1750560852104821000,5.019821044921875,-0.0798875018954277,-0.0775500014424324,0.014162499457597733
1750560852114426000,5.029426025390625,-0.06407500058412552,-0.12264999747276306,0.09350000321865082
1750560852124031000,5.039031005859375,-0.021312499418854713,-0.10807500034570694,0.10944999754428864
1750560852133635600,5.048635498046875,0.027637500315904617,-0.06407500058412552,0.07644999772310257
1750560852143240400,5.058240478515625,0.05073750019073486,-0.04331250116229057,0.009212499484419823
1750560852152845300,5.06784521484375,0.03244999796152115,-0.018837500363588333,-0.06888750195503235
1750560852162450400,5.077450439453125,-0.005362499970942736,0.017737500369548798,-0.1251250058412552
1750560852172055000,5.087054931640625,-0.02736249938607216,0.06421250104904175,-0.1251250058412552
1750560852181660000,5.096659912109375,-0.022549999877810478,0.09102500230073929,-0.09459999948740005
1750560852191264800,5.1062646484375,-0.005362499970942736,0.0752125009894371,-0.05555000156164169
1750560852200869600,5.11586962890625,0.021449999883770943,0.0494999997317791,-0.01759999990463257
1750560852210474200,5.12547412109375,0.04468749836087227,0.025162499397993088,0.006737499963492155
1750560852220079400,5.135079345703125,0.04963750019669533,0.0031624999828636646,0.009212499484419823
1750560852229684200,5.144684326171875,0.04468749836087227,0.014162499457597733,0.007974999956786633
1750560852239289000,5.1542890625,0.028875000774860382,0.04468749836087227,-0.0005499999970197678
1750560852248894000,5.16389404296875,0.009212499484419823,0.0812624990940094,-0.010312499478459358
1750560852258498600,5.17349853515625,-0.015124999918043613,0.11797499656677246,-0.022549999877810478
1750560852268103400,5.183103515625,-0.02983750030398369,0.14121249318122864,-0.04331250116229057
1750560852277708300,5.192708251953125,-0.011549999937415123,0.13997499644756317,-0.06407500058412552
1750560852287313200,5.202313232421875,0.010449999943375587,0.11797499656677246,-0.07631249725818634
1750560852296918000,5.21191796875,0.020212499424815178,0.06668750196695328,-0.07631249725818634
1750560852306523000,5.22152294921875,0.022687500342726707,-0.0030249999836087227,-0.05678749829530716
1750560852316127700,5.231127685546875,0.027637500315904617,-0.06283749639987946,-0.0005499999970197678
1750560852325732600,5.240732666015625,0.029975000768899918,-0.0873124971985817,0.07644999772310257
1750560852335337500,5.25033740234375,0.026399999856948853,-0.06778749823570251,0.12526249885559082
1750560852344942300,5.2599423828125,0.03368749842047691,-0.007837500423192978,0.12402500212192535
1750560852354547200,5.269547119140625,0.05197500064969063,0.05073750019073486,0.08016250282526016
1750560852364152000,5.279152099609375,0.0752125009894371,0.08002500236034393,0.03849999979138374
1750560852373756700,5.288756591796875,0.08621250092983246,0.05321250110864639,0.011687500402331352
1750560852383361500,5.298361572265625,0.08373750001192093,0.0006874999962747097,0.017737500369548798
1750560852392966400,5.30796630859375,0.07397499680519104,-0.015262499451637268,0.06421250104904175
1750560852402571300,5.3175712890625,0.06173750013113022,-0.010312499478459358,0.1106875017285347
1750560852412176100,5.327176025390625,0.07644999772310257,0.009212499484419823,0.13750000298023224
1750560852421781000,5.336781005859375,0.10339999943971634,0.04221250116825104,0.11550000309944153
1750560852431385600,5.346385498046875,0.12416250258684158,0.0752125009894371,0.0471624992787838
1750560852440990700,5.35599072265625,0.12168750166893005,0.13021250069141388,-0.040837500244379044
1750560852450595300,5.36559521484375,0.09721250087022781,0.15344999730587006,-0.11783749610185623
1750560852460200400,5.375200439453125,0.06421250104904175,0.11797499656677246,-0.14464999735355377
1750560852469805000,5.38480517578125,0.025162499397993088,0.06544999778270721,-0.12031249701976776
1750560852479410000,5.394409912109375,-0.004124999977648258,0.018975000828504562,-0.06888750195503235
1750560852489014800,5.404014892578125,-0.004124999977648258,0.0019249999895691872,-0.018837500363588333
1750560852498619600,5.41361962890625,0.011687500402331352,0.018975000828504562,0.010449999943375587
1750560852508224500,5.423224609375,0.021449999883770943,0.05321250110864639,0.022687500342726707
1750560852517829400,5.432829345703125,0.03368749842047691,0.0812624990940094,0.028737500309944153
1750560852527434200,5.442434326171875,0.03368749842047691,0.08744999766349792,0.017737500369548798
1750560852537039000,5.4520390625,0.020212499424815178,0.06668750196695328,-0.006599999964237213
1750560852546643700,5.461643798828125,0.008112499490380287,0.0031624999828636646,-0.01759999990463257
1750560852556248800,5.471248779296875,-0.006599999964237213,-0.08112499862909317,-0.0042624999769032
1750560852565853700,5.480853759765625,-0.023787500336766243,-0.12759999930858612,0.03244999796152115
1750560852575458600,5.49045849609375,-0.022549999877810478,-0.09955000132322311,0.05816249921917915
1750560852585063400,5.5000634765625,0.0019249999895691872,-0.0518375001847744,0.03849999979138374
1750560852594668000,5.50966796875,0.04468749836087227,-0.011549999937415123,-0.0005499999970197678
1750560852604273000,5.51927294921875,0.08249999582767487,0.03244999796152115,-0.028599999845027924
1750560852613877800,5.528877685546875,0.09597499668598175,0.08992499858140945,-0.031075000762939453
1750560852623482600,5.538482666015625,0.08744999766349792,0.10821250081062317,-0.010312499478459358
1750560852633087500,5.54808740234375,0.06916250288486481,0.0789249986410141,0.023924998939037323
1750560852642692400,5.5576923828125,0.03987500071525574,0.021449999883770943,0.05692499876022339
1750560852652297000,5.567296875,-0.0005499999970197678,-0.03712499886751175,0.05444999784231186
1750560852661901800,5.57690185546875,-0.04455000162124634,-0.06655000150203705,0.020212499424815178
1750560852671506700,5.586506591796875,-0.06407500058412552,-0.04331250116229057,-0.021312499418854713
1750560852681111800,5.59611181640625,-0.04455000162124634,0.0031624999828636646,-0.053075000643730164
1750560852690716700,5.605716552734375,-0.0028874999843537807,0.04592499881982803,-0.07507500052452087
1750560852700321300,5.6153212890625,0.03492499887943268,0.08249999582767487,-0.08236250281333923
1750560852709926100,5.624926025390625,0.04839999973773956,0.11426249891519547,-0.08112499862909317
1750560852719530800,5.63453076171875,0.03739999979734421,0.12773749232292175,-0.06407500058412552
1750560852729135900,5.644135986328125,0.012924999929964542,0.1106875017285347,-0.03478749841451645
1750560852738740700,5.65374072265625,-0.011549999937415123,0.05816249921917915,-0.007837500423192978
1750560852748345600,5.663345703125,-0.018837500363588333,-0.031075000762939453,0.018975000828504562
1750560852757950500,5.672950439453125,-0.022549999877810478,-0.11412499845027924,0.03492499887943268
1750560852767555300,5.682555419921875,-0.031075000762939453,-0.12759999930858612,0.020212499424815178
1750560852777160200,5.69216015625,-0.02488750033080578,-0.07383749634027481,-0.02983750030398369
1750560852786765000,5.70176513671875,-0.012787500396370888,0.010449999943375587,-0.08855000138282776
1750560852796370000,5.711369873046875,0.004399999976158142,0.06668750196695328,-0.10807500034570694
1750560852805974500,5.720974609375,0.016637500375509262,0.08002500236034393,-0.0775500014424324
1750560852815579400,5.730579345703125,0.006874999962747097,0.0494999997317791,-0.016362499445676804
1750560852825184300,5.740184326171875,-0.010312499478459358,-0.010312499478459358,0.05073750019073486
1750560852834789000,5.7497890625,-0.011549999937415123,-0.060362499207258224,0.09844999760389328
1750560852844394000,5.75939404296875,-0.0028874999843537807,-0.07136250287294388,0.09473749995231628
1750560852853998800,5.768998779296875,0.015399999916553497,-0.03355000168085098,0.05321250110864639
1750560852863603700,5.778603759765625,0.03244999796152115,0.004399999976158142,0.004399999976158142
1750560852873208300,5.788208251953125,0.04097500070929527,0.025162499397993088,-0.021312499418854713
1750560852882813200,5.797813232421875,0.03616249933838844,0.03973750025033951,-0.026124998927116394
1750560852892418000,5.80741796875,0.03244999796152115,0.060499999672174454,-0.02502499893307686
1750560852902023000,5.81702294921875,0.03368749842047691,0.10449999570846558,-0.03231250122189522
1750560852911627800,5.826627685546875,0.026399999856948853,0.10944999754428864,-0.048124998807907104
1750560852921232600,5.836232666015625,0.010449999943375587,0.0812624990940094,-0.05678749829530716
1750560852930837500,5.84583740234375,-0.007837500423192978,0.03616249933838844,-0.045787498354911804
1750560852940442400,5.8554423828125,-0.022549999877810478,-0.012787500396370888,-0.018837500363588333
1750560852950047200,5.865047119140625,-0.03231250122189522,-0.06902500241994858,0.009212499484419823
1750560852959652000,5.874652099609375,-0.026124998927116394,-0.10312499850988388,0.04468749836087227
1750560852969257000,5.884257080078125,-0.015124999918043613,-0.09212499856948853,0.07768750190734863
1750560852978861800,5.89386181640625,-0.012787500396370888,-0.040837500244379044,0.0812624990940094
1750560852988466400,5.903466552734375,-0.006599999964237213,0.018975000828504562,0.03739999979734421
1750560852998071300,5.9130712890625,0.004399999976158142,0.048262499272823334,-0.031075000762939453
1750560853007676200,5.92267626953125,0.006874999962747097,0.05197500064969063,-0.08236250281333923
1750560853017281000,5.932281005859375,-0.004124999977648258,0.03244999796152115,-0.09707500040531158
1750560853026886000,5.941885986328125,-0.016362499445676804,0.009212499484419823,-0.07507500052452087
1750560853036490800,5.95149072265625,-0.020075000822544098,0.012924999929964542,-0.038362499326467514
1750560853046095400,5.961095458984375,-0.012787500396370888,0.03368749842047691,-0.01759999990463257
1750560853055700500,5.970700439453125,0.004399999976158142,0.060499999672174454,-0.01759999990463257
1750560853065305300,5.980305419921875,0.018975000828504562,0.06421250104904175,-0.028599999845027924
1750560853074910200,5.98991015625,0.023924998939037323,0.04468749836087227,-0.036024998873472214
1750560853084514800,5.999514892578125,0.020212499424815178,0.026399999856948853,-0.04207500070333481
1750560853094119700,6.00911962890625,0.017875000834465027,0.004399999976158142,-0.04702499881386757
1750560853103724500,6.018724609375,0.009212499484419823,-0.01759999990463257,-0.053075000643730164
1750560853113329700,6.02832958984375,0.0006874999962747097,-0.0042624999769032,-0.05678749829530716
1750560853122934300,6.037934326171875,-0.016362499445676804,0.027499999850988388,-0.06283749639987946
1750560853132539100,6.0475390625,-0.02736249938607216,0.04221250116825104,-0.06407500058412552
1750560853142144000,6.05714404296875,-0.018837500363588333,0.022687500342726707,-0.038362499326467514
1750560853151748600,6.06674853515625,-0.0017874999903142452,-0.006599999964237213,0.006737499963492155
1750560853161353700,6.076353759765625,0.0031624999828636646,-0.02736249938607216,0.03244999796152115
1750560853170958600,6.08595849609375,-0.006599999964237213,-0.03231250122189522,0.031212499365210533
1750560853180563500,6.0955634765625,-0.01759999990463257,-0.020075000822544098,0.017737500369548798
1750560853190168300,6.105168212890625,-0.013887500390410423,-0.0030249999836087227,0.009212499484419823
1750560853199773000,6.11477294921875,0.006874999962747097,0.010449999943375587,0.007974999956786633
1750560853209378000,6.1243779296875,0.017875000834465027,0.023924998939037323,-0.0005499999970197678
1750560853218983000,6.13398291015625,0.009212499484419823,0.04221250116825104,-0.015124999918043613
1750560853228587500,6.14358740234375,-0.010312499478459358,0.05692499876022339,-0.02502499893307686
1750560853238192400,6.1531923828125,-0.023787500336766243,0.03368749842047691,-0.026124998927116394
1750560853247797200,6.16279736328125,-0.016362499445676804,-0.020075000822544098,-0.007837500423192978
1750560853257402000,6.172402099609375,0.0006874999962747097,-0.05678749829530716,0.028737500309944153
1750560853267007000,6.182007080078125,0.006874999962747097,-0.045787498354911804,0.055687498301267624
1750560853276611800,6.19161181640625,0.006874999962747097,0.0019249999895691872,0.06173750013113022
1750560853286216700,6.201216796875,0.010449999943375587,0.03973750025033951,0.03973750025033951
1750560853295821600,6.210821533203125,0.0031624999828636646,0.031212499365210533,0.0019249999895691872
1750560853305426400,6.220426513671875,-0.011549999937415123,0.021449999883770943,-0.03478749841451645
1750560853315031000,6.230031005859375,-0.021312499418854713,0.022687500342726707,-0.05912499874830246
1750560853324636000,6.239635986328125,-0.020075000822544098,0.016499999910593033,-0.048124998807907104
1750560853334240800,6.24924072265625,-0.010312499478459358,0.011687500402331352,-0.007837500423192978
1750560853343845600,6.258845703125,0.0019249999895691872,0.007974999956786633,0.03368749842047691
1750560853353450500,6.268450439453125,0.018975000828504562,-0.0042624999769032,0.0494999997317791
1750560853363055400,6.278055419921875,0.03987500071525574,-0.012787500396370888,0.0471624992787838
1750560853372660000,6.287659912109375,0.04839999973773956,-0.0030249999836087227,0.04097500070929527
1750560853382264800,6.297264892578125,0.031212499365210533,0.012924999929964542,0.016637500375509262
1750560853391870000,6.306869873046875,0.009212499484419823,0.017737500369548798,-0.006599999964237213
1750560853401474600,6.316474609375,-0.004124999977648258,0.012924999929964542,-0.021312499418854713
1750560853411079400,6.326079345703125,-0.020075000822544098,-0.009074999950826168,-0.03355000168085098
1750560853420684300,6.335684326171875,-0.02736249938607216,-0.02983750030398369,-0.038362499326467514
1750560853430289200,6.3452890625,-0.02983750030398369,-0.04455000162124634,-0.028599999845027924
1750560853439894300,6.354894287109375,-0.02488750033080578,-0.03959999978542328,0.016637500375509262
1750560853449499000,6.364498779296875,-0.020075000822544098,-0.026262499392032623,0.06916250288486481
1750560853459103700,6.374103759765625,-0.009074999950826168,-0.007837500423192978,0.10449999570846558
1750560853468708400,6.383708251953125,0.012924999929964542,0.006737499963492155,0.11192499846220016
1750560853478313500,6.3933134765625,0.029975000768899918,0.023924998939037323,0.08249999582767487
1750560853487918300,6.40291845703125,0.03244999796152115,0.029975000768899918,0.023924998939037323
1750560853497523200,6.412523193359375,0.021449999883770943,0.018975000828504562,-0.04331250116229057
1750560853507127800,6.4221279296875,-0.0028874999843537807,-0.007837500423192978,-0.0873124971985817
1750560853516732700,6.431732666015625,-0.028599999845027924,-0.03959999978542328,-0.08112499862909317
1750560853526337500,6.441337646484375,-0.038362499326467514,-0.03959999978542328,-0.036024998873472214
1750560853535942700,6.450942626953125,-0.02736249938607216,-0.021312499418854713,0.009212499484419823
1750560853545547500,6.460547607421875,0.0056374999694526196,-0.006599999964237213,0.03492499887943268
1750560853555152100,6.470152099609375,0.03244999796152115,0.014162499457597733,0.028737500309944153
1750560853564757000,6.479757080078125,0.04839999973773956,0.020212499424815178,-0.006599999964237213
1750560853574361900,6.48936181640625,0.05197500064969063,0.012924999929964542,-0.04455000162124634
1750560853583966700,6.498966796875,0.04221250116825104,0.0019249999895691872,-0.057887498289346695
1750560853593571600,6.508571533203125,0.029975000768899918,0.014162499457597733,-0.04936249926686287
1750560853603176400,6.518176513671875,0.009212499484419823,0.04592499881982803,-0.036024998873472214
1750560853612781300,6.52778125,-0.0028874999843537807,0.05926249921321869,-0.010312499478459358
1750560853622386000,6.537385986328125,-0.038362499326467514,0.06297499686479568,0.016637500375509262
1750560853631990800,6.54699072265625,-0.11288750171661377,0.10573749989271164,0.05073750019073486
1750560853641595600,6.556595703125,-0.2656500041484833,0.24255000054836273,0.0752125009894371
1750560853651200800,6.56620068359375,-0.6003249883651733,0.489362508058548,0.0789249986410141
1750560853660805400,6.575805419921875,-1.1012375354766846,0.671412467956543,0.07150000333786011
1750560853670410200,6.58541015625,-1.8537750244140625,0.5981249809265137,0.11302500218153
1750560853680014800,6.595014892578125,-2.775024890899658,0.14121249318122864,0.295074999332428
1750560853689620000,6.604619873046875,-3.702324867248535,-0.7433249950408936,0.5296499729156494
1750560853699224800,6.614224853515625,-4.479337692260742,-1.6730999946594238,0.7752249836921692
1750560853708829700,6.62382958984375,-5.065774917602539,-2.522162437438965,1.0000375509262085
1750560853718434600,6.6334345703125,-5.4982123374938965,-2.869075059890747,1.2065625190734863
1750560853728039200,6.6430390625,-5.547025203704834,-2.684687376022339,1.4203749895095825
1750560853737644000,6.65264404296875,-5.173162460327148,-2.164249897003174,1.5632375478744507
1750560853747249200,6.662249267578125,-4.457337379455566,-1.4165250062942505,1.562000036239624
1750560853756853800,6.671853759765625,-3.566612482070923,-0.794612467288971,1.34089994430542
1750560853766458600,6.681458740234375,-2.718787431716919,-0.4147000014781952,0.9340375065803528
1750560853776063500,6.6910634765625,-2.0554873943328857,-0.17036250233650208,0.45278748869895935
1750560853785668600,6.700668701171875,-1.6486250162124634,-0.04455000162124634,-0.038362499326467514
1750560853795273500,6.7102734375,-1.4286249876022339,0.05444999784231186,-0.5050374865531921
1750560853804878000,6.719878173828125,-1.2062875032424927,0.10821250081062317,-0.8973249793052673
1750560853814483000,6.72948291015625,-0.8728500008583069,0.0752125009894371,-1.12090003490448
1750560853824088000,6.739088134765625,-0.43174999952316284,0.03492499887943268,-1.1061874628067017
1750560853833692700,6.748692626953125,0.03616249933838844,0.023924998939037323,-0.9241374731063843
1750560853843297500,6.758297607421875,0.5198875069618225,0.026399999856948853,-0.6822749972343445
1750560853852902100,6.767902099609375,1.067275047302246,0.06421250104904175,-0.44769999384880066
1750560853862507000,6.777507080078125,1.6354249715805054,0.2633124887943268,-0.2681249976158142
1750560853872112000,6.787112060546875,2.2107250690460205,0.5126000046730042,-0.17641249299049377
1750560853881717000,6.796717041015625,2.8033499717712402,0.6224625110626221,-0.16060000658035278
1750560853891321900,6.80632177734375,3.3482625484466553,0.5431249737739563,-0.21188749372959137
1750560853900926500,6.815926513671875,3.8087499141693115,0.27073749899864197,-0.3218874931335449
1750560853910531300,6.82553125,4.158137321472168,0.048262499272823334,-0.5075125098228455
1750560853920136200,6.83513623046875,4.3707122802734375,0.14973749220371246,-0.8238999843597412
1750560853929741000,6.844740966796875,4.40866231918335,0.5626500248908997,-1.266237497329712
1750560853939346000,6.854345947265625,4.089799880981445,1.1600874662399292,-1.7451499700546265
1750560853948950800,6.86395068359375,3.472837448120117,1.6927624940872192,-2.062774896621704
1750560853958555600,6.8735556640625,2.806925058364868,1.7257624864578247,-2.0762500762939453
1750560853968160300,6.88316015625,2.3292500972747803,1.1650375127792358,-1.7171000242233276
1750560853977765000,6.89276513671875,2.011625051498413,0.37207499146461487,-1.0841875076293945
1750560853987370000,6.902369873046875,1.6671874523162842,-0.14836250245571136,-0.4647499918937683
1750560853996974600,6.911974609375,1.2676124572753906,-0.27912500500679016,-0.06888750195503235
1750560854006579700,6.921579833984375,0.8302249908447266,-0.17159999907016754,0.08249999582767487
1750560854016184600,6.9311845703125,0.44536250829696655,-0.10436250269412994,0.13750000298023224
1750560854025789400,6.94078955078125,0.22673749923706055,-0.19236250221729279,0.24131250381469727
1750560854035394300,6.950394287109375,0.16073749959468842,-0.34264999628067017,0.40507498383522034
1750560854044999000,6.9599990234375,0.16197499632835388,-0.4281750023365021,0.5273125171661377
1750560854054603800,6.969603759765625,0.16926249861717224,-0.37564998865127563,0.5273125171661377
1750560854064208600,6.979208740234375,0.17297500371932983,-0.19236250221729279,0.42336249351501465
1750560854073813500,6.9888134765625,0.164450004696846,0.08373750001192093,0.2609750032424927
1750560854083418400,6.99841845703125,0.17173749208450317,0.34154999256134033,0.10821250081062317
1750560854093023200,7.008023193359375,0.19002500176429749,0.4503124952316284,0.020212499424815178
1750560854102628000,7.017628173828125,0.17902499437332153,0.4465999901294708,0.009212499484419823
1750560854112232700,7.027232666015625,0.13750000298023224,0.38183748722076416,0.05444999784231186
1750560854121837600,7.036837646484375,0.08249999582767487,0.2755500078201294,0.11426249891519547
1750560854131442200,7.046442138671875,0.015399999916553497,0.14973749220371246,0.14602500200271606
1750560854141047300,7.05604736328125,-0.04455000162124634,0.017737500369548798,0.15578749775886536
1750560854150652200,7.065652099609375,-0.07631249725818634,-0.07383749634027481,0.15344999730587006
1750560854160257000,7.075257080078125,-0.0798875018954277,-0.12155000120401382,0.15344999730587006
1750560854169861600,7.084861572265625,-0.07259999960660934,-0.14464999735355377,0.15950000286102295
1750560854179466500,7.094466552734375,-0.048124998807907104,-0.10436250269412994,0.15468749403953552
1750560854189071600,7.104071533203125,0.0031624999828636646,0.009212499484419823,0.12292499840259552
1750560854198676200,7.11367626953125,0.08016250282526016,0.1264999955892563,0.04839999973773956
1750560854208281000,7.123281005859375,0.1326874941587448,0.18878750503063202,-0.05555000156164169
1750560854217886000,7.132885986328125,0.14121249318122864,0.19126249849796295,-0.1251250058412552
1750560854227490800,7.14249072265625,0.13516250252723694,0.11921250075101852,-0.1251250058412552
1750560854237095700,7.152095703125,0.11921250075101852,-0.010312499478459358,-0.050599999725818634
1750560854246700500,7.161700439453125,0.08868750184774399,-0.17036250233650208,0.06668750196695328
1750560854256305400,7.171305419921875,0.05321250110864639,-0.27293750643730164,0.164450004696846
1750560854265910000,7.180909912109375,0.022687500342726707,-0.2546499967575073,0.18273749947547913
1750560854275515000,7.190514892578125,-0.004124999977648258,-0.1508374959230423,0.11797499656677246
1750560854285119700,7.20011962890625,-0.011549999937415123,-0.014024999924004078,0.017737500369548798
1750560854294724600,7.209724609375,0.009212499484419823,0.0849749967455864,-0.07507500052452087
1750560854304329700,7.219329833984375,0.026399999856948853,0.15097500383853912,-0.1373624950647354
1750560854313934300,7.228934326171875,0.03987500071525574,0.16197499632835388,-0.14959999918937683
1750560854323539200,7.238539306640625,0.05816249921917915,0.1264999955892563,-0.1116499975323677
1750560854333143800,7.248143798828125,0.07768750190734863,0.0494999997317791,-0.03478749841451645
1750560854342748700,7.257748779296875,0.08992499858140945,-0.05431250110268593,0.05444999784231186
1750560854352353500,7.267353515625,0.08016250282526016,-0.12031249701976776,0.11550000309944153
1750560854361958700,7.276958740234375,0.028875000774860382,-0.09583749622106552,0.11550000309944153
1750560854371563300,7.286563232421875,-0.040837500244379044,-0.014024999924004078,0.05321250110864639
1750560854381168000,7.296168212890625,-0.09583749622106552,0.08868750184774399,-0.03959999978542328
1750560854390773000,7.30577294921875,-0.12759999930858612,0.13997499644756317,-0.11288750171661377
1750560854400377900,7.3153779296875,-0.12264999747276306,0.09968750178813934,-0.13007499277591705
1750560854409982700,7.324982666015625,-0.08112499862909317,0.029975000768899918,-0.08112499862909317
1750560854419587600,7.334587646484375,-0.028599999845027924,-0.02736249938607216,0.016637500375509262
1750560854429192400,7.3441923828125,-0.0017874999903142452,-0.053075000643730164,0.10821250081062317
1750560854438797300,7.35379736328125,0.0006874999962747097,-0.08112499862909317,0.16073749959468842
1750560854448402000,7.36340185546875,-0.012787500396370888,-0.09088750183582306,0.1667875051498413
1750560854458006800,7.3730068359375,-0.03712499886751175,-0.05912499874830246,0.12526249885559082
1750560854467611600,7.382611572265625,-0.05431250110268593,0.017737500369548798,0.03973750025033951
1750560854477216500,7.392216552734375,-0.0518375001847744,0.09968750178813934,-0.05678749829530716
1750560854486821400,7.4018212890625,-0.035887498408555984,0.11178749799728394,-0.1251250058412552
1750560854496426200,7.41142626953125,-0.006599999964237213,0.06297499686479568,-0.12388750165700912
1750560854506030800,7.42103076171875,0.020212499424815178,0.014162499457597733,-0.06283749639987946
1750560854515635700,7.4306357421875,0.03863750025629997,-0.005362499970942736,0.027499999850988388
1750560854525240800,7.44024072265625,0.03492499887943268,0.010449999943375587,0.10092499852180481
1750560854534845700,7.449845703125,0.017875000834465027,0.03726249933242798,0.11797499656677246
1750560854544450300,7.4594501953125,-0.01759999990463257,0.07273750007152557,0.07644999772310257
1750560854554055200,7.46905517578125,-0.05664999783039093,0.08373750001192093,0.022687500342726707
1750560854563660000,7.478659912109375,-0.09336250275373459,0.06421250104904175,-0.022549999877810478
1750560854573264600,7.4882646484375,-0.12759999930858612,0.014162499457597733,-0.04455000162124634
1750560854582869800,7.497869873046875,-0.13007499277591705,-0.06159999966621399,-0.020075000822544098
1750560854592474400,7.507474365234375,-0.10312499850988388,-0.11055000126361847,0.03739999979734421
1750560854602079500,7.51707958984375,-0.06531249731779099,-0.10188750177621841,0.09226249903440475
1750560854611684000,7.52668408203125,-0.020075000822544098,-0.05431250110268593,0.11192499846220016
1750560854621289000,7.5362890625,0.017875000834465027,0.0006874999962747097,0.09473749995231628
1750560854630893800,7.545893798828125,0.0471624992787838,0.03726249933242798,0.060499999672174454
1750560854640498700,7.555498779296875,0.06792499870061874,0.029975000768899918,0.021449999883770943
1750560854650103600,7.565103515625,0.06421250104904175,0.006737499963492155,-0.012787500396370888
1750560854659708400,7.57470849609375,0.03368749842047691,0.0019249999895691872,-0.04455000162124634
1750560854669313300,7.584313232421875,0.0006874999962747097,0.03244999796152115,-0.08607500046491623
1750560854678918000,7.59391796875,-0.020075000822544098,0.08621250092983246,-0.12264999747276306
1750560854688522800,7.603522705078125,-0.018837500363588333,0.08868750184774399,-0.1288374960422516
1750560854698127600,7.613127685546875,0.010449999943375587,0.028737500309944153,-0.0775500014424324
1750560854707732700,7.622732666015625,0.03987500071525574,-0.06159999966621399,0.011687500402331352
1750560854717337300,7.63233740234375,0.05073750019073486,-0.10683749616146088,0.08621250092983246
1750560854726942200,7.641942138671875,0.06063750013709068,-0.07631249725818634,0.09350000321865082
1750560854736547000,7.651547119140625,0.06421250104904175,-0.0005499999970197678,0.04221250116825104
1750560854746152000,7.66115185546875,0.06063750013709068,0.09350000321865082,-0.02502499893307686
1750560854755756800,7.6707568359375,0.05444999784231186,0.12278749793767929,-0.08607500046491623
1750560854765361700,7.680361572265625,0.05073750019073486,0.10092499852180481,-0.11288750171661377
1750560854774966500,7.689966552734375,0.04221250116825104,0.05692499876022339,-0.10436250269412994
1750560854784571100,7.699571044921875,0.026399999856948853,-0.0017874999903142452,-0.06159999966621399
1750560854794176000,7.709176025390625,0.004399999976158142,-0.02736249938607216,0.006737499963492155
1750560854803780900,7.71878076171875,-0.006599999964237213,-0.012787500396370888,0.07273750007152557
1750560854813385700,7.7283857421875,-0.0005499999970197678,0.020212499424815178,0.09473749995231628
1750560854822990600,7.737990478515625,0.017875000834465027,0.03368749842047691,0.06544999778270721
1750560854832595500,7.747595458984375,0.027637500315904617,0.03726249933242798,0.014162499457597733
1750560854842200000,7.757199951171875,0.029975000768899918,0.0471624992787838,-0.031075000762939453
1750560854851805000,7.766804931640625,0.021449999883770943,0.05444999784231186,-0.07012499868869781
1750560854861410000,7.77641015625,0.0056374999694526196,0.03244999796152115,-0.09336250275373459
1750560854871015000,7.786014892578125,0.0006874999962747097,0.009212499484419823,-0.08855000138282776
1750560854880619500,7.79561962890625,0.015399999916553497,0.012924999929964542,-0.060362499207258224
1750560854890224400,7.805224365234375,0.03863750025629997,0.026399999856948853,-0.022549999877810478
1750560854899829200,7.814829345703125,0.06063750013709068,0.03244999796152115,0.025162499397993088
1750560854909433900,7.824433837890625,0.06297499686479568,0.022687500342726707,0.055687498301267624
1750560854919039000,7.8340390625,0.05073750019073486,-0.0042624999769032,0.05692499876022339
1750560854928643800,7.843643798828125,0.020212499424815178,-0.036024998873472214,0.03739999979734421
1750560854938248700,7.853248779296875,-0.011549999937415123,-0.06531249731779099,0.018975000828504562
1750560854947853300,7.862853271484375,-0.022549999877810478,-0.05555000156164169,0.014162499457597733
1750560854957458200,7.872458251953125,-0.004124999977648258,-0.009074999950826168,-0.0017874999903142452
1750560854967063300,7.882063232421875,0.027637500315904617,0.03244999796152115,-0.03959999978542328
1750560854976668200,7.891668212890625,0.04468749836087227,0.0812624990940094,-0.0873124971985817
1750560854986272800,7.901272705078125,0.04468749836087227,0.12168750166893005,-0.1116499975323677
1750560854995877600,7.910877685546875,0.03739999979734421,0.09844999760389328,-0.10312499850988388
1750560855005482500,7.920482421875,0.022687500342726707,0.012924999929964542,-0.05555000156164169
1750560855015087400,7.93008740234375,0.0056374999694526196,-0.07259999960660934,0.011687500402331352
1750560855024692200,7.939692138671875,-0.012787500396370888,-0.1116499975323677,0.06544999778270721
1750560855034297000,7.949297119140625,-0.02488750033080578,-0.09459999948740005,0.08016250282526016
1750560855043902000,7.95890185546875,-0.022549999877810478,-0.04207500070333481,0.05321250110864639
1750560855053506600,7.968506591796875,-0.0005499999970197678,0.025162499397993088,0.011687500402331352
1750560855063111400,7.978111328125,0.014162499457597733,0.0812624990940094,-0.02983750030398369
1750560855072716300,7.98771630859375,0.020212499424815178,0.11302500218153,-0.05431250110268593
1750560855082321200,7.997321044921875,0.012924999929964542,0.09968750178813934,-0.06159999966621399
1750560855091926000,8.006926025390625,-0.006599999964237213,0.04592499881982803,-0.05678749829530716
1750560855101531000,8.01653076171875,-0.02983750030398369,-0.036024998873472214,-0.03712499886751175
1750560855111135700,8.0261357421875,-0.053075000643730164,-0.1116499975323677,0.0006874999962747097
1750560855120740600,8.03574072265625,-0.07259999960660934,-0.14588749408721924,0.03973750025033951
1750560855130345200,8.04534521484375,-0.06764999777078629,-0.09459999948740005,0.055687498301267624
1750560855139950300,8.054950439453124,-0.04455000162124634,0.0006874999962747097,0.03244999796152115
1750560855149555000,8.064554931640625,-0.013887500390410423,0.08868750184774399,-0.009074999950826168
1750560855159159800,8.074159912109375,0.018975000828504562,0.12773749232292175,-0.04331250116229057
1750560855168764700,8.0837646484375,0.05197500064969063,0.09473749995231628,-0.045787498354911804
1750560855178369300,8.093369384765625,0.0789249986410141,0.025162499397993088,-0.009074999950826168
1750560855187974400,8.102974365234376,0.07644999772310257,-0.02736249938607216,0.0494999997317791
1750560855197579300,8.112579345703125,0.06668750196695328,-0.05431250110268593,0.1106875017285347
1750560855207184100,8.12218408203125,0.06544999778270721,-0.06159999966621399,0.15097500383853912
1750560855216788700,8.131788818359375,0.05444999784231186,-0.04455000162124634,0.13997499644756317
1750560855226393600,8.1413935546875,0.03492499887943268,-0.018837500363588333,0.07768750190734863
1750560855235998500,8.15099853515625,0.009212499484419823,-0.0005499999970197678,0.004399999976158142
1750560855245603300,8.160603271484375,-0.006599999964237213,0.007974999956786633,-0.0518375001847744
1750560855255208200,8.170208251953126,-0.011549999937415123,0.0031624999828636646,-0.08112499862909317
1750560855264813000,8.17981298828125,-0.0017874999903142452,0.004399999976158142,-0.08483749628067017
1750560855274417700,8.189417724609376,0.017875000834465027,0.014162499457597733,-0.05912499874830246
1750560855284022800,8.199022705078125,0.04963750019669533,0.03368749842047691,-0.01759999990463257
1750560855293627400,8.20862744140625,0.07768750190734863,0.0494999997317791,0.022687500342726707
1750560855303232300,8.218232177734375,0.08139999955892563,0.03973750025033951,0.04097500070929527
1750560855312837000,8.227837158203124,0.05816249921917915,0.011687500402331352,0.023924998939037323
1750560855322442000,8.23744189453125,0.018975000828504562,-0.007837500423192978,-0.018837500363588333
1750560855332046800,8.247046875,-0.011549999937415123,-0.015262499451637268,-0.06531249731779099
1750560855341651500,8.2566513671875,-0.02488750033080578,-0.026262499392032623,-0.09088750183582306
1750560855351256300,8.26625634765625,-0.026124998927116394,-0.031075000762939453,-0.0835999995470047
1750560855360861400,8.275861328125,-0.01759999990463257,-0.022549999877810478,-0.060362499207258224
1750560855370466000,8.285466064453125,-0.012787500396370888,-0.011549999937415123,-0.045787498354911804
1750560855380071000,8.29507080078125,-0.004124999977648258,-0.0005499999970197678,-0.036024998873472214
1750560855389675800,8.30467578125,0.0019249999895691872,0.018975000828504562,-0.04207500070333481
1750560855399280600,8.31428076171875,0.004399999976158142,0.029975000768899918,-0.05555000156164169
1750560855408885500,8.323885498046875,0.0031624999828636646,0.029975000768899918,-0.05555000156164169
1750560855418490400,8.333490478515625,0.0019249999895691872,0.006737499963492155,-0.045787498354911804
1750560855428095000,8.343094970703126,0.0019249999895691872,-0.026262499392032623,-0.03355000168085098
1750560855437699800,8.352699951171875,0.0019249999895691872,-0.03478749841451645,-0.031075000762939453
1750560855447304700,8.3623046875,0.0031624999828636646,-0.02983750030398369,-0.03712499886751175
1750560855456909600,8.37190966796875,0.010449999943375587,-0.011549999937415123,-0.038362499326467514
1750560855466514400,8.381514404296874,0.016637500375509262,0.016499999910593033,-0.03478749841451645
1750560855476119000,8.391119140625,0.022687500342726707,0.027499999850988388,-0.026124998927116394
1750560855485724200,8.40072412109375,0.031212499365210533,0.028737500309944153,-0.009074999950826168
1750560855495329000,8.4103291015625,0.043449997901916504,0.021449999883770943,0.007974999956786633
1750560855504934000,8.419933837890625,0.06063750013709068,0.011687500402331352,0.020212499424815178
1750560855514538500,8.42953857421875,0.05692499876022339,0.009212499484419823,0.015399999916553497
1750560855524143400,8.439143310546875,0.03492499887943268,-0.0017874999903142452,0.0056374999694526196
1750560855533748200,8.448748291015624,0.016637500375509262,-0.021312499418854713,0.023924998939037323
1750560855543353000,8.45835302734375,-0.005362499970942736,-0.03959999978542328,0.07150000333786011
1750560855552958000,8.4679580078125,-0.012787500396370888,-0.03478749841451645,0.12526249885559082
1750560855562562800,8.477562744140625,-0.004124999977648258,-0.0005499999970197678,0.14368750154972076
1750560855572167700,8.487167724609375,0.014162499457597733,0.03244999796152115,0.10821250081062317
1750560855581772300,8.496772216796876,0.03368749842047691,0.05321250110864639,0.043449997901916504
1750560855591377400,8.50637744140625,0.04468749836087227,0.0471624992787838,-0.009074999950826168
1750560855600982300,8.515982177734376,0.03739999979734421,0.015399999916553497,-0.02983750030398369
1750560855610587000,8.5255869140625,0.015399999916553497,-0.026262499392032623,-0.010312499478459358
1750560855620191700,8.535191650390624,-0.011549999937415123,-0.050599999725818634,0.03849999979138374
1750560855629796600,8.544796630859375,-0.031075000762939453,-0.03478749841451645,0.08016250282526016
1750560855639401500,8.5544013671875,-0.03712499886751175,-0.010312499478459358,0.0752125009894371
1750560855649006300,8.56400634765625,-0.03231250122189522,0.010449999943375587,0.03244999796152115
1750560855658611200,8.573611083984375,-0.03464999794960022,0.043449997901916504,-0.02736249938607216
1750560855668215800,8.5832158203125,-0.023787500336766243,0.06916250288486481,-0.057887498289346695
1750560855677820700,8.592820556640625,-0.005362499970942736,0.05444999784231186,-0.05555000156164169
1750560855687425500,8.602425537109376,0.012924999929964542,-0.012787500396370888,-0.03712499886751175
1750560855697030400,8.612030517578125,0.025162499397993088,-0.05678749829530716,-0.005362499970942736
1750560855706635300,8.62163525390625,0.027637500315904617,-0.06283749639987946,0.012924999929964542
1750560855716240100,8.631240234375,0.026399999856948853,-0.045787498354911804,0.011687500402331352
1750560855725845000,8.640844970703125,0.023924998939037323,-0.006599999964237213,-0.006599999964237213
1750560855735449900,8.650449951171876,0.026399999856948853,-0.0030249999836087227,-0.023787500336766243
1750560855745054500,8.660054443359375,0.017875000834465027,-0.022549999877810478,0.004399999976158142
1750560855754659300,8.669659423828126,0.009212499484419823,-0.0518375001847744,0.07397499680519104
1750560855764264400,8.679264404296875,0.0019249999895691872,-0.09831249713897705,0.1289750039577484
1750560855773869300,8.688869384765624,-0.010312499478459358,-0.11659999936819077,0.15468749403953552
1750560855783474000,8.698473876953125,-0.04455000162124634,-0.0835999995470047,0.13750000298023224
1750560855793078800,8.708078857421874,-0.1153625026345253,-0.010312499478459358,0.11426249891519547
1750560855802683600,8.71768359375,-0.2961750030517578,0.07026249915361404,0.09844999760389328
1750560855812288500,8.72728857421875,-0.6700375080108643,0.1387374997138977,0.09116250276565552
1750560855821893400,8.736893310546876,-1.1404249668121338,0.1424500048160553,0.12168750166893005
1750560855831498200,8.746498291015625,-1.64614999294281,0.20473749935626984,0.19744999706745148
1750560855841102800,8.756102783203126,-2.103062391281128,0.3806000053882599,0.31459999084472656
1750560855850707700,8.765707763671875,-2.5794999599456787,0.19497500360012054,0.45278748869895935
1750560855860312300,8.775312255859374,-3.150125026702881,-0.45374998450279236,0.6335999965667725
1750560855869917400,8.78491748046875,-3.8586623668670654,-1.312712550163269,0.8302249908447266
1750560855879522300,8.794522216796874,-4.596624851226807,-1.9344874620437622,1.0367499589920044
1750560855889127200,8.804127197265625,-5.079112529754639,-2.2093498706817627,1.1943249702453613
1750560855898731800,8.813731689453125,-5.217162609100342,-2.14101243019104,1.2529000043869019
1750560855908336600,8.823336669921876,-5.055874824523926,-1.8159624338150024,1.2333749532699585
1750560855917941500,8.83294140625,-4.73096227645874,-1.4848624467849731,1.112512469291687
1750560855927546600,8.842546630859376,-4.271574974060059,-1.1452374458312988,0.9022749662399292
1750560855937151200,8.852151123046875,-3.621612548828125,-0.824037492275238,0.679937481880188
1750560855946756000,8.861756103515624,-2.855599880218506,-0.5784624814987183,0.5064125061035156
1750560855956361000,8.87136083984375,-2.0554873943328857,-0.4232249855995178,0.3940750062465668
1750560855965965600,8.880965576171874,-1.2722874879837036,-0.4404124915599823,0.28654998540878296
1750560855975570700,8.89057080078125,-0.5955125093460083,-0.45141249895095825,0.12168750166893005
1750560855985175600,8.900175537109375,-0.0873124971985817,-0.40369999408721924,-0.0835999995470047
1750560855994780400,8.909780517578126,0.2927374839782715,-0.3218874931335449,-0.260699987411499
1750560856004385000,8.919385009765625,0.6335999965667725,-0.18617500364780426,-0.3499374985694885
1750560856013990000,8.928989990234374,0.9792749881744385,0.011687500402331352,-0.3572250008583069
1750560856023594800,8.9385947265625,1.3078999519348145,0.13144999742507935,-0.34622499346733093
1750560856033199600,8.94819970703125,1.6829999685287476,0.07026249915361404,-0.30717501044273376
1750560856042804500,8.957804443359375,2.1411499977111816,-0.08855000138282776,-0.2644124925136566
1750560856052409300,8.967409423828125,2.6835875511169434,-0.21683749556541443,-0.260699987411499
1750560856062014000,8.977013916015625,3.2052624225616455,-0.19841249287128448,-0.35241249203681946
1750560856071618800,8.986618896484375,3.5706000328063965,-0.04207500070333481,-0.5515124797821045
1750560856081223700,8.9962236328125,3.864987373352051,0.13378749787807465,-0.7897999882698059
1750560856090828500,9.00582861328125,4.031087398529053,0.16926249861717224,-1.0879000425338745
1750560856100433400,9.015433349609374,3.9577999114990234,0.3867875039577484,-1.3737624883651733
1750560856110038300,9.025038330078125,3.728174924850464,1.0403250455856323,-1.6229125261306763
1750560856119643100,9.03464306640625,3.2993125915527344,1.658524990081787,-1.8343875408172607
1750560856129247700,9.044247802734375,2.7323999404907227,1.7758125066757202,-1.8306750059127808
1750560856138852600,9.0538525390625,2.244962453842163,1.2736624479293823,-1.4592875242233276
1750560856148457500,9.06345751953125,1.8552874326705933,0.4405499994754791,-0.7958499789237976
1750560856158062600,9.0730625,1.5389000177383423,-0.2998875081539154,-0.09583749622106552
1750560856167667200,9.082667236328126,1.2408000230789185,-0.5905625224113464,0.3683624863624573
1750560856177272000,9.09227197265625,0.8657000064849854,-0.3951750099658966,0.5211250185966492
1750560856186877000,9.101876953125,0.4735499918460846,-0.05678749829530716,0.4661250114440918
1750560856196481500,9.1114814453125,0.19373749196529388,0.07273750007152557,0.37331250309944153
1750560856206086700,9.121086669921874,0.05939999967813492,0.03726249933242798,0.3452624976634979
1750560856215691500,9.13069140625,0.014162499457597733,0.03849999979138374,0.35378751158714294
1750560856225296400,9.14029638671875,0.0471624992787838,0.16802500188350677,0.3305499851703644
1750560856234901200,9.1499013671875,0.15344999730587006,0.334262490272522,0.25850000977516174
1750560856244505900,9.159505859375,0.2952125072479248,0.43931248784065247,0.17778749763965607
1750560856254110700,9.16911083984375,0.3623124957084656,0.47464999556541443,0.10944999754428864
1750560856263715600,9.178715576171875,0.32573750615119934,0.45883750915527344,0.06668750196695328
1750560856273320400,9.188320556640624,0.227974995970726,0.3708375096321106,0.06668750196695328
1750560856282925300,9.19792529296875,0.09116250276565552,0.24873749911785126,0.1264999955892563
1750560856292530000,9.207530029296874,-0.040837500244379044,0.12168750166893005,0.21697500348091125
1750560856302134800,9.217134765625,-0.11288750171661377,0.026399999856948853,0.27073749899864197
1750560856311739600,9.22673974609375,-0.1288374960422516,-0.014024999924004078,0.2535499930381775
1750560856321344500,9.236344482421876,-0.1190750002861023,-0.016362499445676804,0.19002500176429749
1750560856330949400,9.245949462890625,-0.07864999771118164,-0.0005499999970197678,0.12526249885559082
1750560856340554200,9.25555419921875,-0.01759999990463257,0.026399999856948853,0.08016250282526016
1750560856350158800,9.265158935546875,0.03863750025629997,0.03616249933838844,0.07397499680519104
1750560856359763700,9.274763671875,0.08868750184774399,0.07273750007152557,0.09721250087022781
1750560856369368600,9.28436865234375,0.13392500579357147,0.1326874941587448,0.09473749995231628
1750560856378973700,9.2939736328125,0.148499995470047,0.164450004696846,0.03492499887943268
1750560856388578600,9.30357861328125,0.13144999742507935,0.1447875052690506,-0.04331250116229057
1750560856398183200,9.31318310546875,0.09968750178813934,0.07768750190734863,-0.09088750183582306
1750560856407788000,9.3227880859375,0.06668750196695328,-0.012787500396370888,-0.09831249713897705
1750560856417393000,9.332392822265625,0.04468749836087227,-0.08607500046491623,-0.060362499207258224
1750560856426997800,9.341997802734374,0.043449997901916504,-0.09831249713897705,0.015399999916553497
1750560856436602400,9.351602294921875,0.07163749635219574,-0.058024998754262924,0.09597499668598175
1750560856446207500,9.36120751953125,0.10944999754428864,0.014162499457597733,0.14368750154972076
1750560856455812400,9.370812255859375,0.1387374997138977,0.06792499870061874,0.1387374997138977
1750560856465417000,9.3804169921875,0.15950000286102295,0.07768750190734863,0.09350000321865082
1750560856475022000,9.39002197265625,0.15468749403953552,0.048262499272823334,0.04592499881982803
1750560856484626700,9.399626708984375,0.1289750039577484,-0.006599999964237213,0.029975000768899918
1750560856494231600,9.4092314453125,0.09721250087022781,-0.09831249713897705,0.03973750025033951
1750560856503836400,9.41883642578125,0.06421250104904175,-0.17641249299049377,0.08868750184774399
1750560856513441000,9.42844091796875,0.03739999979734421,-0.18383750319480896,0.15702499449253082
1750560856523046000,9.4380458984375,0.020212499424815178,-0.10188750177621841,0.18645000457763672
1750560856532650800,9.447650634765624,0.018975000828504562,0.027499999850988388,0.16321249306201935
1750560856542255600,9.457255615234375,0.05073750019073486,0.10092499852180481,0.10821250081062317
1750560856551860500,9.466860595703125,0.09721250087022781,0.09968750178813934,0.060499999672174454
1750560856561465300,9.47646533203125,0.13626250624656677,0.0494999997317791,0.05816249921917915
1750560856571070000,9.486070068359375,0.13750000298023224,0.009212499484419823,0.060499999672174454
1750560856580674800,9.4956748046875,0.09721250087022781,0.016499999910593033,0.023924998939037323
1750560856590279700,9.50527978515625,0.05939999967813492,0.028737500309944153,-0.02736249938607216
1750560856599884500,9.514884521484374,0.03368749842047691,0.03849999979138374,-0.06159999966621399
1750560856609489400,9.524489501953125,0.004399999976158142,0.04097500070929527,-0.07383749634027481
1750560856619094300,9.53409423828125,-0.013887500390410423,0.03849999979138374,-0.05678749829530716
1750560856628699100,9.54369921875,-0.012787500396370888,0.011687500402331352,-0.021312499418854713
1750560856638304000,9.553303955078125,-0.009074999950826168,-0.018837500363588333,0.018975000828504562
1750560856647908600,9.56290869140625,0.008112499490380287,-0.01759999990463257,0.0494999997317791
1750560856657513700,9.572513671875,0.03616249933838844,0.016499999910593033,0.04097500070929527
1750560856667118600,9.58211865234375,0.07163749635219574,0.06173750013113022,-0.012787500396370888
1750560856676723500,9.591723388671875,0.10573749989271164,0.09473749995231628,-0.08112499862909317
1750560856686328000,9.601328125,0.11797499656677246,0.12044999748468399,-0.15812499821186066
1750560856695933000,9.610932861328125,0.08992499858140945,0.1447875052690506,-0.21312500536441803
1750560856705537800,9.620537841796875,0.04468749836087227,0.164450004696846,-0.21917499601840973
1750560856715143000,9.630142822265626,0.014162499457597733,0.1289750039577484,-0.172837495803833
1750560856724747500,9.63974755859375,0.015399999916553497,0.06792499870061874,-0.08483749628067017
1750560856734352400,9.649352294921876,0.03616249933838844,-0.011549999937415123,0.011687500402331352
1750560856743957000,9.65895703125,0.07163749635219574,-0.08483749628067017,0.08744999766349792
1750560856753561900,9.668561767578124,0.09473749995231628,-0.11288750171661377,0.1106875017285347
1750560856763166700,9.678166748046875,0.08249999582767487,-0.053075000643730164,0.08249999582767487
1750560856772771600,9.687771484375,0.05939999967813492,0.03973750025033951,0.031212499365210533
1750560856782376400,9.69737646484375,0.028875000774860382,0.08373750001192093,-0.022549999877810478
1750560856791981000,9.70698095703125,0.004399999976158142,0.09597499668598175,-0.06888750195503235
1750560856801586000,9.7165859375,0.0056374999694526196,0.1106875017285347,-0.1116499975323677
1750560856811190800,9.726190673828125,0.03244999796152115,0.15826250612735748,-0.14588749408721924
1750560856820795600,9.735795654296876,0.0752125009894371,0.17902499437332153,-0.15565000474452972
1750560856830400500,9.745400390625,0.11550000309944153,0.148499995470047,-0.1288374960422516
1750560856840005400,9.75500537109375,0.1461624950170517,0.09597499668598175,-0.06283749639987946
1750560856849610200,9.7646103515625,0.164450004696846,0.04097500070929527,0.03244999796152115
1750560856859215000,9.774215087890624,0.13626250624656677,-0.020075000822544098,0.09844999760389328
1750560856868819700,9.78381982421875,0.08139999955892563,-0.07383749634027481,0.116737499833107
1750560856878424600,9.793424560546875,0.025162499397993088,-0.07878749817609787,0.09116250276565552
1750560856888029700,9.80302978515625,-0.021312499418854713,-0.06655000150203705,0.0471624992787838
1750560856897634600,9.812634521484375,-0.045649997889995575,-0.03478749841451645,0.014162499457597733
1750560856907239200,9.8222392578125,-0.050599999725818634,-0.011549999937415123,-0.0030249999836087227
1750560856916844000,9.831843994140625,-0.03355000168085098,0.011687500402331352,0.0006874999962747097
1750560856926448600,9.84144873046875,0.004399999976158142,0.07644999772310257,0.012924999929964542
1750560856936053800,9.8510537109375,0.05197500064969063,0.12402500212192535,0.012924999929964542
1750560856945658600,9.86065869140625,0.08373750001192093,0.10944999754428864,-0.005362499970942736
1750560856955263500,9.870263427734375,0.0849749967455864,0.06668750196695328,-0.03478749841451645
1750560856964868000,9.8798681640625,0.04963750019669533,0.03849999979138374,-0.06283749639987946
1750560856974473000,9.889472900390626,-0.0017874999903142452,0.018975000828504562,-0.07259999960660934
1750560856984077800,9.899077880859375,-0.03712499886751175,-0.015262499451637268,-0.050599999725818634
1750560856993682700,9.9086826171875,-0.03959999978542328,-0.05431250110268593,-0.010312499478459358
1750560857003287300,9.918287353515625,-0.022549999877810478,-0.08112499862909317,0.025162499397993088
1750560857012892400,9.927892333984374,-0.0005499999970197678,-0.07012499868869781,0.0494999997317791
1750560857022497000,9.9374970703125,0.017875000834465027,-0.02502499893307686,0.05073750019073486
1750560857032102000,9.947101806640624,0.031212499365210533,0.06173750013113022,0.016637500375509262
1750560857041706800,9.956706787109376,0.04592499881982803,0.1545500010251999,-0.03712499886751175
1750560857051311400,9.966311279296875,0.04221250116825104,0.1839749962091446,-0.09459999948740005
1750560857060916200,9.975916259765626,0.03244999796152115,0.13626250624656677,-0.12264999747276306
1750560857070521300,9.985521240234375,0.021449999883770943,0.06544999778270721,-0.11412499845027924
1750560857080126200,9.995126220703124,0.008112499490380287,0.0006874999962747097,-0.07631249725818634
1750560857089730800,10.004730712890625,-0.007837500423192978,-0.040837500244379044,-0.012787500396370888
1750560857099335700,10.014335693359374,-0.020075000822544098,-0.060362499207258224,0.04592499881982803
1750560857108940500,10.0239404296875,-0.013887500390410423,-0.031075000762939453,0.06668750196695328
1750560857118545700,10.033545654296875,0.006874999962747097,0.03616249933838844,0.03492499887943268
1750560857128150300,10.043150390625,0.03492499887943268,0.08002500236034393,-0.02736249938607216
1750560857137755100,10.052755126953125,0.04963750019669533,0.09350000321865082,-0.06778749823570251
1750560857147359700,10.06235986328125,0.04468749836087227,0.05816249921917915,-0.060362499207258224
1750560857156964900,10.07196484375,0.012924999929964542,-0.011549999937415123,-0.018837500363588333
1750560857166569700,10.08156982421875,-0.02488750033080578,-0.06159999966621399,0.04097500070929527
1750560857176174300,10.09117431640625,-0.03959999978542328,-0.07136250287294388,0.08621250092983246
1750560857185779200,10.100779296875,-0.028599999845027924,-0.05678749829530716,0.10326249897480011
1750560857195384000,10.110384033203125,0.0031624999828636646,-0.03712499886751175,0.09597499668598175
1750560857204989000,10.119989013671875,0.04468749836087227,0.007974999956786633,0.08016250282526016
1750560857214593800,10.12959375,0.08016250282526016,0.06421250104904175,0.05444999784231186
1750560857224198700,10.13919873046875,0.09116250276565552,0.1069749966263771,0.020212499424815178
1750560857233803500,10.148803466796876,0.08373750001192093,0.11550000309944153,-0.012787500396370888
1750560857243408100,10.158408203125,0.06173750013113022,0.07026249915361404,-0.03959999978542328
1750560857253013000,10.168012939453124,0.03739999979734421,0.010449999943375587,-0.04455000162124634
1750560857262617900,10.177617919921875,0.020212499424815178,-0.011549999937415123,-0.021312499418854713
1750560857272222700,10.18722265625,0.006874999962747097,0.011687500402331352,0.004399999976158142
1750560857281827600,10.19682763671875,0.0019249999895691872,0.03492499887943268,0.010449999943375587
1750560857291432400,10.206432373046875,0.014162499457597733,0.04468749836087227,0.011687500402331352
1750560857301037000,10.216037109375,0.031212499365210533,0.03616249933838844,0.009212499484419823
1750560857310642000,10.225641845703125,0.043449997901916504,0.015399999916553497,0.0056374999694526196
1750560857320246800,10.235246826171876,0.04592499881982803,-0.0017874999903142452,-0.0005499999970197678
1750560857329851600,10.2448515625,0.03244999796152115,-0.020075000822544098,-0.005362499970942736
1750560857339456800,10.254456787109374,-0.0017874999903142452,-0.038362499326467514,-0.007837500423192978
1750560857349061400,10.264061279296875,-0.03959999978542328,-0.04702499881386757,-0.0042624999769032
1750560857358666200,10.273666259765625,-0.057887498289346695,-0.015262499451637268,-0.005362499970942736
1750560857368270800,10.283270751953125,-0.04455000162124634,0.023924998939037323,-0.018837500363588333
1750560857377875700,10.292875732421875,-0.0005499999970197678,0.04468749836087227,-0.02983750030398369
1750560857387480600,10.30248046875,0.03863750025629997,0.048262499272823334,-0.036024998873472214
1750560857397085400,10.31208544921875,0.06421250104904175,0.07026249915361404,-0.028599999845027924
1750560857406690300,10.321690185546874,0.055687498301267624,0.08744999766349792,-0.018837500363588333
1750560857416295200,10.331295166015625,0.023924998939037323,0.05321250110864639,-0.007837500423192978
1750560857425900000,10.340900146484374,-0.006599999964237213,-0.01759999990463257,0.021449999883770943
1750560857435504600,10.350504638671875,-0.026124998927116394,-0.05555000156164169,0.05073750019073486
1750560857445109800,10.36010986328125,-0.021312499418854713,-0.04455000162124634,0.05073750019073486
1750560857454714400,10.36971435546875,0.0031624999828636646,-0.005362499970942736,0.025162499397993088
1750560857464319200,10.3793193359375,0.025162499397993088,0.04221250116825104,-0.016362499445676804
1750560857473924000,10.388924072265626,0.043449997901916504,0.05692499876022339,-0.03959999978542328
1750560857483529000,10.398529052734375,0.043449997901916504,0.026399999856948853,-0.02983750030398369
1750560857493133600,10.408133544921874,0.020212499424815178,-0.021312499418854713,0.0031624999828636646
1750560857502738400,10.417738525390625,-0.0005499999970197678,-0.036024998873472214,0.043449997901916504
1750560857512343600,10.427343505859374,-0.013887500390410423,-0.0005499999970197678,0.04468749836087227
1750560857521948200,10.4369482421875,-0.020075000822544098,0.03973750025033951,0.004399999976158142
1750560857531553000,10.446552978515625,-0.011549999937415123,0.06421250104904175,-0.04331250116229057
1750560857541158000,10.456157958984376,0.0019249999895691872,0.03973750025033951,-0.07383749634027481
1750560857550762500,10.465762451171875,0.008112499490380287,-0.011549999937415123,-0.07259999960660934
1750560857560367600,10.47536767578125,0.009212499484419823,-0.02983750030398369,-0.036024998873472214
1750560857569972500,10.484972412109375,0.008112499490380287,-0.01759999990463257,0.0006874999962747097
1750560857579577300,10.494577392578124,0.008112499490380287,-0.012787500396370888,0.028737500309944153
1750560857589182200,10.50418212890625,0.009212499484419823,-0.0005499999970197678,0.0471624992787838
1750560857598786800,10.513786865234374,-0.004124999977648258,0.020212499424815178,0.04097500070929527
1750560857608391700,10.5233916015625,-0.011549999937415123,0.010449999943375587,0.020212499424815178
1750560857617996500,10.53299658203125,-0.005362499970942736,-0.020075000822544098,0.0031624999828636646
1750560857627601400,10.542601318359376,0.0056374999694526196,-0.028599999845027924,-0.0042624999769032
1750560857637206300,10.552206298828125,0.018975000828504562,-0.0017874999903142452,-0.018837500363588333
1750560857646811000,10.561810791015626,0.018975000828504562,0.029975000768899918,-0.048124998807907104
1750560857656415700,10.571415771484375,0.020212499424815178,0.043449997901916504,-0.06888750195503235
1750560857666020600,10.5810205078125,0.016637500375509262,0.023924998939037323,-0.06655000150203705
1750560857675625500,10.59062548828125,0.0056374999694526196,0.0006874999962747097,-0.03355000168085098
1750560857685230600,10.600230712890625,0.0019249999895691872,0.006737499963492155,0.026399999856948853
1750560857694835200,10.609835205078125,0.0056374999694526196,0.017737500369548798,0.06297499686479568
1750560857704439800,10.619439697265625,0.012924999929964542,0.022687500342726707,0.05692499876022339
1750560857714044700,10.629044677734376,0.015399999916553497,0.04592499881982803,0.016637500375509262
1750560857723649500,10.6386494140625,0.015399999916553497,0.06792499870061874,-0.02983750030398369
1750560857733254100,10.648254150390626,0.023924998939037323,0.05692499876022339,-0.05431250110268593
1750560857742859300,10.657859375,0.022687500342726707,0.012924999929964542,-0.06531249731779099
1750560857752464100,10.667464111328124,0.011687500402331352,-0.026262499392032623,-0.04455000162124634
1750560857762069000,10.677069091796875,-0.015124999918043613,-0.02983750030398369,-0.0005499999970197678
1750560857771673600,10.686673583984375,-0.02983750030398369,-0.03355000168085098,0.03973750025033951
1750560857781278500,10.696278564453126,-0.011549999937415123,-0.02502499893307686,0.06421250104904175
1750560857790883600,10.705883544921875,0.0056374999694526196,-0.0042624999769032,0.06173750013113022
1750560857800488200,10.71548828125,0.011687500402331352,0.007974999956786633,0.0471624992787838
1750560857810093000,10.725093017578125,0.010449999943375587,0.016499999910593033,0.027499999850988388
1750560857819698000,10.734697998046874,0.011687500402331352,0.016499999910593033,-0.0005499999970197678
1750560857829302500,10.744302490234375,0.025162499397993088,-0.010312499478459358,-0.03355000168085098
1750560857838907400,10.753907470703124,0.04221250116825104,-0.026262499392032623,-0.06407500058412552
1750560857848512300,10.76351220703125,0.06063750013709068,-0.016362499445676804,-0.08112499862909317
1750560857858117000,10.7731171875,0.06916250288486481,-0.010312499478459358,-0.0873124971985817
1750560857867722000,10.782721923828126,0.07163749635219574,0.0019249999895691872,-0.06778749823570251
1750560857877326800,10.792326904296875,0.04221250116825104,0.03726249933242798,-0.018837500363588333
1750560857886931700,10.801931640625,-0.020075000822544098,0.07026249915361404,0.03244999796152115
1750560857896536300,10.811536376953125,-0.10064999759197235,0.09102500230073929,0.028737500309944153
1750560857906141200,10.82114111328125,-0.31693750619888306,0.18150000274181366,-0.060362499207258224
1750560857915746300,10.830746337890625,-0.6223250031471252,0.279262512922287,-0.16307500004768372
1750560857925351200,10.84035107421875,-1.1037124395370483,0.2400749921798706,-0.2595999836921692
1750560857934955800,10.849955810546875,-1.8636749982833862,0.15344999730587006,-0.30236250162124634
1750560857944560600,10.859560546875,-2.744499921798706,-0.07383749634027481,-0.30346250534057617
1750560857954165500,10.86916552734375,-3.6400375366210938,-0.1116499975323677,-0.2424124926328659
1750560857963770400,10.878770263671875,-4.197050094604492,-0.0873124971985817,-0.06283749639987946
1750560857973375200,10.888375244140626,-4.293574810028076,-0.3511750102043152,0.2120250016450882
1750560857982979800,10.897979736328125,-4.181237697601318,-0.7543249726295471,0.534600019454956
1750560857992584700,10.907584716796874,-4.32286262512207,-1.0353749990463257,0.7594124674797058
1750560858002189600,10.917189453125,-4.7077250480651855,-1.1074249744415283,0.7837499976158142
1750560858011794200,10.926794189453124,-4.939825057983398,-1.0719499588012695,0.5993624925613403
1750560858021399300,10.9363994140625,-4.794487476348877,-0.9571374654769897,0.26455000042915344
1750560858031004200,10.946004150390625,-4.193474769592285,-0.8863250017166138,-0.045787498354911804
1750560858040609000,10.955609130859376,-3.186699867248535,-0.7860875129699707,-0.16183750331401825
1750560858050213600,10.965213623046875,-1.9919624328613281,-0.593037486076355,-0.1214125007390976
1750560858059818500,10.974818603515626,-0.8923749923706055,-0.2864125072956085,-0.10312499850988388
1750560858069423400,10.98442333984375,-0.026124998927116394,0.11797499656677246,-0.2106499969959259
1750560858079028200,10.9940283203125,0.600600004196167,0.406312495470047,-0.3987500071525574
1750560858088633000,11.003633056640625,1.0978000164031982,0.5578374862670898,-0.5942749977111816
1750560858098238000,11.013238037109375,1.4948999881744385,0.7374125123023987,-0.7347999811172485
1750560858107842600,11.022842529296875,1.7758125066757202,0.9010375142097473,-0.8153749704360962
1750560858117447400,11.032447509765625,2.0201499462127686,0.9255124926567078,-0.794612467288971
1750560858127052500,11.042052490234376,2.3060123920440674,0.7972249984741211,-0.7140374779701233
1750560858136657200,11.0516572265625,2.592012405395508,0.5565999746322632,-0.705512523651123
1750560858146262000,11.061261962890624,2.9121124744415283,0.3770250082015991,-0.7873250246047974
1750560858155867000,11.070866943359375,3.227262496948242,0.27431249618530273,-0.9351375102996826
1750560858165471700,11.0804716796875,3.4263625144958496,0.11178749799728394,-1.0414249897003174
1750560858175076600,11.09007666015625,3.497312545776367,-0.10683749616146088,-0.9926124811172485
1750560858184681500,11.099681396484375,3.4898874759674072,-0.045787498354911804,-0.7811374664306641
1750560858194286000,11.1092861328125,3.620650053024292,0.3268375098705292,-0.4721750020980835
1750560858203891000,11.118890869140625,3.8209874629974365,0.5358374714851379,-0.26688748598098755
1750560858213495800,11.128495849609376,3.8747498989105225,0.6982250213623047,-0.2143625020980835
1750560858223100700,11.1381005859375,3.441075086593628,0.9327999949455261,-0.34622499346733093
1750560858232705500,11.14770556640625,2.609062433242798,0.9732249975204468,-0.5295125246047974
1750560858242310400,11.157310302734375,1.7832374572753906,0.5248374938964844,-0.5307499766349792
1750560858251915300,11.166915283203124,1.2016124725341797,-0.19607499241828918,-0.23759999871253967
1750560858261520100,11.17652001953125,0.8999375104904175,-0.794612467288971,0.23897500336170197
1750560858271124700,11.186124755859375,0.7764624953269958,-1.0804749727249146,0.6433625221252441
1750560858280729600,11.1957294921875,0.7556999921798706,-0.9461374878883362,0.863224983215332
1750560858290334500,11.20533447265625,0.671412467956543,-0.47946250438690186,0.8424624800682068
1750560858299939000,11.21493896484375,0.4160749912261963,-0.036024998873472214,0.6274124979972839
1750560858309544200,11.224544189453125,0.19002500176429749,0.1863124966621399,0.3830749988555908
1750560858319148800,11.234148681640624,0.10339999943971634,0.1742125004529953,0.164450004696846
1750560858328753700,11.243753662109375,0.09844999760389328,0.116737499833107,-0.015124999918043613
1750560858338358500,11.253358642578124,0.1106875017285347,0.17778749763965607,-0.16541250050067902
1750560858347963100,11.262963134765625,0.10944999754428864,0.3012624979019165,-0.25712499022483826
1750560858357568300,11.272568359375,0.11550000309944153,0.3525499999523163,-0.20583750307559967
1750560858367173000,11.282173095703126,0.15826250612735748,0.22055000066757202,-0.0017874999903142452
1750560858376777700,11.29177783203125,0.20102499425411224,-0.026262499392032623,0.21078750491142273
1750560858386382600,11.301382568359376,0.16926249861717224,-0.1434125006198883,0.2755500078201294
1750560858395987500,11.310987548828125,0.028875000774860382,-0.08236250281333923,0.19002500176429749
1750560858405592300,11.32059228515625,-0.1471250057220459,-0.028599999845027924,0.07397499680519104
1750560858415197200,11.330197265625,-0.2656500041484833,-0.07259999960660934,0.016637500375509262
1750560858424801800,11.3398017578125,-0.29864999651908875,-0.12636250257492065,0.04592499881982803
1750560858434407000,11.349406982421876,-0.24488750100135803,-0.13983750343322754,0.1069749966263771
1750560858444011500,11.359011474609375,-0.1373624950647354,-0.1116499975323677,0.11921250075101852
1750560858453616400,11.368616455078126,-0.01759999990463257,-0.038362499326467514,0.07273750007152557
1750560858463221200,11.37822119140625,0.1069749966263771,0.0494999997317791,0.009212499484419823
1750560858472826000,11.387826171875,0.20473749935626984,0.08992499858140945,-0.05555000156164169
1750560858482431000,11.397430908203125,0.21697500348091125,0.10326249897480011,-0.1214125007390976
1750560858492035800,11.407035888671874,0.15826250612735748,0.13378749787807465,-0.15812499821186066
1750560858501640700,11.416640625,0.04468749836087227,0.12044999748468399,-0.1373624950647354
1750560858511245300,11.426245361328125,-0.07383749634027481,0.048262499272823334,-0.060362499207258224
1750560858520850200,11.43585009765625,-0.12388750165700912,-0.04207500070333481,0.026399999856948853
1750560858530455000,11.445455078125,-0.11288750171661377,-0.11055000126361847,0.07026249915361404
1750560858540060000,11.455059814453126,-0.06764999777078629,-0.11055000126361847,0.06297499686479568
1750560858549664800,11.464664794921875,-0.015124999918043613,-0.06531249731779099,0.029975000768899918
1750560858559269600,11.47426953125,0.027637500315904617,-0.03712499886751175,0.011687500402331352
1750560858568874200,11.483874267578125,0.04839999973773956,-0.05912499874830246,0.025162499397993088
1750560858578479000,11.49347900390625,0.05692499876022339,-0.06902500241994858,0.05321250110864639
1750560858588084000,11.503083984375,0.04221250116825104,-0.014024999924004078,0.05073750019073486
1750560858597688800,11.512688720703125,0.028875000774860382,0.03973750025033951,0.007974999956786633
1750560858607293700,11.522293701171876,0.031212499365210533,0.05444999784231186,-0.04455000162124634
1750560858616898300,11.531898193359375,0.03863750025629997,0.005499999970197678,-0.06531249731779099
1750560858626503200,11.541503173828126,0.0471624992787838,-0.07507500052452087,-0.04455000162124634
1750560858636108000,11.55110791015625,0.05321250110864639,-0.13859999179840088,0.010449999943375587
1750560858645713000,11.560712890625,0.0471624992787838,-0.1313125044107437,0.0752125009894371
1750560858655317800,11.57031787109375,0.03739999979734421,-0.06407500058412552,0.1069749966263771
1750560858664922600,11.579922607421874,0.03492499887943268,0.006737499963492155,0.09116250276565552
1750560858674527500,11.589527587890625,0.04097500070929527,0.043449997901916504,0.03739999979734421
1750560858684132000,11.599132080078125,0.04097500070929527,0.05816249921917915,-0.021312499418854713
1750560858693737000,11.608737060546876,0.031212499365210533,0.04592499881982803,-0.05431250110268593
1750560858703341800,11.618341796875,0.015399999916553497,0.007974999956786633,-0.048124998807907104
1750560858712946700,11.62794677734375,0.008112499490380287,-0.053075000643730164,-0.0005499999970197678
1750560858722551600,11.637551513671875,0.009212499484419823,-0.09831249713897705,0.06916250288486481
1750560858732156400,11.647156494140624,0.015399999916553497,-0.08483749628067017,0.1106875017285347
1750560858741761000,11.656760986328125,0.018975000828504562,-0.021312499418854713,0.09350000321865082
1750560858751366000,11.666365966796874,0.031212499365210533,0.03492499887943268,0.031212499365210533
