time,seconds_elapsed,z,y,x
1750560847139117000,0.054116943359375,7.750950336456299,5.568000316619873,0.5179499983787537
1750560847148721700,0.0637216796875,7.998000144958496,5.608950138092041,0.8359500169754028
1750560847158326800,0.073326904296875,8.33595085144043,5.700000286102295,0.7570500373840332
1750560847167931400,0.082931396484375,8.473950386047363,5.85105037689209,0.6760500073432922
1750560847177536300,0.092536376953125,8.043000221252441,5.90595006942749,0.2760000228881836
1750560847187141000,0.10214111328125,7.846950531005859,5.946000099182129,0.22995001077651978
1750560847196746200,0.111746337890625,7.689000129699707,6.006000518798828,0.5560500025749207
1750560847206351000,0.12135107421875,7.4160003662109375,5.9320502281188965,0.8029500246047974
1750560847215955700,0.130955810546875,7.3750505447387695,5.878950119018555,1.1160000562667847
1750560847225560600,0.140560546875,7.204950332641602,6.079950332641602,0.7309500575065613
1750560847235165400,0.15016552734375,7.35105037689209,6.255000114440918,0.036000002175569534
1750560847244770300,0.159770263671875,7.129050254821777,6.319950103759766,-0.453000009059906
1750560847254375200,0.169375244140625,6.925050258636475,6.30495023727417,-0.8119500279426575
1750560847263980000,0.17897998046875,7.174050331115723,6.376950263977051,-0.5470499992370605
1750560847273585000,0.1885849609375,6.982950210571289,6.526050090789795,-0.43695002794265747
1750560847283189500,0.198189453125,7.258050441741943,6.384000301361084,-0.2760000228881836
1750560847292794600,0.207794677734375,8.046000480651855,6.358050346374512,-0.7500000596046448
1750560847302399500,0.2173994140625,7.672050476074219,6.253050327301025,-0.625950038433075
1750560847312004400,0.22700439453125,7.6650004386901855,6.028050422668457,0.13005000352859497
1750560847321609000,0.23660888671875,7.717950344085693,6.097050189971924,0.3450000286102295
1750560847331213800,0.2462138671875,8.161050796508789,6.38700008392334,0.5730000138282776
1750560847340818700,0.255818603515625,7.882950305938721,6.625950336456299,0.6570000052452087
1750560847350423600,0.265423583984375,7.584000587463379,6.4800004959106445,0.5230500102043152
1750560847360028700,0.275028564453125,7.438050270080566,6.337050437927246,0.859950065612793
1750560847369633300,0.28463330078125,6.999000549316406,6.487050533294678,1.015950083732605
1750560847379238100,0.294238037109375,6.027000427246094,6.32895040512085,0.690000057220459
1750560847388843000,0.303843017578125,5.613000392913818,6.246000289916992,0.4510500133037567
1750560847398447900,0.31344775390625,6.29295015335083,6.364950180053711,0.2850000262260437
1750560847408052700,0.323052734375,6.331050395965576,6.4609503746032715,0.27105000615119934
1750560847417657600,0.33265771484375,6.820050239562988,6.0520501136779785,0.42000001668930054
1750560847427262500,0.342262451171875,8.098050117492676,6.2910003662109375,0.3910500109195709
1750560847436867000,0.3518671875,8.496000289916992,6.130950450897217,0.7120500206947327
1750560847446472000,0.361471923828125,8.476950645446777,5.877000331878662,1.3440001010894775
1750560847456077000,0.3710771484375,8.53695011138916,5.9730000495910645,1.7269500494003296
1750560847465682000,0.380681884765625,8.320950508117676,6.064050197601318,2.059950113296509
1750560847475286800,0.390286865234375,8.239950180053711,6.1120500564575195,1.9039500951766968
1750560847484891400,0.399891357421875,8.652000427246094,6.2910003662109375,1.1040000915527344
1750560847494496300,0.409496337890625,8.461950302124023,6.451050281524658,0.4240500330924988
1750560847504101000,0.41910107421875,6.979950428009033,6.490050315856934,0.1680000126361847
1750560847513706000,0.4287060546875,5.557950496673584,6.466050148010254,0.597000002861023
1750560847523310800,0.438310791015625,4.480950355529785,6.657000541687012,1.4899500608444214
1750560847532915700,0.447915771484375,4.275000095367432,6.715050220489502,2.1310501098632812
1750560847542520600,0.4575205078125,5.247000217437744,6.756000518798828,1.7680500745773315
1750560847552125200,0.467125244140625,7.003950119018555,6.535050392150879,0.7950000166893005
1750560847561730300,0.476730224609375,8.545949935913086,5.913000106811523,0.20205001533031464
1750560847571335000,0.4863349609375,9.123000144958496,5.736000061035156,0.14400000870227814
1750560847580939800,0.495939697265625,8.95995044708252,6.1620001792907715,0.2160000056028366
1750560847590545000,0.505544921875,7.591050148010254,6.2410502433776855,0.6589500308036804
1750560847600149500,0.5151494140625,6.8460001945495605,6.0420002937316895,1.0920000076293945
1750560847609754400,0.52475439453125,6.705000400543213,6.118950366973877,1.072950005531311
1750560847619359200,0.534359130859375,7.119000434875488,6.210000514984131,1.224000096321106
1750560847628963800,0.5439638671875,7.135950565338135,6.219000339508057,1.3410000801086426
1750560847638569000,0.55356884765625,6.79395055770874,6.250050067901611,1.1040000915527344
1750560847648173800,0.563173828125,6.6739501953125,6.166950225830078,1.0090500116348267
1750560847657778700,0.57277880859375,7.047000408172607,6.037050247192383,1.0399500131607056
1750560847667383600,0.582383544921875,7.026000499725342,5.9920501708984375,0.7189500331878662
1750560847676988200,0.59198828125,7.189050197601318,5.926950454711914,0.47700002789497375
1750560847686593000,0.601593017578125,7.368000507354736,6.049050331115723,0.05595000088214874
1750560847696198000,0.611197998046875,7.474050521850586,6.12600040435791,-0.4510500133037567
1750560847705802800,0.620802734375,7.73205041885376,5.908050060272217,-0.5040000081062317
1750560847715407600,0.63040771484375,8.254050254821777,5.75700044631958,-0.0799500048160553
1750560847725012500,0.640012451171875,8.57295036315918,5.794950485229492,0.5269500017166138
1750560847734617300,0.649617431640625,8.527050018310547,5.620950222015381,0.8719500303268433
1750560847744222000,0.659221923828125,9.396000862121582,5.544000148773193,1.0969500541687012
1750560847753826800,0.668826904296875,9.682950019836426,5.736000061035156,1.1160000562667847
1750560847763431700,0.678431640625,9.46095085144043,5.889000415802002,0.7720500230789185
1750560847773036500,0.68803662109375,8.9839506149292,6.013050079345703,0.5130000114440918
1750560847782641700,0.6976416015625,8.173049926757812,6.064050197601318,0.364950031042099
1750560847792246300,0.707246337890625,7.237050533294678,6.1210503578186035,0.25394999980926514
1750560847801851100,0.71685107421875,6.808050155639648,6.145050525665283,0.2689500153064728
1750560847811456000,0.7264560546875,7.06695032119751,6.166950225830078,0.11505000293254852
1750560847821060600,0.736060546875,7.633950233459473,6.043950080871582,-0.24705001711845398
1750560847830665700,0.745665771484375,8.151000022888184,5.989050388336182,-0.2550000250339508
1750560847840270600,0.7552705078125,8.197050094604492,5.961000442504883,0.22605000436306
1750560847849875500,0.76487548828125,7.890000343322754,5.94195032119751,0.7620000243186951
1750560847859480000,0.77447998046875,7.564950466156006,5.877000331878662,1.0399500131607056
1750560847869085000,0.7840849609375,7.567050457000732,5.817000389099121,1.1860500574111938
1750560847878689800,0.793689697265625,7.837050437927246,5.760000228881836,0.9420000314712524
1750560847888295000,0.803294921875,8.04104995727539,5.889000415802002,0.34095001220703125
1750560847897899500,0.8128994140625,7.91895055770874,5.974950313568115,-0.13005000352859497
1750560847907504400,0.82250439453125,7.63200044631958,5.980050086975098,-0.4339500069618225
1750560847917109200,0.832109130859375,7.342050552368164,6.021000385284424,-0.3720000088214874
1750560847926713900,0.8417138671875,7.299000263214111,5.989050388336182,0.015000000596046448
1750560847936319000,0.851319091796875,7.440000534057617,5.842950344085693,0.5130000114440918
1750560847945923800,0.860923828125,7.8349504470825195,5.707050323486328,0.9420000314712524
1750560847955528700,0.87052880859375,8.338050842285156,5.605950355529785,1.055999994277954
1750560847965133600,0.880133544921875,8.57295036315918,5.602050304412842,0.8269500136375427
1750560847974738200,0.88973828125,8.629950523376465,5.677950382232666,0.5389500260353088
1750560847984343000,0.899343017578125,8.304000854492188,5.748000144958496,0.25394999980926514
1750560847993948200,0.9089482421875,7.806000232696533,5.797950267791748,0.15105000138282776
1750560848003553000,0.918552978515625,7.35105037689209,5.800050258636475,0.2659500241279602
1750560848013157600,0.92815771484375,7.252950191497803,5.809950351715088,0.40005001425743103
1750560848022762500,0.937762451171875,7.612050533294678,5.776050090789795,0.6060000061988831
1750560848032367400,0.947367431640625,8.173049926757812,5.8030500411987305,0.6880500316619873
1750560848041972200,0.95697216796875,8.556000709533691,5.857950210571289,0.5700000524520874
1750560848051577000,0.9665771484375,8.455050468444824,5.889000415802002,0.4240500330924988
1750560848061182000,0.976181884765625,8.062950134277344,5.902950286865234,0.3739500045776367
1750560848070786800,0.985786865234375,7.797000408172607,5.94195032119751,0.40005001425743103
1750560848080391400,0.995391357421875,7.677000522613525,5.961000442504883,0.4320000112056732
1750560848089996500,1.00499658203125,7.777950286865234,5.902950286865234,0.32895001769065857
1750560848099601400,1.014601318359375,7.978950500488281,5.92995023727417,0.24195000529289246
1750560848109206300,1.024206298828125,8.119950294494629,5.913000106811523,0.3049500286579132
1750560848118811100,1.03381103515625,7.999950408935547,5.877000331878662,0.4339500069618225
1750560848128415700,1.043415771484375,7.8259501457214355,5.9509501457214355,0.5370000004768372
1750560848138020600,1.0530205078125,7.629000186920166,5.9920501708984375,0.5560500025749207
1750560848147625500,1.06262548828125,7.438050270080566,5.9730000495910645,0.38100001215934753
1750560848157230600,1.072230712890625,7.36305046081543,6.03000020980835,0.2350500077009201
1750560848166835200,1.081835205078125,7.533000469207764,6.043950080871582,0.16095000505447388
1750560848176440000,1.091440185546875,7.681950569152832,6.006000518798828,0.19500000774860382
1750560848186045000,1.101044921875,7.912050247192383,5.958000183105469,0.34095001220703125
1750560848195649800,1.11064990234375,8.07194995880127,5.9320502281188965,0.40005001425743103
1750560848205254700,1.120254638671875,8.161050796508789,5.896050453186035,0.4459500312805176
1750560848214859500,1.129859619140625,8.166000366210938,5.953050136566162,0.3910500109195709
1750560848224464400,1.13946435546875,7.993050575256348,5.934000492095947,0.3430500030517578
1750560848234069000,1.149069091796875,7.773000240325928,5.920050144195557,0.39795002341270447
1750560848243673900,1.158673828125,7.7149505615234375,5.961000442504883,0.3139500021934509
1750560848253278700,1.16827880859375,7.885050296783447,5.974950313568115,0.17100000381469727
1750560848262883800,1.1778837890625,8.079000473022461,5.901000499725342,-0.022050000727176666
1750560848272488400,1.187488525390625,8.11305046081543,5.926950454711914,-0.13500000536441803
1750560848282093300,1.19709326171875,8.005050659179688,5.925000190734863,-0.039000000804662704
1750560848291698200,1.2066982421875,7.792050361633301,5.946000099182129,0.05595000088214874
1750560848301302800,1.216302734375,7.513950347900391,5.946000099182129,0.09600000083446503
1750560848310908000,1.225907958984375,7.45395040512085,5.968050479888916,0.034050002694129944
1750560848320512800,1.2355126953125,7.5960001945495605,5.956050395965576,-0.05100000277161598
1750560848330117600,1.24511767578125,7.909050464630127,5.881950378417969,-0.013050000183284283
1750560848339722500,1.254722412109375,8.32395076751709,5.82705020904541,0.00795000046491623
1750560848349327400,1.264327392578125,8.440950393676758,5.833950042724609,-0.05100000277161598
1750560848358932200,1.27393212890625,8.272950172424316,5.908050060272217,-0.08205000311136246
1750560848368537000,1.283537109375,7.9960503578186035,5.920050144195557,0.003000000026077032
1750560848378141700,1.2931416015625,7.770000457763672,5.938950061798096,-0.013050000183284283
1750560848387746600,1.30274658203125,7.702950477600098,5.9509501457214355,0.15600000321865082
1750560848397351400,1.312351318359375,7.669950485229492,5.949000358581543,0.2850000262260437
1750560848406956300,1.321956298828125,7.701000213623047,5.953050136566162,0.3430500030517578
1750560848416561200,1.33156103515625,7.881000518798828,5.982000350952148,0.30000001192092896
1750560848426166000,1.341166015625,8.022000312805176,5.962950229644775,0.22800001502037048
1750560848435771000,1.35077099609375,7.942950248718262,5.965050220489502,0.13500000536441803
1750560848445375700,1.360375732421875,7.6459503173828125,5.982000350952148,0.15405000746250153
1750560848454980600,1.369980712890625,7.371000289916992,6.03000020980835,0.1469999998807907
1750560848464585500,1.37958544921875,7.315950393676758,6.046950340270996,0.1680000126361847
1750560848474190300,1.3891904296875,7.552950382232666,6.025050163269043,0.08700000494718552
1750560848483795200,1.398795166015625,7.909050464630127,5.9730000495910645,-0.034050002694129944
1750560848493399800,1.40839990234375,8.146050453186035,5.953050136566162,-0.13305000960826874
1750560848503005000,1.4180048828125,8.227950096130371,5.944050312042236,-0.1489500105381012
1750560848512609500,1.427609619140625,8.006999969482422,5.91795015335083,-0.11595000326633453
1750560848522214400,1.43721435546875,7.738950252532959,5.926950454711914,-0.037050001323223114
1750560848531819300,1.4468193359375,7.438050270080566,5.974950313568115,0.04605000093579292
1750560848541424000,1.456424072265625,7.3060503005981445,6.006000518798828,0.17505000531673431
1750560848551029000,1.466029052734375,7.42995023727417,6.034950256347656,0.17505000531673431
1750560848560633900,1.4756337890625,7.7149505615234375,6.058950424194336,0.07500000298023224
1750560848570238700,1.48523876953125,7.91895055770874,6.01800012588501,-0.018000001087784767
1750560848579843600,1.494843505859375,7.945050239562988,5.989050388336182,-0.06300000101327896
1750560848589448400,1.504448486328125,7.72005033493042,5.997000217437744,-0.05400000140070915
1750560848599053300,1.51405322265625,7.498050212860107,6.028050422668457,-0.06300000101327896
1750560848608658000,1.523657958984375,7.477950572967529,6.082950115203857,-0.04905000329017639
1750560848618263000,1.533262939453125,7.6050004959106445,6.066000461578369,0.040950000286102295
1750560848627867600,1.54286767578125,7.893000602722168,5.974950313568115,0.17295001447200775
1750560848637472500,1.552472412109375,8.134050369262695,5.980050086975098,0.25005000829696655
1750560848647077400,1.562077392578125,8.173049926757812,5.956050395965576,0.30000001192092896
1750560848656682200,1.57168212890625,7.927950382232666,5.953050136566162,0.28995001316070557
1750560848666287000,1.581287109375,7.6650004386901855,5.968050479888916,0.1489500105381012
1750560848675892000,1.59089208984375,7.507050514221191,6.034950256347656,-0.08895000070333481
1750560848685496800,1.600496826171875,7.452000141143799,6.088050365447998,-0.208950012922287
1750560848695101700,1.610101806640625,7.501950263977051,6.085050106048584,-0.23100000619888306
1750560848704706600,1.61970654296875,7.648050308227539,6.013050079345703,-0.15195000171661377
1750560848714311200,1.629311279296875,7.873050212860107,5.937000274658203,0.010050000622868538
1750560848723916000,1.638916015625,7.9360504150390625,5.8909502029418945,0.12495000660419464
1750560848733521000,1.64852099609375,7.902000427246094,5.893950462341309,0.1870500147342682
1750560848743125800,1.658125732421875,7.786950588226318,5.949000358581543,0.16095000505447388
1750560848752730600,1.667730712890625,7.818000316619873,5.9920501708984375,0.034050002694129944
1750560848762335500,1.67733544921875,7.845000267028809,5.974950313568115,-0.10905000567436218
1750560848771940400,1.6869404296875,7.801950454711914,5.998950481414795,-0.17100000381469727
1750560848781545000,1.696544921875,7.725000381469727,5.985000133514404,-0.1399500072002411
1750560848791150000,1.706150146484375,7.557000160217285,5.962950229644775,-0.0799500048160553
1750560848800755000,1.7157548828125,7.564950466156006,5.9730000495910645,-0.006000000052154064
1750560848810359800,1.72535986328125,7.70805025100708,5.953050136566162,0.07005000114440918
1750560848819964400,1.73496435546875,7.890000343322754,5.922000408172607,-0.025050001218914986
1750560848829569300,1.7445693359375,8.05305004119873,5.938950061798096,-0.11595000326633453
1750560848839174400,1.75417431640625,7.921050548553467,5.92995023727417,-0.0970500037074089
1750560848848779300,1.763779296875,7.663050174713135,5.908050060272217,-0.018000001087784767
1750560848858384100,1.773384033203125,7.500000476837158,5.937000274658203,-0.06300000101327896
1750560848867988700,1.78298876953125,7.513950347900391,5.92995023727417,-0.05100000277161598
1750560848877593600,1.792593505859375,7.678950309753418,5.9320502281188965,-0.05400000140070915
1750560848887198500,1.802198486328125,7.998000144958496,5.920050144195557,0.010050000622868538
1750560848896803300,1.81180322265625,8.259000778198242,5.866950511932373,0.025050001218914986
1750560848906408400,1.821408447265625,8.31195068359375,5.833950042724609,-0.11100000888109207
1750560848916013000,1.831012939453125,8.163000106811523,5.862000465393066,-0.28095000982284546
1750560848925618000,1.840617919921875,7.768050193786621,5.901000499725342,-0.3739500045776367
1750560848935222800,1.850222900390625,7.392000198364258,5.977050304412842,-0.1969500035047531
1750560848944827400,1.859827392578125,7.231950283050537,5.989050388336182,0.06300000101327896
1750560848954432500,1.8694326171875,7.384950160980225,6.013050079345703,0.13500000536441803
1750560848964037400,1.879037353515625,7.70805025100708,6.037050247192383,0.10395000129938126
1750560848973642000,1.88864208984375,7.933050155639648,6.009000301361084,-0.003000000026077032
1750560848983246800,1.898246826171875,7.972050189971924,6.0420002937316895,-0.08505000174045563
1750560848992851700,1.907851806640625,7.830000400543213,6.0520501136779785,-0.003000000026077032
1750560849002456300,1.917456298828125,7.678950309753418,6.046950340270996,0.07005000114440918
1750560849012061400,1.9270615234375,7.684050559997559,6.0610504150390625,0.1680000126361847
1750560849021666000,1.936666015625,7.840050220489502,6.073050498962402,0.1680000126361847
1750560849031271200,1.946271240234375,7.9069504737854,6.058950424194336,0.05100000277161598
1750560849040876000,1.9558759765625,7.912050247192383,6.03000020980835,-0.04605000093579292
1750560849050480600,1.965480712890625,7.833000183105469,6.0319504737854,-0.043950002640485764
1750560849060085500,1.97508544921875,7.735050201416016,6.016050338745117,-0.022050000727176666
1750560849069690400,1.9846904296875,7.63200044631958,5.965050220489502,0.08700000494718552
1750560849079295500,1.99429541015625,7.713000297546387,5.913000106811523,0.07695000618696213
1750560849088900400,2.003900390625,8.043000221252441,5.902950286865234,-0.05100000277161598
1750560849098505000,2.0135048828125,8.344950675964355,5.898000240325928,-0.0580500029027462
1750560849108109800,2.02310986328125,8.254050254821777,5.833950042724609,0.043950002640485764
1750560849117714700,2.032714599609375,7.942950248718262,5.841000080108643,0.30900001525878906
1750560849127319600,2.042319580078125,7.653000354766846,5.908050060272217,0.4120500087738037
1750560849136924400,2.05192431640625,7.459050178527832,5.902950286865234,0.30195000767707825
1750560849146529300,2.061529296875,7.468950271606445,6.010950088500977,0.025050001218914986
1750560849156134000,2.0711337890625,7.543050289154053,6.070950508117676,-0.15405000746250153
1750560849165738800,2.08073876953125,7.488000392913818,6.034950256347656,-0.19500000774860382
1750560849175343900,2.09034375,7.303950309753418,6.040050506591797,-0.09195000678300858
1750560849184948700,2.09994873046875,7.1260504722595215,6.082950115203857,-0.07304999977350235
1750560849194553600,2.1095537109375,7.1170501708984375,6.049050331115723,-0.1660500019788742
1750560849204158200,2.119158203125,7.282050132751465,6.004050254821777,-0.18495000898838043
1750560849213763000,2.12876318359375,7.498050212860107,5.961000442504883,-0.1279500126838684
1750560849223368000,2.138367919921875,7.81095027923584,5.91795015335083,-0.07005000114440918
1750560849232972800,2.147972900390625,8.175000190734863,5.90595006942749,0.05100000277161598
1750560849242577700,2.15757763671875,8.416950225830078,5.925000190734863,0.07200000435113907
1750560849252182500,2.1671826171875,8.356950759887695,5.958000183105469,0.010050000622868538
1750560849261787400,2.176787353515625,8.050950050354004,5.994000434875488,-0.06495000422000885
1750560849271392000,2.18639208984375,7.711050510406494,6.037050247192383,-0.12495000660419464
1750560849280997000,2.1959970703125,7.5169501304626465,6.0420002937316895,-0.013050000183284283
1750560849290602000,2.20560205078125,7.464000225067139,6.034950256347656,0.13695000112056732
1750560849300206600,2.21520654296875,7.6650004386901855,6.034950256347656,0.15105000138282776
1750560849309811500,2.2248115234375,7.981050491333008,6.01800012588501,0.019950000569224358
1750560849319416300,2.234416259765625,8.209050178527832,5.986950397491455,-0.025050001218914986
1750560849329021200,2.244021240234375,8.223000526428223,5.908050060272217,-0.027000000700354576
1750560849338626000,2.2536259765625,8.06505012512207,5.866950511932373,0.0010500000789761543
1750560849348231200,2.263231201171875,7.938000202178955,5.862000465393066,-0.006000000052154064
1750560849357835800,2.272835693359375,7.846950531005859,5.898000240325928,-0.13500000536441803
1750560849367440600,2.282440673828125,7.840050220489502,5.898000240325928,-0.2639999985694885
1750560849377045500,2.29204541015625,7.821000576019287,5.877000331878662,-0.24705001711845398
1750560849386650400,2.301650390625,7.725000381469727,5.889000415802002,-0.21405000984668732
1750560849396255200,2.311255126953125,7.636050224304199,5.877000331878662,-0.15600000321865082
1750560849405860000,2.320860107421875,7.5960001945495605,5.842950344085693,0.004950000438839197
1750560849415465000,2.33046484375,7.663050174713135,5.857950210571289,0.07005000114440918
1750560849425069800,2.34006982421875,7.840050220489502,5.865000247955322,0.015000000596046448
1750560849434674400,2.34967431640625,8.07194995880127,5.836050510406494,-0.12105000764131546
1750560849444279600,2.359279541015625,8.256000518798828,5.8720502853393555,-0.15600000321865082
1750560849453884400,2.368884521484375,8.173049926757812,5.886000156402588,-0.17595000565052032
1750560849463489000,2.378489013671875,7.8949503898620605,5.908050060272217,-0.04905000329017639
1750560849473094000,2.388093994140625,7.629000186920166,5.937000274658203,0.07005000114440918
1750560849482698800,2.39769873046875,7.44195032119751,5.962950229644775,0.05100000277161598
1750560849492303600,2.4073037109375,7.450050354003906,5.9509501457214355,0.039000000804662704
1750560849501908500,2.416908447265625,7.567050457000732,5.980050086975098,-0.027000000700354576
1750560849511513300,2.426513427734375,7.749000549316406,5.962950229644775,-0.06300000101327896
1750560849521118200,2.4361181640625,7.978950500488281,5.970000267028809,-0.0990000069141388
1750560849530722800,2.445722900390625,7.962000370025635,5.91795015335083,-0.14205001294612885
1750560849540328000,2.455327880859375,7.809000492095947,5.893950462341309,-0.010050000622868538
1750560849549932500,2.4649326171875,7.677000522613525,5.9320502281188965,0.13005000352859497
1750560849559537700,2.47453759765625,7.513950347900391,5.914950370788574,0.2760000228881836
1750560849569142500,2.484142578125,7.498050212860107,5.920050144195557,0.3360000252723694
1750560849578747100,2.4937470703125,7.770000457763672,5.968050479888916,0.24000000953674316
1750560849588352000,2.50335205078125,8.110050201416016,5.953050136566162,0.08205000311136246
1750560849597956900,2.512956787109375,8.42400074005127,5.9320502281188965,-0.025050001218914986
1750560849607561700,2.522561767578125,8.473950386047363,5.953050136566162,-0.07304999977350235
1750560849617166600,2.53216650390625,8.200950622558594,5.938950061798096,-0.0799500048160553
1750560849626771500,2.541771484375,7.677000522613525,5.920050144195557,0.003000000026077032
1750560849636376300,2.551376220703125,7.336950302124023,5.946000099182129,0.04800000041723251
1750560849645981200,2.560981201171875,7.348950386047363,5.934000492095947,0.13905000686645508
1750560849655586000,2.5705859375,7.617000579833984,5.896050453186035,0.22605000436306
1750560849665191000,2.58019091796875,7.91895055770874,5.886000156402588,0.22800001502037048
1750560849674795500,2.58979541015625,8.118000030517578,5.90595006942749,0.12495000660419464
1750560849684400400,2.599400390625,8.268000602722168,5.878950119018555,-0.022050000727176666
1750560849694005500,2.609005615234375,8.248950004577637,5.898000240325928,-0.13005000352859497
1750560849703610400,2.6186103515625,8.107950210571289,5.90595006942749,-0.24300001561641693
1750560849713215000,2.628215087890625,7.987950325012207,5.8909502029418945,-0.2350500077009201
1750560849722819800,2.63781982421875,7.882950305938721,5.860050201416016,-0.22800001502037048
1750560849732425000,2.647425048828125,7.64400053024292,5.81505012512207,-0.12105000764131546
1750560849742029600,2.657029541015625,7.4569501876831055,5.833950042724609,-0.0010500000789761543
1750560849751634400,2.666634521484375,7.332000255584717,5.824050426483154,0.0990000069141388
1750560849761239600,2.676239501953125,7.368000507354736,5.845950126647949,0.19200000166893005
1750560849770844200,2.68584423828125,7.639050483703613,5.866950511932373,0.24000000953674316
1750560849780449000,2.695448974609375,8.0910005569458,5.889000415802002,0.1080000028014183
1750560849790054000,2.705053955078125,8.416950225830078,5.862000465393066,0.004950000438839197
1750560849799659000,2.714658935546875,8.379000663757324,5.869950294494629,-0.018000001087784767
1750560849809263600,2.724263671875,8.05305004119873,5.902950286865234,0.016950000077486038
1750560849818868500,2.733868408203125,7.528950214385986,5.913000106811523,0.11505000293254852
1750560849828473000,2.74347314453125,7.279950141906738,5.962950229644775,0.10605000704526901
1750560849838078000,2.753077880859375,7.291950225830078,6.022950172424316,0.010050000622868538
1750560849847682800,2.762682861328125,7.36305046081543,5.998950481414795,-0.00795000046491623
1750560849857288000,2.772287841796875,7.581000328063965,5.965050220489502,-0.1969500035047531
1750560849866892500,2.781892578125,7.735050201416016,5.94195032119751,-0.3360000252723694
1750560849876497400,2.791497314453125,7.82295036315918,5.8909502029418945,-0.34995001554489136
1750560849886102300,2.801102294921875,7.81095027923584,5.90595006942749,-0.24495001137256622
1750560849895707100,2.81070703125,7.786950588226318,5.896050453186035,-0.14205001294612885
1750560849905312000,2.82031201171875,7.761000156402588,5.853000164031982,-0.10395000129938126
1750560849914916900,2.829916748046875,7.797000408172607,5.854950428009033,-0.10395000129938126
1750560849924521700,2.839521728515625,7.749000549316406,5.878950119018555,-0.14400000870227814
1750560849934126600,2.849126708984375,7.672050476074219,5.886000156402588,-0.25200000405311584
1750560849943731500,2.8587314453125,7.617000579833984,5.926950454711914,-0.3430500030517578
1750560849953336000,2.868336181640625,7.579050540924072,5.925000190734863,-0.2160000056028366
1750560849962941000,2.87794091796875,7.660050392150879,5.914950370788574,-0.025050001218914986
1750560849972545800,2.8875458984375,7.818000316619873,5.937000274658203,0.06495000422000885
1750560849982150700,2.897150634765625,8.022000312805176,5.925000190734863,0.019950000569224358
1750560849991755500,2.906755615234375,8.211000442504883,5.874000072479248,-0.13500000536441803
1750560850001360400,2.9163603515625,8.379000663757324,5.862000465393066,-0.25905001163482666
1750560850010965200,2.92596533203125,8.355000495910645,5.800050258636475,-0.21195000410079956
1750560850020570400,2.9355703125,8.173049926757812,5.805000305175781,-0.10605000704526901
1750560850030175000,2.945175048828125,7.957050323486328,5.836050510406494,-0.018000001087784767
1750560850039779800,2.95477978515625,7.770000457763672,5.82705020904541,0.036000002175569534
1750560850049384400,2.964384521484375,7.782000541687012,5.83905029296875,-0.019950000569224358
1750560850058989600,2.973989501953125,7.833000183105469,5.854950428009033,-0.08700000494718552
1750560850068594400,2.983594482421875,7.900050163269043,5.878950119018555,-0.17295001447200775
1750560850078199300,2.99319921875,7.984050273895264,5.884050369262695,-0.18000000715255737
1750560850087804000,3.002803955078125,8.062950134277344,5.842950344085693,-0.21195000410079956
1750560850097408800,3.01240869140625,8.13705062866211,5.83905029296875,-0.15195000171661377
1750560850107014000,3.022013916015625,8.138999938964844,5.841000080108643,-0.13500000536441803
1750560850116618800,3.03161865234375,7.987950325012207,5.788050174713135,-0.043950002640485764
1750560850126223400,3.041223388671875,7.866000175476074,5.791050434112549,0.027000000700354576
1750560850135828200,3.050828125,7.821000576019287,5.818950176239014,-0.04905000329017639
1750560850145433300,3.060433349609375,7.837050437927246,5.806950092315674,-0.0580500029027462
1750560850155038200,3.0700380859375,7.966950416564941,5.824050426483154,-0.043950002640485764
1750560850164642800,3.079642822265625,8.146050453186035,5.833950042724609,-0.07500000298023224
1750560850174247700,3.08924755859375,8.182050704956055,5.776050090789795,-0.1399500072002411
1750560850183852800,3.098852783203125,8.046000480651855,5.793000221252441,-0.11805000901222229
1750560850193457400,3.10845751953125,7.900050163269043,5.800050258636475,-0.08205000311136246
1750560850203062300,3.118062255859375,7.717950344085693,5.785950183868408,-0.05595000088214874
1750560850212667100,3.127667236328125,7.653000354766846,5.791050434112549,-0.034050002694129944
1750560850222272000,3.13727197265625,7.672050476074219,5.83905029296875,-0.043950002640485764
1750560850231876900,3.146876953125,7.7059502601623535,5.8309502601623535,-0.07695000618696213
1750560850241481500,3.1564814453125,7.768050193786621,5.817000389099121,-0.11295000463724136
1750560850251086300,3.16608642578125,7.91895055770874,5.772000312805176,-0.1969500035047531
1750560850260691200,3.175691162109375,7.984050273895264,5.7430500984191895,-0.27105000615119934
1750560850270296300,3.18529638671875,7.938000202178955,5.7430500984191895,-0.28095000982284546
1750560850279901000,3.19490087890625,7.797000408172607,5.761950492858887,-0.11100000888109207
1750560850289505800,3.204505859375,7.699050426483154,5.760000228881836,0.05100000277161598
1750560850299110700,3.214110595703125,7.713000297546387,5.794950485229492,0.06300000101327896
1750560850308715300,3.22371533203125,7.866000175476074,5.779050350189209,0.013050000183284283
1750560850318320000,3.233320068359375,7.984050273895264,5.75700044631958,-0.10095000267028809
1750560850327925000,3.242925048828125,8.079000473022461,5.737950325012207,-0.2689500153064728
1750560850337529900,3.25252978515625,8.13705062866211,5.736000061035156,-0.25905001163482666
1750560850347135000,3.262135009765625,8.08905029296875,5.731050491333008,-0.15195000171661377
1750560850356739600,3.271739501953125,8.086950302124023,5.793000221252441,-0.12300000339746475
1750560850366344400,3.281344482421875,8.191950798034668,5.785950183868408,-0.1680000126361847
1750560850375949300,3.29094921875,8.27595043182373,5.779050350189209,-0.24000000953674316
1750560850385554200,3.30055419921875,8.242050170898438,5.797950267791748,-0.30300000309944153
1750560850395158800,3.31015869140625,8.07194995880127,5.8120503425598145,-0.24495001137256622
1750560850404764000,3.319763916015625,7.773000240325928,5.797950267791748,-0.07304999977350235
1750560850414368500,3.329368408203125,7.5259504318237305,5.818950176239014,0.05595000088214874
1750560850423973600,3.3389736328125,7.486050128936768,5.841000080108643,0.07200000435113907
1750560850433578200,3.348578125,7.555050373077393,5.83905029296875,-0.003000000026077032
1750560850443183000,3.35818310546875,7.7440505027771,5.898000240325928,-0.08205000311136246
1750560850452788200,3.367788330078125,8.017050743103027,5.913000106811523,-0.19500000774860382
1750560850462392800,3.377392822265625,8.158050537109375,5.898000240325928,-0.2740500271320343
1750560850471997700,3.386997802734375,8.170050621032715,5.85105037689209,-0.25905001163482666
1750560850481602600,3.3966025390625,8.138999938964844,5.8309502601623535,-0.1489500105381012
1750560850491207400,3.40620751953125,8.07194995880127,5.793000221252441,-0.05100000277161598
1750560850500812000,3.41581201171875,8.094000816345215,5.772000312805176,0.0580500029027462
1750560850510417200,3.425417236328125,7.993050575256348,5.764050483703613,0.08205000311136246
1750560850520021800,3.435021728515625,7.864050388336182,5.781000137329102,0.00795000046491623
1750560850529627000,3.444626953125,7.758000373840332,5.853000164031982,-0.07695000618696213
1750560850539231700,3.454231689453125,7.737000465393066,5.866950511932373,-0.1489500105381012
1750560850548836400,3.46383642578125,7.770000457763672,5.848050117492676,-0.2569500207901001
1750560850558441200,3.473441162109375,7.797000408172607,5.817000389099121,-0.2880000174045563
1750560850568046000,3.483046142578125,7.914000511169434,5.776050090789795,-0.2550000250339508
1750560850577651000,3.49265087890625,8.08905029296875,5.724000453948975,-0.17100000381469727
1750560850587255800,3.502255859375,8.218050003051758,5.685000419616699,-0.15195000171661377
1750560850596860700,3.511860595703125,8.36205005645752,5.7019500732421875,-0.24000000953674316
1750560850606465300,3.52146533203125,8.176950454711914,5.673000335693359,-0.20205001533031464
1750560850616070100,3.531070068359375,7.878000259399414,5.653950214385986,-0.1469999998807907
1750560850625675300,3.54067529296875,7.624050140380859,5.736000061035156,-0.22800001502037048
1750560850635280100,3.550280029296875,7.486050128936768,5.7330002784729,-0.31905001401901245
1750560850644885000,3.559885009765625,7.561950206756592,5.767050266265869,-0.4030500054359436
1750560850654489600,3.569489501953125,7.786950588226318,5.760000228881836,-0.3930000066757202
1750560850664094700,3.5790947265625,7.978950500488281,5.767050266265869,-0.35805001854896545
1750560850673699300,3.58869921875,8.017050743103027,5.782950401306152,-0.25905001163482666
1750560850683304200,3.59830419921875,7.828050136566162,5.791050434112549,-0.06105000153183937
1750560850692909000,3.607908935546875,7.600050449371338,5.829000473022461,-0.00795000046491623
1750560850702514000,3.617513916015625,7.593000411987305,5.841000080108643,-0.10605000704526901
1750560850712118800,3.627118896484375,7.684050559997559,5.842950344085693,-0.19995000958442688
1750560850721723400,3.636723388671875,7.840050220489502,5.853000164031982,-0.18300001323223114
1750560850731328500,3.64632861328125,7.974000453948975,5.874000072479248,-0.08205000311136246
1750560850740933400,3.655933349609375,8.130000114440918,5.869950294494629,-0.04200000315904617
1750560850750538200,3.665538330078125,8.187000274658203,5.8720502853393555,-0.07005000114440918
1750560850760143000,3.67514306640625,8.08395004272461,5.869950294494629,-0.04200000315904617
1750560850769747700,3.684747802734375,7.857000350952148,5.878950119018555,-0.05400000140070915
1750560850779352600,3.6943525390625,7.593000411987305,5.85105037689209,-0.11295000463724136
1750560850788957700,3.703957763671875,7.627050399780273,5.866950511932373,-0.0970500037074089
1750560850798562600,3.7135625,7.854000568389893,5.833950042724609,-0.06300000101327896
1750560850808167200,3.723167236328125,8.110050201416016,5.772000312805176,-0.027000000700354576
1750560850817772000,3.73277197265625,8.27595043182373,5.81505012512207,0.010050000622868538
1750560850827377000,3.742376953125,8.260950088500977,5.8120503425598145,-0.0990000069141388
1750560850836981800,3.751981689453125,8.122050285339355,5.785950183868408,-0.14205001294612885
1750560850846586600,3.761586669921875,8.09595012664795,5.809950351715088,-0.21405000984668732
1750560850856191500,3.77119140625,7.993050575256348,5.772000312805176,-0.29295000433921814
1750560850865796400,3.78079638671875,7.984050273895264,5.75700044631958,-0.3460500240325928
1750560850875401200,3.790401123046875,7.930950164794922,5.776050090789795,-0.31200000643730164
1750560850885006000,3.800006103515625,7.833000183105469,5.779050350189209,-0.15195000171661377
1750560850894610700,3.809610595703125,7.780050277709961,5.748000144958496,0.06000000238418579
1750560850904215800,3.8192158203125,7.797000408172607,5.81505012512207,0.09600000083446503
1750560850913820700,3.828820556640625,7.948050498962402,5.818950176239014,0.0580500029027462
1750560850923425300,3.83842529296875,8.094000816345215,5.805000305175781,-0.05595000088214874
1750560850933030100,3.848030029296875,8.05305004119873,5.833950042724609,-0.15195000171661377
1750560850942634800,3.857634765625,7.830000400543213,5.833950042724609,-0.0580500029027462
1750560850952239900,3.867239990234375,7.572000503540039,5.874000072479248,-0.04200000315904617
1750560850961844700,3.8768447265625,7.45395040512085,5.881950378417969,-0.1469999998807907
1750560850971449600,3.88644970703125,7.540950298309326,5.853000164031982,-0.2160000056028366
1750560850981054200,3.89605419921875,7.849050521850586,5.793000221252441,-0.23100000619888306
1750560850990659300,3.905659423828125,8.138999938964844,5.719050407409668,-0.18300001323223114
1750560851000264200,3.91526416015625,8.230050086975098,5.683050155639648,-0.022050000727176666
1750560851009869000,3.924869140625,8.11305046081543,5.673000335693359,0.05595000088214874
1750560851019473700,3.9344736328125,7.890000343322754,5.7210001945495605,0.015000000596046448
1750560851029078500,3.94407861328125,7.73205041885376,5.794950485229492,-0.12105000764131546
1750560851038683600,3.95368359375,7.7560505867004395,5.797950267791748,-0.31905001401901245
1750560851048288300,3.963288330078125,7.893000602722168,5.857950210571289,-0.364950031042099
1750560851057893000,3.97289306640625,7.957050323486328,5.82705020904541,-0.283050000667572
1750560851067498000,3.982498046875,7.869000434875488,5.821950435638428,-0.1489500105381012
1750560851077102800,3.992102783203125,7.7560505867004395,5.842950344085693,0.043950002640485764
1750560851086707700,4.001707763671875,7.7659502029418945,5.8720502853393555,0.025050001218914986
1750560851096312600,4.0113125,7.846950531005859,5.853000164031982,-0.07695000618696213
1750560851105917400,4.02091748046875,7.960050582885742,5.829000473022461,-0.13305000960826874
1750560851115522300,4.030522216796875,7.91895055770874,5.866950511932373,-0.1680000126361847
1750560851125127200,4.040127197265625,7.773000240325928,5.865000247955322,-0.1879500150680542
1750560851134731800,4.049731689453125,7.702950477600098,5.854950428009033,-0.1680000126361847
1750560851144337000,4.0593369140625,7.726950168609619,5.865000247955322,-0.14205001294612885
1750560851153941800,4.068941650390625,7.858950138092041,5.818950176239014,-0.027000000700354576
1750560851163546600,4.078546630859375,7.914000511169434,5.781000137329102,0.040950000286102295
1750560851173151500,4.0881513671875,7.975950241088867,5.760000228881836,-0.025050001218914986
1750560851182756000,4.097756103515625,8.082000732421875,5.776050090789795,-0.22305001318454742
1750560851192361000,4.10736083984375,8.176950454711914,5.788050174713135,-0.27900001406669617
1750560851201965600,4.116965576171875,8.200950622558594,5.749950408935547,-0.24495001137256622
1750560851211570700,4.12657080078125,8.146050453186035,5.737950325012207,-0.0990000069141388
1750560851221175600,4.136175537109375,8.082000732421875,5.752050399780273,-0.043950002640485764
1750560851230780400,4.145780517578125,7.870950222015381,5.736000061035156,0.04605000093579292
1750560851240385300,4.15538525390625,7.809000492095947,5.748000144958496,0.12300000339746475
1750560851249990000,4.164989990234375,7.749000549316406,5.824050426483154,0.022050000727176666
1750560851259594800,4.1745947265625,7.5169501304626465,5.794950485229492,-0.11100000888109207
1750560851269200000,4.184199951171875,7.44705057144165,5.854950428009033,-0.2760000228881836
1750560851278804700,4.1938046875,7.648050308227539,5.920050144195557,-0.36705002188682556
1750560851288409600,4.20340966796875,7.962000370025635,5.818950176239014,-0.32895001769065857
1750560851298014200,4.21301416015625,8.282999992370605,5.725950241088867,-0.286050021648407
1750560851307619000,4.222619140625,8.467050552368164,5.7019500732421875,-0.25200000405311584
1750560851317224200,4.23222412109375,8.197050094604492,5.664000034332275,-0.08895000070333481
1750560851326828800,4.241828857421875,7.792050361633301,5.6419501304626465,0.05295000225305557
1750560851336433700,4.25143359375,7.512000560760498,5.724000453948975,-0.006000000052154064
1750560851346038500,4.26103857421875,7.3969502449035645,5.776050090789795,-0.17595000565052032
1750560851355643400,4.270643310546875,7.471050262451172,5.761950492858887,-0.38895002007484436
1750560851365248300,4.280248291015625,7.557000160217285,5.805000305175781,-0.49605002999305725
1750560851374853000,4.28985302734375,8.118000030517578,5.793000221252441,-0.23295001685619354
1750560851384458000,4.2994580078125,8.491050720214844,5.716050148010254,-0.0799500048160553
1750560851394062800,4.309062744140625,8.743050575256348,5.665950298309326,0.06795000284910202
1750560851403667500,4.31866748046875,8.87700080871582,5.728050231933594,0.15900000929832458
1750560851413272600,4.3282724609375,8.64900016784668,5.7430500984191895,0.12300000339746475
1750560851422877400,4.33787744140625,8.058000564575195,5.680950164794922,0.15600000321865082
1750560851432482000,4.34748193359375,7.483050346374512,5.707050323486328,0.37605002522468567
1750560851442087000,4.3570869140625,7.1170501708984375,5.836050510406494,0.5629500150680542
1750560851451691800,4.36669189453125,7.129050254821777,5.874000072479248,0.5610000491142273
1750560851461296600,4.376296630859375,7.45395040512085,5.869950294494629,0.22305001318454742
1750560851470901200,4.3859013671875,7.878000259399414,5.953050136566162,-0.10605000704526901
1750560851480506400,4.39550634765625,7.975950241088867,5.9320502281188965,0.11505000293254852
1750560851490111200,4.405111328125,8.034000396728516,5.725950241088867,1.228950023651123
1750560851499716000,4.414716064453125,8.497950553894043,5.45805025100708,3.8650500774383545
1750560851509320700,4.42432080078125,8.647050857543945,5.134950160980225,6.658950328826904
1750560851518925600,4.433925537109375,9.211950302124023,4.5859503746032715,9.919950485229492
1750560851528530400,4.443530517578125,10.210050582885742,4.198050022125244,9.879000663757324
1750560851538135600,4.453135498046875,10.608000755310059,4.378050327301025,6.550950527191162
1750560851547740200,4.462740234375,10.81095027923584,4.716000080108643,3.2809500694274902
1750560851557345000,4.472344970703125,10.945050239562988,4.588950157165527,1.1740500926971436
1750560851566950000,4.481949951171875,11.269050598144531,4.05495023727417,1.4440500736236572
1750560851576554500,4.491554443359375,10.50195026397705,3.9970502853393555,-0.32895001769065857
1750560851586159600,4.50115966796875,8.926950454711914,4.207950115203857,-2.4190502166748047
1750560851595764500,4.510764404296875,7.039950370788574,4.9960503578186035,-4.8319501876831055
1750560851605369300,4.520369384765625,5.247000217437744,5.781000137329102,-7.915950298309326
1750560851614974200,4.52997412109375,4.240950107574463,6.183000087738037,-9.457950592041016
1750560851624578800,4.539578857421875,4.392000198364258,6.472950458526611,-9.6670503616333
1750560851634184000,4.549183837890625,5.344950199127197,6.22605037689209,-7.653000354766846
1750560851643788800,4.558788818359375,5.853000164031982,5.773950099945068,-5.500950336456299
1750560851653393700,4.5683935546875,5.709000110626221,5.400000095367432,-4.957050323486328
1750560851662998500,4.57799853515625,5.826000213623047,5.314050197601318,-5.461950302124023
1750560851672603100,4.58760302734375,6.444000244140625,5.271000385284424,-6.054000377655029
1750560851682208000,4.5972080078125,7.018950462341309,5.173050403594971,-6.853050231933594
1750560851691813000,4.606813232421875,7.870950222015381,5.059950351715088,-7.947000503540039
1750560851701417700,4.616417724609375,8.683050155639648,5.127000331878662,-9.097050666809082
1750560851711022600,4.626022705078125,9.09000015258789,5.095950126647949,-10.207950592041016
1750560851720627500,4.63562744140625,8.491050720214844,4.6080002784729,-9.121050834655762
1750560851730232000,4.645232177734375,6.600000381469727,3.96405029296875,-5.620050430297852
1750560851739837200,4.654837158203125,4.882950305938721,3.6979501247406006,-3.1969501972198486
1750560851749442000,4.664442138671875,4.882950305938721,3.4590001106262207,-1.9930500984191895
1750560851759047000,4.674046875,6.741000175476074,3.346050262451172,-1.440000057220459
1750560851768651500,4.683651611328125,9.21405029296875,3.4039502143859863,-1.7800500392913818
1750560851778256400,4.69325634765625,10.320000648498535,3.1399500370025635,-0.4819500148296356
1750560851787861200,4.702861328125,9.829950332641602,2.866950035095215,2.8159501552581787
1750560851797466000,4.712466064453125,8.94795036315918,3.3130502700805664,6.409950256347656
1750560851807071000,4.722071044921875,8.56095027923584,4.069050312042236,8.017050743103027
1750560851816675800,4.73167578125,9.925050735473633,4.728000164031982,6.433950424194336
1750560851826280700,4.74128076171875,11.35200023651123,5.319000244140625,3.9180002212524414
1750560851835885600,4.750885498046875,11.659050941467285,5.383950233459473,1.927950143814087
1750560851845490200,4.760490234375,10.747050285339355,5.487000465393066,1.4419500827789307
1750560851855095300,4.77009521484375,9.142050743103027,5.608950138092041,1.91100013256073
1750560851864700200,4.7797001953125,7.669950485229492,5.683050155639648,2.68500018119812
1750560851874305000,4.789304931640625,6.904050350189209,5.818950176239014,3.043950080871582
1750560851883910000,4.798909912109375,6.645000457763672,5.878950119018555,3.040950059890747
1750560851893514800,4.8085146484375,6.934950351715088,5.946000099182129,2.8590002059936523
1750560851903119400,4.818119384765625,7.384950160980225,5.985000133514404,2.5309500694274902
1750560851912724500,4.827724365234375,7.279950141906738,6.1210503578186035,1.7890501022338867
1750560851922329000,4.8373291015625,7.354050159454346,6.076050281524658,0.8890500664710999
1750560851931934000,4.846933837890625,7.576950550079346,5.94195032119751,0.18300001323223114
1750560851941538800,4.856538818359375,8.11305046081543,5.836050510406494,-0.07695000618696213
1750560851951143400,4.866143310546875,8.653950691223145,5.704050064086914,0.36705002188682556
1750560851960748800,4.875748779296875,8.898000717163086,5.530050277709961,1.2169500589370728
1750560851970353400,4.885353515625,8.817000389099121,5.221050262451172,2.1000001430511475
1750560851979958300,4.894958251953125,8.623050689697266,5.245050430297852,2.0910000801086426
1750560851989563100,4.904563232421875,8.356950759887695,5.367000102996826,1.4970000982284546
1750560851999167700,4.914167724609375,8.055000305175781,5.440950393676758,0.8509500622749329
1750560852008772900,4.92377294921875,7.893000602722168,5.53695011138916,0.38100001215934753
1750560852018377500,4.93337744140625,7.672050476074219,5.719050407409668,0.17505000531673431
1750560852027982300,4.942982421875,7.408950328826904,5.700000286102295,0.028950002044439316
1750560852037587200,4.952587158203125,7.219950199127197,5.659050464630127,-0.11295000463724136
1750560852047192000,4.962192138671875,7.153050422668457,5.5819501876831055,-0.06495000422000885
1750560852056797000,4.971796875,7.201050281524658,5.4720001220703125,0.30195000767707825
1750560852066401800,4.98140185546875,7.462050437927246,5.422050476074219,0.7519500255584717
1750560852076006700,4.991006591796875,7.960050582885742,5.380950450897217,1.1380500793457031
1750560852085611500,5.000611572265625,8.611050605773926,5.359950065612793,1.059000015258789
1750560852095216400,5.01021630859375,8.994000434875488,5.367000102996826,0.7480500340461731
1750560852104821000,5.019821044921875,8.893050193786621,5.428950309753418,0.40995001792907715
1750560852114426000,5.029426025390625,8.42400074005127,5.518050193786621,0.1080000028014183
1750560852124031000,5.039031005859375,7.882950305938721,5.544000148773193,0.11805000901222229
1750560852133635600,5.048635498046875,7.564950466156006,5.494050025939941,0.2350500077009201
1750560852143240400,5.058240478515625,7.41795015335083,5.452950477600098,0.5749500393867493
1750560852152845300,5.06784521484375,7.495050430297852,5.431950092315674,0.8860500454902649
1750560852162450400,5.077450439453125,7.974000453948975,5.518050193786621,0.7950000166893005
1750560852172055000,5.087054931640625,8.32395076751709,5.511000156402588,0.5149500370025635
1750560852181660000,5.096659912109375,8.575050354003906,5.4720001220703125,0.32100000977516174
1750560852191264800,5.1062646484375,8.635050773620605,5.464950084686279,0.1489500105381012
1750560852200869600,5.11586962890625,8.520000457763672,5.427000045776367,0.11505000293254852
1750560852210474200,5.12547412109375,8.29995059967041,5.344950199127197,0.3049500286579132
1750560852220079400,5.135079345703125,8.233050346374512,5.398050308227539,0.41700002551078796
1750560852229684200,5.144684326171875,8.158050537109375,5.422050476074219,0.47700002789497375
1750560852239289000,5.1542890625,8.110050201416016,5.3959503173828125,0.609000027179718
1750560852248894000,5.16389404296875,8.06505012512207,5.419950485229492,0.6420000195503235
1750560852258498600,5.17349853515625,8.02695083618164,5.427000045776367,0.5320500135421753
1750560852268103400,5.183103515625,8.006999969482422,5.436000347137451,0.2179500162601471
1750560852277708300,5.192708251953125,8.031000137329102,5.407950401306152,0.07005000114440918
1750560852287313200,5.202313232421875,8.146050453186035,5.391000270843506,0.11100000888109207
1750560852296918000,5.21191796875,8.36400032043457,5.356950283050537,0.18000000715255737
1750560852306523000,5.22152294921875,8.722949981689453,5.347950458526611,0.17505000531673431
1750560852316127700,5.231127685546875,8.944050788879395,5.319000244140625,0.21405000984668732
1750560852325732600,5.240732666015625,8.800050735473633,5.26200008392334,0.3049500286579132
1750560852335337500,5.25033740234375,8.37405014038086,5.317050457000732,0.30195000767707825
1750560852344942300,5.2599423828125,7.939950466156006,5.343000411987305,0.2689500153064728
1750560852354547200,5.269547119140625,7.785000324249268,5.36400032043457,0.1969500035047531
1750560852364152000,5.279152099609375,7.8349504470825195,5.38800048828125,0.1870500147342682
1750560852373756700,5.288756591796875,8.0910005569458,5.419950485229492,0.24495001137256622
1750560852383361500,5.298361572265625,8.414999961853027,5.487000465393066,0.3550500273704529
1750560852392966400,5.30796630859375,8.539050102233887,5.487000465393066,0.364950031042099
1750560852402571300,5.3175712890625,8.470050811767578,5.487000465393066,0.24495001137256622
1750560852412176100,5.327176025390625,8.047950744628906,5.533950328826904,0.07200000435113907
1750560852421781000,5.336781005859375,7.63200044631958,5.4910502433776855,0.19500000774860382
1750560852431385600,5.346385498046875,7.284000396728516,5.48205041885376,0.40005001425743103
1750560852440990700,5.35599072265625,7.240950107574463,5.4150004386901855,0.6780000329017639
1750560852450595300,5.36559521484375,7.663050174713135,5.452950477600098,0.7279500365257263
1750560852460200400,5.375200439453125,8.131950378417969,5.451000213623047,0.7429500222206116
1750560852469805000,5.38480517578125,8.42400074005127,5.439000129699707,0.6880500316619873
1750560852479410000,5.394409912109375,8.494050025939941,5.512950420379639,0.47700002789497375
1750560852489014800,5.404014892578125,8.29995059967041,5.617950439453125,0.34995001554489136
1750560852498619600,5.41361962890625,8.12700080871582,5.593950271606445,0.34095001220703125
1750560852508224500,5.423224609375,7.984050273895264,5.611050128936768,0.34095001220703125
1750560852517829400,5.432829345703125,7.912050247192383,5.57295036315918,0.40800002217292786
1750560852527434200,5.442434326171875,7.785000324249268,5.506050109863281,0.4990500211715698
1750560852537039000,5.4520390625,7.893000602722168,5.45805025100708,0.5490000247955322
1750560852546643700,5.461643798828125,8.151000022888184,5.463000297546387,0.5130000114440918
1750560852556248800,5.471248779296875,8.414999961853027,5.4340500831604,0.5490000247955322
1750560852565853700,5.480853759765625,8.282999992370605,5.451000213623047,0.5010000467300415
1750560852575458600,5.49045849609375,7.9860005378723145,5.515050411224365,0.2970000207424164
1750560852585063400,5.5000634765625,7.828050136566162,5.533950328826904,0.12300000339746475
1750560852594668000,5.50966796875,7.885050296783447,5.484000205993652,0.10605000704526901
1750560852604273000,5.51927294921875,8.017050743103027,5.431950092315674,0.30705001950263977
1750560852613877800,5.528877685546875,8.223000526428223,5.398050308227539,0.4600500166416168
1750560852623482600,5.538482666015625,8.419050216674805,5.436000347137451,0.5820000171661377
1750560852633087500,5.54808740234375,8.446050643920898,5.419950485229492,0.597000002861023
1750560852642692400,5.5576923828125,8.197050094604492,5.443050384521484,0.6490500569343567
1750560852652297000,5.567296875,7.951950550079346,5.500950336456299,0.7549500465393066
1750560852661901800,5.57690185546875,7.794000148773193,5.592000484466553,0.6570000052452087
1750560852671506700,5.586506591796875,7.770000457763672,5.604000091552734,0.3720000088214874
1750560852681111800,5.59611181640625,7.888050556182861,5.611050128936768,0.12300000339746475
1750560852690716700,5.605716552734375,7.9860005378723145,5.617950439453125,0.04800000041723251
1750560852700321300,5.6153212890625,8.110050201416016,5.544000148773193,0.20205001533031464
1750560852709926100,5.624926025390625,8.230050086975098,5.511000156402588,0.42900002002716064
1750560852719530800,5.63453076171875,8.37600040435791,5.503050327301025,0.5610000491142273
1750560852729135900,5.644135986328125,8.383049964904785,5.428950309753418,0.5629500150680542
1750560852738740700,5.65374072265625,8.414999961853027,5.455050468444824,0.39795002341270447
1750560852748345600,5.663345703125,8.368950843811035,5.4120001792907715,0.3450000286102295
1750560852757950500,5.672950439453125,8.10105037689209,5.400000095367432,0.4320000112056732
1750560852767555300,5.682555419921875,7.735050201416016,5.436000347137451,0.4720500111579895
1750560852777160200,5.69216015625,7.567050457000732,5.44605016708374,0.42900002002716064
1750560852786765000,5.70176513671875,7.8160505294799805,5.500950336456299,0.283050000667572
1750560852796370000,5.711369873046875,8.331000328063965,5.464950084686279,0.20595000684261322
1750560852805974500,5.720974609375,8.635050773620605,5.419950485229492,0.30900001525878906
1750560852815579400,5.730579345703125,8.802000045776367,5.379000186920166,0.3859500288963318
1750560852825184300,5.740184326171875,8.66100025177002,5.380950450897217,0.37905001640319824
1750560852834789000,5.7497890625,8.245050430297852,5.404950141906738,0.3430500030517578
1750560852844394000,5.75939404296875,7.828050136566162,5.499000072479248,0.29295000433921814
1750560852853998800,5.768998779296875,7.660050392150879,5.57295036315918,0.33105000853538513
1750560852863603700,5.778603759765625,7.878000259399414,5.57295036315918,0.3379500210285187
1750560852873208300,5.788208251953125,8.050950050354004,5.5489501953125,0.4120500087738037
1750560852882813200,5.797813232421875,8.154000282287598,5.496000289916992,0.3570000231266022
1750560852892418000,5.80741796875,8.04104995727539,5.467050075531006,0.3930000066757202
1750560852902023000,5.81702294921875,7.969050407409668,5.424000263214111,0.48405003547668457
1750560852911627800,5.826627685546875,8.035950660705566,5.443050384521484,0.48900002241134644
1750560852921232600,5.836232666015625,8.197050094604492,5.443050384521484,0.48705002665519714
1750560852930837500,5.84583740234375,8.36400032043457,5.410050392150879,0.46695002913475037
1750560852940442400,5.8554423828125,8.422050476074219,5.3959503173828125,0.34800001978874207
1750560852950047200,5.865047119140625,8.476950645446777,5.4120001792907715,0.3049500286579132
1750560852959652000,5.874652099609375,8.484000205993652,5.400000095367432,0.25394999980926514
1750560852969257000,5.884257080078125,8.247000694274902,5.400000095367432,0.3360000252723694
1750560852978861800,5.89386181640625,7.842000484466553,5.427000045776367,0.40995001792907715
1750560852988466400,5.903466552734375,7.591050148010254,5.44605016708374,0.3330000042915344
1750560852998071300,5.9130712890625,7.629000186920166,5.48205041885376,0.3360000252723694
1750560853007676200,5.92267626953125,7.9069504737854,5.45805025100708,0.40005001425743103
1750560853017281000,5.932281005859375,8.268000602722168,5.422050476074219,0.41505002975463867
1750560853026886000,5.941885986328125,8.447999954223633,5.38800048828125,0.40800002217292786
1750560853036490800,5.95149072265625,8.40000057220459,5.407950401306152,0.31905001401901245
1750560853046095400,5.961095458984375,8.224950790405273,5.475000381469727,0.2760000228881836
1750560853055700500,5.970700439453125,8.07705020904541,5.460000038146973,0.2970000207424164
1750560853065305300,5.980305419921875,8.07194995880127,5.48205041885376,0.34095001220703125
1750560853074910200,5.98991015625,8.05305004119873,5.487000465393066,0.39795002341270447
1750560853084514800,5.999514892578125,8.059950828552246,5.4910502433776855,0.38805001974105835
1750560853094119700,6.00911962890625,8.08395004272461,5.460000038146973,0.35295000672340393
1750560853103724500,6.018724609375,8.11500072479248,5.427000045776367,0.40800002217292786
1750560853113329700,6.02832958984375,8.079000473022461,5.326050281524658,0.4939500093460083
1750560853122934300,6.037934326171875,8.131950378417969,5.307000160217285,0.4819500148296356
1750560853132539100,6.0475390625,8.36205005645752,5.338050365447998,0.2950500249862671
1750560853142144000,6.05714404296875,8.58495044708252,5.356950283050537,0.17505000531673431
1750560853151748600,6.06674853515625,8.52495002746582,5.317050457000732,0.25005000829696655
1750560853161353700,6.076353759765625,8.32395076751709,5.38800048828125,0.4320000112056732
1750560853170958600,6.08595849609375,8.166000366210938,5.398050308227539,0.46995002031326294
1750560853180563500,6.0955634765625,8.170050621032715,5.368950366973877,0.4120500087738037
1750560853190168300,6.105168212890625,8.199000358581543,5.3959503173828125,0.24705001711845398
1750560853199773000,6.11477294921875,8.175000190734863,5.380950450897217,0.22605000436306
1750560853209378000,6.1243779296875,8.11500072479248,5.341050148010254,0.37905001640319824
1750560853218983000,6.13398291015625,8.062950134277344,5.386050224304199,0.5269500017166138
1750560853228587500,6.14358740234375,8.130000114440918,5.400000095367432,0.49605002999305725
1750560853238192400,6.1531923828125,8.320950508117676,5.448000431060791,0.27105000615119934
1750560853247797200,6.16279736328125,8.527050018310547,5.47005033493042,0.13005000352859497
1750560853257402000,6.172402099609375,8.482049942016602,5.410050392150879,0.18495000898838043
1750560853267007000,6.182007080078125,8.307000160217285,5.380950450897217,0.2970000207424164
1750560853276611800,6.19161181640625,8.038949966430664,5.379000186920166,0.32100000977516174
1750560853286216700,6.201216796875,7.902000427246094,5.3620500564575195,0.3739500045776367
1750560853295821600,6.210821533203125,7.861050605773926,5.380950450897217,0.4410000145435333
1750560853305426400,6.220426513671875,7.8949503898620605,5.398050308227539,0.47700002789497375
1750560853315031000,6.230031005859375,8.185050010681152,5.448000431060791,0.3960000276565552
1750560853324636000,6.239635986328125,8.488950729370117,5.455050468444824,0.2760000228881836
1750560853334240800,6.24924072265625,8.539050102233887,5.48205041885376,0.208950012922287
1750560853343845600,6.258845703125,8.344950675964355,5.479050159454346,0.12495000660419464
1750560853353450500,6.268450439453125,8.154000282287598,5.487000465393066,0.08700000494718552
1750560853363055400,6.278055419921875,8.074950218200684,5.460000038146973,0.17100000381469727
1750560853372660000,6.287659912109375,7.939950466156006,5.407950401306152,0.40005001425743103
1750560853382264800,6.297264892578125,7.942950248718262,5.379000186920166,0.5820000171661377
1750560853391870000,6.306869873046875,8.0149507522583,5.386050224304199,0.5389500260353088
1750560853401474600,6.316474609375,8.050950050354004,5.37600040435791,0.5730000138282776
1750560853411079400,6.326079345703125,8.119950294494629,5.407950401306152,0.46695002913475037
1750560853420684300,6.335684326171875,8.254050254821777,5.422050476074219,0.3739500045776367
1750560853430289200,6.3452890625,8.532000541687012,5.419950485229492,0.28095000982284546
1750560853439894300,6.354894287109375,8.635050773620605,5.380950450897217,0.24195000529289246
1750560853449499000,6.364498779296875,8.563050270080566,5.350050449371338,0.2179500162601471
1750560853459103700,6.374103759765625,8.355000495910645,5.386050224304199,0.11805000901222229
1750560853468708400,6.383708251953125,8.035950660705566,5.374050140380859,0.1270500123500824
1750560853478313500,6.3933134765625,7.713000297546387,5.374050140380859,0.2740500271320343
1750560853487918300,6.40291845703125,7.5169501304626465,5.374050140380859,0.3960000276565552
1750560853497523200,6.412523193359375,7.573950290679932,5.436000347137451,0.5029500126838684
1750560853507127800,6.4221279296875,7.927950382232666,5.463000297546387,0.5010000467300415
1750560853516732700,6.431732666015625,8.326050758361816,5.452950477600098,0.42195001244544983
1750560853526337500,6.441337646484375,8.42400074005127,5.443050384521484,0.22995001077651978
1750560853535942700,6.450942626953125,8.320950508117676,5.475000381469727,0.040950000286102295
1750560853545547500,6.460547607421875,8.046000480651855,5.48205041885376,0.06300000101327896
1750560853555152100,6.470152099609375,7.761000156402588,5.455050468444824,0.11805000901222229
1750560853564757000,6.479757080078125,7.7059502601623535,5.496000289916992,0.22305001318454742
1750560853574361900,6.48936181640625,7.869000434875488,5.443050384521484,0.325950026512146
1750560853583966700,6.498966796875,8.11305046081543,5.4150004386901855,0.36000001430511475
1750560853593571600,6.508571533203125,8.199000358581543,5.391000270843506,0.5440500378608704
1750560853603176400,6.518176513671875,8.383049964904785,5.38800048828125,0.5509500503540039
1750560853612781300,6.52778125,8.506050109863281,5.338050365447998,0.7380000352859497
1750560853622386000,6.537385986328125,8.656050682067871,5.314050197601318,1.072950005531311
1750560853631990800,6.54699072265625,8.656050682067871,5.281050205230713,1.7910001277923584
1750560853641595600,6.556595703125,8.652000427246094,4.926000118255615,3.5850002765655518
1750560853651200800,6.56620068359375,8.719050407409668,4.797000408172607,5.1820502281188965
1750560853660805400,6.575805419921875,9.613950729370117,4.190999984741211,7.963950157165527
1750560853670410200,6.58541015625,10.882950782775879,3.6190502643585205,9.451050758361816
1750560853680014800,6.595014892578125,11.668050765991211,3.346050262451172,9.664050102233887
1750560853689620000,6.604619873046875,11.898000717163086,3.277050256729126,8.254050254821777
1750560853699224800,6.614224853515625,12.010951042175293,3.763050079345703,5.974050521850586
1750560853708829700,6.62382958984375,11.472000122070312,3.6910502910614014,4.6840500831604
1750560853718434600,6.6334345703125,10.489950180053711,3.805950164794922,1.5520501136779785
1750560853728039200,6.6430390625,9.475050926208496,4.431000232696533,-2.196000099182129
1750560853737644000,6.65264404296875,7.801950454711914,5.238000392913818,-5.259000301361084
1750560853747249200,6.662249267578125,5.958000183105469,5.908050060272217,-8.046000480651855
1750560853756853800,6.671853759765625,4.477950096130371,6.3409504890441895,-8.991000175476074
1750560853766458600,6.681458740234375,3.29295015335083,6.624000549316406,-8.05305004119873
1750560853776063500,6.6910634765625,2.6800501346588135,6.463050365447998,-5.836050510406494
1750560853785668600,6.700668701171875,2.7880501747131348,6.444000244140625,-4.519050121307373
1750560853795273500,6.7102734375,3.315000057220459,6.151950359344482,-4.912050247192383
1750560853804878000,6.719878173828125,4.900050163269043,5.779050350189209,-5.8090500831604
1750560853814483000,6.72948291015625,6.886950492858887,5.596950054168701,-6.777000427246094
1750560853824088000,6.739088134765625,8.260950088500977,5.344950199127197,-7.426050186157227
1750560853833692700,6.748692626953125,8.98905086517334,5.142000198364258,-7.969050407409668
1750560853843297500,6.758297607421875,9.391050338745117,5.151000022888184,-8.752050399780273
1750560853852902100,6.767902099609375,8.97705078125,5.070000171661377,-9.003000259399414
1750560853862507000,6.777507080078125,8.173049926757812,4.828050136566162,-8.8410005569458
1750560853872112000,6.787112060546875,7.7989501953125,4.480950355529785,-8.758950233459473
1750560853881717000,6.796717041015625,7.564950466156006,4.105050086975098,-8.282999992370605
1750560853891321900,6.80632177734375,7.311000347137451,3.595050096511841,-7.560000419616699
1750560853900926500,6.815926513671875,6.7860002517700195,3.246000051498413,-6.544050216674805
1750560853910531300,6.82553125,5.368950366973877,2.8000500202178955,-4.4569501876831055
1750560853920136200,6.83513623046875,4.006950378417969,2.1349501609802246,-2.0220000743865967
1750560853929741000,6.844740966796875,3.705000162124634,1.480950117111206,2.026050090789795
1750560853939346000,6.854345947265625,4.576050281524658,1.921950101852417,5.263050079345703
1750560853948950800,6.86395068359375,7.234050273895264,2.388000011444092,5.83305025100708
1750560853958555600,6.8735556640625,10.999950408935547,3.0040502548217773,4.360949993133545
1750560853968160300,6.88316015625,14.0149507522583,3.574050188064575,2.5600500106811523
1750560853977765000,6.89276513671875,14.563050270080566,3.8419501781463623,2.7060000896453857
1750560853987370000,6.902369873046875,13.03800106048584,4.009050369262695,3.613950252532959
1750560853996974600,6.911974609375,10.993050575256348,4.134000301361084,4.947000026702881
1750560854006579700,6.921579833984375,9.946950912475586,4.255949974060059,4.9830002784729
1750560854016184600,6.9311845703125,10.231950759887695,4.5960001945495605,3.6280500888824463
1750560854025789400,6.94078955078125,10.809000968933105,4.821000099182129,1.9590001106262207
1750560854035394300,6.950394287109375,10.593000411987305,4.869000434875488,1.0830000638961792
1750560854044999000,6.9599990234375,9.595050811767578,4.942950248718262,0.9130500555038452
1750560854054603800,6.969603759765625,8.479050636291504,5.139000415802002,1.0350000858306885
1750560854064208600,6.979208740234375,7.648050308227539,5.2230000495910645,1.1910001039505005
1750560854073813500,6.9888134765625,7.303950309753418,5.331000328063965,1.114050030708313
1750560854083418400,6.99841845703125,7.726950168609619,5.451000213623047,0.6810000538825989
1750560854093023200,7.008023193359375,8.38800048828125,5.440950393676758,0.6349500417709351
1750560854102628000,7.017628173828125,8.794950485229492,5.3020501136779785,0.7330500483512878
1750560854112232700,7.027232666015625,8.932050704956055,5.173050403594971,0.7909500598907471
1750560854121837600,7.036837646484375,8.68005084991455,5.149050235748291,0.8940000534057617
1750560854131442400,7.0464423828125,8.40000057220459,5.151000022888184,0.8029500246047974
1750560854141047300,7.05604736328125,8.272950172424316,5.209050178527832,0.5779500007629395
1750560854150652200,7.065652099609375,8.154000282287598,5.26200008392334,0.33105000853538513
1750560854160257000,7.075257080078125,8.230050086975098,5.2230000495910645,0.11805000901222229
1750560854169861600,7.084861572265625,8.211000442504883,5.238000392913818,-0.00795000046491623
1750560854179466500,7.094466552734375,7.957050323486328,5.227950096130371,-0.13305000960826874
1750560854189071600,7.104071533203125,7.557000160217285,5.182950019836426,-0.29805001616477966
1750560854198676200,7.11367626953125,7.3560004234313965,5.161050319671631,-0.15900000929832458
1750560854208281000,7.123281005859375,7.492950439453125,5.094000339508057,0.1270500123500824
1750560854217886000,7.132885986328125,8.08395004272461,5.013000011444092,0.24195000529289246
1750560854227490800,7.14249072265625,8.781000137329102,5.005050182342529,0.364950031042099
1750560854237095700,7.152095703125,9.247950553894043,4.942950248718262,0.4050000309944153
1750560854246700500,7.161700439453125,9.322050094604492,4.998000144958496,0.4240500330924988
1750560854256305400,7.171305419921875,8.644050598144531,5.058000087738037,0.5440500378608704
1750560854265910000,7.180909912109375,7.869000434875488,5.127000331878662,0.6640500426292419
1750560854275515000,7.190514892578125,7.392000198364258,5.202000141143799,0.6450000405311584
1750560854285119700,7.20011962890625,7.432950496673584,5.250000476837158,0.36195001006126404
1750560854294724600,7.209724609375,7.693950176239014,5.26200008392334,0.28095000982284546
1750560854304329700,7.219329833984375,8.09595012664795,5.239950180053711,0.22305001318454742
1750560854313934300,7.228934326171875,8.623050689697266,5.20395040512085,0.12000000476837158
1750560854323539200,7.238539306640625,9.013050079345703,5.1660003662109375,0.039000000804662704
1750560854333143800,7.248143798828125,9.243000030517578,5.07705020904541,0.025050001218914986
1750560854342748700,7.257748779296875,9.065999984741211,5.068050384521484,0.20205001533031464
1750560854352353500,7.267353515625,8.517000198364258,5.022000312805176,0.6490500569343567
1750560854361958700,7.276958740234375,7.924050331115723,5.035950183868408,0.9970500469207764
1750560854371563300,7.286563232421875,7.576950550079346,5.1469502449035645,1.0800000429153442
1750560854381168000,7.296168212890625,7.573950290679932,5.2260003089904785,0.8119500279426575
1750560854390773000,7.30577294921875,8.138999938964844,5.278050422668457,0.3720000088214874
1750560854400377900,7.3153779296875,8.752050399780273,5.293050289154053,-0.07500000298023224
1750560854409982700,7.324982666015625,9.255000114440918,5.218050479888916,-0.3430500030517578
1750560854419587600,7.334587646484375,9.315000534057617,5.125050067901611,-0.17805001139640808
1750560854429192400,7.3441923828125,9.010950088500977,5.071950435638428,0.040950000286102295
1750560854438797300,7.35379736328125,8.644050598144531,5.035950183868408,0.30000001192092896
1750560854448402000,7.36340185546875,8.154000282287598,5.020050048828125,0.42705002427101135
1750560854458006800,7.3730068359375,7.735050201416016,5.080050468444824,0.4440000355243683
1750560854467611600,7.382611572265625,7.4350504875183105,5.110950469970703,0.36900001764297485
1750560854477216500,7.392216552734375,7.6050004959106445,5.1060004234313965,0.16095000505447388
1750560854486821400,7.4018212890625,8.170050621032715,5.137050151824951,-0.0799500048160553
1750560854496426200,7.41142626953125,8.713950157165527,5.1660003662109375,-0.21195000410079956
1750560854506030800,7.42103076171875,9.073050498962402,5.131950378417969,-0.15405000746250153
1750560854515635700,7.4306357421875,8.9839506149292,5.080050468444824,0.08400000631809235
1750560854525240800,7.44024072265625,8.593950271606445,5.020050048828125,0.3049500286579132
1750560854534845700,7.449845703125,8.08395004272461,4.998000144958496,0.6139500141143799
1750560854544450300,7.4594501953125,7.873050212860107,4.9770002365112305,0.6829500198364258
1750560854554055200,7.46905517578125,7.912050247192383,5.008050441741943,0.6540000438690186
1750560854563660000,7.478659912109375,8.182050704956055,4.998000144958496,0.6060000061988831
1750560854573264600,7.4882646484375,8.596050262451172,5.071950435638428,0.29295000433921814
1750560854582869800,7.497869873046875,8.92905044555664,5.139000415802002,0.016950000077486038
1750560854592474400,7.507474365234375,8.925000190734863,5.161050319671631,-0.1469999998807907
1750560854602079500,7.51707958984375,8.628000259399414,5.2230000495910645,-0.22605000436306
1750560854611684000,7.52668408203125,8.236949920654297,5.238000392913818,-0.15405000746250153
1750560854621289000,7.5362890625,7.960050582885742,5.281050205230713,-0.0970500037074089
1750560854630893800,7.545893798828125,7.857000350952148,5.263950347900391,-0.12105000764131546
1750560854640498700,7.555498779296875,7.8349504470825195,5.211000442504883,0.08700000494718552
1750560854650103600,7.565103515625,7.854000568389893,5.199000358581543,0.25394999980926514
1750560854659708400,7.57470849609375,7.782000541687012,5.178000450134277,0.4240500330924988
1750560854669313300,7.584313232421875,7.782000541687012,5.149050235748291,0.3960000276565552
1750560854678918000,7.59391796875,8.043000221252441,5.08905029296875,0.17805001139640808
1750560854688522800,7.603522705078125,8.625,5.11305046081543,-0.17805001139640808
1750560854698127600,7.613127685546875,9.09000015258789,5.104050159454346,-0.32895001769065857
1750560854707732700,7.622732666015625,9.10200023651123,5.074950218200684,-0.18495000898838043
1750560854717337300,7.63233740234375,8.601000785827637,5.083950042724609,0.00795000046491623
1750560854726942200,7.641942138671875,8.086950302124023,5.110950469970703,0.20595000684261322
1750560854736547000,7.651547119140625,7.750950336456299,5.137050151824951,0.3240000009536743
1750560854746152000,7.66115185546875,7.753950595855713,5.122950077056885,0.31200000643730164
1750560854755756800,7.6707568359375,8.010000228881836,5.134950160980225,0.23295001685619354
1750560854765361700,7.680361572265625,8.28795051574707,5.142000198364258,0.15600000321865082
1750560854774966500,7.689966552734375,8.6850004196167,5.1060004234313965,0.23295001685619354
1750560854784571100,7.699571044921875,9.013050079345703,5.115000247955322,0.2740500271320343
1750560854794176000,7.709176025390625,9.067950248718262,5.098950386047363,0.28095000982284546
1750560854803780900,7.71878076171875,8.764050483703613,5.131950378417969,0.1660500019788742
1750560854813385700,7.7283857421875,8.314050674438477,5.143950462341309,0.013050000183284283
1750560854822990600,7.737990478515625,8.022000312805176,5.127000331878662,0.07200000435113907
1750560854832595500,7.747595458984375,7.9170002937316895,5.143950462341309,0.13905000686645508
1750560854842200000,7.757199951171875,7.951950550079346,5.115000247955322,0.22305001318454742
1750560854851805000,7.766804931640625,8.059950828552246,5.11305046081543,0.25394999980926514
1750560854861410000,7.77641015625,8.367000579833984,5.119950294494629,0.21105000376701355
1750560854871015000,7.786014892578125,8.539050102233887,5.130000114440918,0.09195000678300858
1750560854880619500,7.79561962890625,8.6850004196167,5.068050384521484,0.028950002044439316
1750560854890224400,7.805224365234375,8.797950744628906,5.074950218200684,-0.015000000596046448
1750560854899829200,7.814829345703125,8.68005084991455,5.0560503005981445,0.10605000704526901
1750560854909433900,7.824433837890625,8.455050468444824,5.059950351715088,0.25394999980926514
1750560854919039000,7.8340390625,8.173049926757812,5.098950386047363,0.4630500078201294
1750560854928643800,7.843643798828125,8.11305046081543,5.1660003662109375,0.5320500135421753
1750560854938248700,7.853248779296875,8.218050003051758,5.190000057220459,0.42900002002716064
1750560854947853300,7.862853271484375,8.118000030517578,5.247000217437744,0.20205001533031464
1750560854957458200,7.872458251953125,7.9960503578186035,5.314050197601318,-0.010050000622868538
1750560854967063300,7.882063232421875,7.909050464630127,5.293050289154053,0.043950002640485764
1750560854976668200,7.891668212890625,7.969050407409668,5.245050430297852,0.1660500019788742
1750560854986272800,7.901272705078125,8.307000160217285,5.1660003662109375,0.2740500271320343
1750560854995877600,7.910877685546875,8.716050148010254,5.107950210571289,0.283050000667572
1750560855005482500,7.920482421875,8.982000350952148,5.071950435638428,0.28095000982284546
1750560855015087400,7.93008740234375,8.932050704956055,5.107950210571289,0.37605002522468567
1750560855024692200,7.939692138671875,8.647050857543945,5.092050075531006,0.38805001974105835
1750560855034297000,7.949297119140625,8.26395034790039,5.122950077056885,0.283050000667572
1750560855043902000,7.95890185546875,8.035950660705566,5.185050010681152,0.09405000507831573
1750560855053506600,7.968506591796875,8.0149507522583,5.125050067901611,0.08700000494718552
1750560855063111400,7.978111328125,8.10105037689209,5.107950210571289,0.11295000463724136
1750560855072716300,7.98771630859375,8.248950004577637,5.058000087738037,0.18495000898838043
1750560855082321200,7.997321044921875,8.40000057220459,5.014950275421143,0.2880000174045563
1750560855091926000,8.006926025390625,8.541000366210938,5.020050048828125,0.2740500271320343
1750560855101531000,8.01653076171875,8.740050315856934,5.050950050354004,0.2569500207901001
1750560855111135700,8.0261357421875,8.743050575256348,4.9960503578186035,0.3139500021934509
1750560855120740600,8.03574072265625,8.51294994354248,5.0530500411987305,0.19500000774860382
1750560855130345200,8.04534521484375,8.167950630187988,5.080050468444824,0.10605000704526901
1750560855139950300,8.054950439453124,7.978950500488281,5.127000331878662,0.015000000596046448
1750560855149555000,8.064554931640625,7.984050273895264,5.086950302124023,-0.00795000046491623
1750560855159159800,8.074159912109375,8.25195026397705,5.134950160980225,-0.09195000678300858
1750560855168764700,8.0837646484375,8.71095085144043,5.130000114440918,-0.16395001113414764
1750560855178369300,8.093369384765625,8.910000801086426,5.026950359344482,0.031950000673532486
1750560855187974400,8.102974365234376,8.958000183105469,4.984050273895264,0.20595000684261322
1750560855197579300,8.112579345703125,8.812050819396973,5.032050132751465,0.15600000321865082
1750560855207184100,8.12218408203125,8.404950141906738,5.029050350189209,0.2639999985694885
1750560855216788700,8.131788818359375,7.837050437927246,5.083950042724609,0.37605002522468567
1750560855226393600,8.1413935546875,7.584000587463379,5.16795015335083,0.4650000333786011
1750560855235998500,8.15099853515625,7.63200044631958,5.206050395965576,0.39795002341270447
1750560855245603300,8.160603271484375,7.858950138092041,5.251950263977051,0.22995001077651978
1750560855255208200,8.170208251953126,8.130000114440918,5.284950256347656,0.12000000476837158
1750560855264813000,8.17981298828125,8.40000057220459,5.182950019836426,-0.003000000026077032
1750560855274417700,8.189417724609376,8.629950523376465,5.1660003662109375,-0.11805000901222229
1750560855284022800,8.199022705078125,8.683050155639648,5.143950462341309,-0.06795000284910202
1750560855293627400,8.20862744140625,8.553000450134277,5.104050159454346,0.06300000101327896
1750560855303232300,8.218232177734375,8.308950424194336,5.07705020904541,0.3379500210285187
1750560855312837000,8.227837158203124,8.0149507522583,5.11305046081543,0.5920500159263611
1750560855322442000,8.23744189453125,7.9069504737854,5.1469502449035645,0.5820000171661377
1750560855332046800,8.247046875,8.023950576782227,5.206050395965576,0.4320000112056732
1750560855341651500,8.2566513671875,8.31195068359375,5.1660003662109375,0.283050000667572
1750560855351256300,8.26625634765625,8.443050384521484,5.175000190734863,0.13500000536441803
1750560855360861400,8.275861328125,8.425950050354004,5.170950412750244,0.12300000339746475
1750560855370466000,8.285466064453125,8.38800048828125,5.16795015335083,0.10395000129938126
1750560855380071000,8.29507080078125,8.296950340270996,5.16795015335083,0.12495000660419464
1750560855389675800,8.30467578125,8.218050003051758,5.139000415802002,0.18495000898838043
1750560855399280600,8.31428076171875,8.347050666809082,5.1660003662109375,0.19200000166893005
1750560855408885500,8.323885498046875,8.414999961853027,5.107950210571289,0.20205001533031464
1750560855418490400,8.333490478515625,8.517000198364258,5.08905029296875,0.15105000138282776
1750560855428095000,8.343094970703126,8.464950561523438,5.098950386047363,0.17295001447200775
1750560855437699800,8.352699951171875,8.367000579833984,5.0560503005981445,0.19500000774860382
1750560855447304700,8.3623046875,8.431050300598145,5.06505012512207,0.20400001108646393
1750560855456909600,8.37190966796875,8.455050468444824,5.047950267791748,0.22605000436306
1750560855466514400,8.381514404296874,8.553000450134277,5.029050350189209,0.18495000898838043
1750560855476119000,8.391119140625,8.671050071716309,5.082000255584717,0.1660500019788742
1750560855485724200,8.40072412109375,8.707050323486328,5.082000255584717,0.13695000112056732
1750560855495329000,8.4103291015625,8.671050071716309,5.0530500411987305,0.11805000901222229
1750560855504934000,8.419933837890625,8.521950721740723,5.0560503005981445,0.22800001502037048
1750560855514538500,8.42953857421875,8.43600082397461,5.0560503005981445,0.40995001792907715
1750560855524143400,8.439143310546875,8.64900016784668,5.047950267791748,0.4320000112056732
1750560855533748200,8.448748291015624,8.905050277709961,4.998000144958496,0.4240500330924988
1750560855543353000,8.45835302734375,9.031949996948242,5.023950099945068,0.34800001978874207
1750560855552958000,8.4679580078125,8.766000747680664,5.0560503005981445,0.2160000056028366
1750560855562562800,8.477562744140625,8.28795051574707,5.107950210571289,0.15600000321865082
1750560855572167700,8.487167724609375,7.893000602722168,5.125050067901611,0.1870500147342682
1750560855581772300,8.496772216796876,7.837050437927246,5.16795015335083,0.21405000984668732
1750560855591377400,8.50637744140625,8.043000221252441,5.20395040512085,0.32895001769065857
1750560855600982300,8.515982177734376,8.403000831604004,5.182950019836426,0.38805001974105835
1750560855610587000,8.5255869140625,8.701950073242188,5.151000022888184,0.43905001878738403
1750560855620191700,8.535191650390624,8.664000511169434,5.122950077056885,0.4600500166416168
1750560855629796600,8.544796630859375,8.28795051574707,5.1060004234313965,0.3550500273704529
1750560855639401500,8.5544013671875,7.9360504150390625,5.154000282287598,0.27105000615119934
1750560855649006300,8.56400634765625,7.693950176239014,5.142000198364258,0.25394999980926514
1750560855658611200,8.573611083984375,7.870950222015381,5.139000415802002,0.19005000591278076
1750560855668215800,8.5832158203125,8.179950714111328,5.131950378417969,0.043950002640485764
1750560855677820700,8.592820556640625,8.467050552368164,5.086950302124023,-0.015000000596046448
1750560855687425500,8.602425537109376,8.608050346374512,5.098950386047363,0.027000000700354576
1750560855697030400,8.612030517578125,8.467050552368164,5.098950386047363,0.13005000352859497
1750560855706635300,8.62163525390625,8.356950759887695,5.127000331878662,0.2179500162601471
1750560855716240100,8.631240234375,8.155950546264648,5.161050319671631,0.27105000615119934
1750560855725845000,8.640844970703125,8.142000198364258,5.134950160980225,0.21105000376701355
1750560855735449900,8.650449951171876,8.52495002746582,5.094000339508057,0.3049500286579132
1750560855745054500,8.660054443359375,8.886000633239746,5.026950359344482,0.283050000667572
1750560855754659300,8.669659423828126,8.956050872802734,5.06505012512207,0.2880000174045563
1750560855764264400,8.679264404296875,8.769000053405762,5.059950351715088,0.36195001006126404
1750560855773869300,8.688869384765624,8.407050132751465,5.029050350189209,0.5940000414848328
1750560855783474000,8.698473876953125,8.247000694274902,4.966950416564941,1.0230000019073486
1750560855793078800,8.708078857421874,8.403000831604004,4.777950286865234,2.1000001430511475
1750560855802683600,8.71768359375,8.557950019836426,4.579050064086914,4.128000259399414
1750560855812288500,8.72728857421875,8.874000549316406,4.479000091552734,5.194050312042236
1750560855821893400,8.736893310546876,9.69795036315918,4.5,5.5980000495910645
1750560855831498200,8.746498291015625,9.781949996948242,4.756050109863281,5.493000030517578
1750560855841102800,8.756102783203126,10.191000938415527,4.210050106048584,5.6509504318237305
1750560855850707700,8.765707763671875,10.729950904846191,3.90405011177063,5.854950428009033
1750560855860312300,8.775312255859374,11.09595012664795,3.7099502086639404,6.961050510406494
1750560855869917400,8.78491748046875,10.912050247192383,3.496950149536133,7.642950534820557
1750560855879522300,8.794522216796874,10.447050094604492,3.6600000858306885,5.389950275421143
1750560855889127200,8.804127197265625,9.588000297546387,3.850950241088867,2.622000217437744
1750560855898731800,8.813731689453125,8.256000518798828,4.074000358581543,-0.21900001168251038
1750560855908336600,8.823336669921876,7.093050479888916,4.492950439453125,-2.2829999923706055
1750560855917941500,8.83294140625,6.409950256347656,4.795050144195557,-3.829050064086914
1750560855927546600,8.842546630859376,6.133050441741943,5.326050281524658,-6.565950393676758
1750560855937151200,8.852151123046875,6.493950366973877,5.689950466156006,-8.63895034790039
1750560855946756000,8.861756103515624,6.6910505294799805,6.133050441741943,-9.963000297546387
1750560855956361000,8.87136083984375,6.8610005378723145,6.082950115203857,-10.408950805664062
1750560855965965600,8.880965576171874,6.499050140380859,6.010950088500977,-9.730950355529785
1750560855975570700,8.89057080078125,5.884050369262695,5.653950214385986,-8.34000015258789
1750560855985175600,8.900175537109375,5.877000331878662,5.161050319671631,-7.231950283050537
1750560855994780400,8.909780517578126,6.472950458526611,4.845000267028809,-6.60705041885376
1750560856004385000,8.919385009765625,6.994950294494629,4.680000305175781,-6.4609503746032715
1750560856013990000,8.928989990234374,7.1170501708984375,4.371000289916992,-6.358050346374512
1750560856023594800,8.9385947265625,7.4350504875183105,4.1670002937316895,-6.6469502449035645
1750560856033199600,8.94819970703125,7.591050148010254,4.3279500007629395,-7.428000450134277
1750560856042804500,8.957804443359375,7.593000411987305,4.507050037384033,-8.10105037689209
1750560856052409300,8.967409423828125,7.003950119018555,4.372950077056885,-7.681950569152832
1750560856062014000,8.977013916015625,6.1180500984191895,3.805950164794922,-5.647050380706787
1750560856071618800,8.986618896484375,5.63700008392334,3.576000213623047,-4.5859503746032715
1750560856081223700,8.9962236328125,5.5489501953125,3.246000051498413,-3.613950252532959
1750560856090828500,9.00582861328125,6.0010504722595215,2.7550501823425293,-1.1759999990463257
1750560856100433400,9.015433349609374,5.460000038146973,2.7910501956939697,1.2430500984191895
1750560856110038300,9.025038330078125,5.769000053405762,2.428950071334839,4.042050361633301
1750560856119643100,9.03464306640625,7.890000343322754,2.281050205230713,5.5600504875183105
1750560856129247700,9.044247802734375,11.371050834655762,2.737950086593628,4.915950298309326
1750560856138852600,9.0538525390625,14.637001037597656,3.4110002517700195,3.6660001277923584
1750560856148457500,9.06345751953125,15.612000465393066,3.7819502353668213,2.743950128555298
1750560856158062600,9.0730625,13.987950325012207,3.9690001010894775,3.0460500717163086
1750560856167667200,9.082667236328126,11.10105037689209,4.081050395965576,4.839000225067139
1750560856177272000,9.09227197265625,8.95305061340332,4.32105016708374,5.5410003662109375
1750560856186877000,9.101876953125,8.419050216674805,4.701000213623047,4.713000297546387
1750560856196481500,9.1114814453125,8.962950706481934,5.008050441741943,3.0990002155303955
1750560856206086700,9.121086669921874,9.26205062866211,5.199000358581543,1.9729501008987427
1750560856215691500,9.13069140625,8.893050193786621,5.323950290679932,1.1569499969482422
1750560856225296400,9.14029638671875,8.347050666809082,5.530050277709961,0.42900002002716064
1750560856234901200,9.1499013671875,8.146050453186035,5.5819501876831055,0.0010500000789761543
1750560856244505900,9.159505859375,8.107950210571289,5.38800048828125,0.2740500271320343
1750560856254110700,9.16911083984375,8.146050453186035,5.329050064086914,0.9889500737190247
1750560856263715600,9.178715576171875,8.407050132751465,5.283000469207764,1.5109500885009766
1750560856273320400,9.188320556640624,8.817000389099121,5.122950077056885,1.815000057220459
1750560856282925300,9.19792529296875,9.049050331115723,5.050950050354004,1.7959500551223755
1750560856292530000,9.207530029296874,8.866950035095215,5.130000114440918,1.3560000658035278
1750560856302134800,9.217134765625,8.223000526428223,5.173050403594971,0.8550000190734863
1750560856311739600,9.22673974609375,7.617000579833984,5.343000411987305,0.5370000004768372
1750560856321344500,9.236344482421876,7.4760003089904785,5.448000431060791,0.20205001533031464
1750560856330949400,9.245949462890625,7.636050224304199,5.451000213623047,-0.07304999977350235
1750560856340554200,9.25555419921875,7.990950584411621,5.355000019073486,-0.17100000381469727
1750560856350158800,9.265158935546875,8.343000411987305,5.278050422668457,-0.11295000463724136
1750560856359763700,9.274763671875,8.185050010681152,5.143950462341309,-0.034050002694129944
1750560856369368600,9.28436865234375,7.7659502029418945,5.050950050354004,0.28995001316070557
1750560856378973700,9.2939736328125,7.560000419616699,5.038950443267822,0.5989500284194946
1750560856388578600,9.30357861328125,7.729950428009033,5.014950275421143,0.7999500632286072
1750560856398183200,9.31318310546875,8.118000030517578,5.046000003814697,0.7690500617027283
1750560856407788000,9.3227880859375,8.652000427246094,5.098950386047363,0.6450000405311584
1750560856417393000,9.332392822265625,9.027000427246094,5.131950378417969,0.5010000467300415
1750560856426997800,9.341997802734374,9.142050743103027,5.154000282287598,0.2760000228881836
1750560856436602400,9.351602294921875,8.932050704956055,5.185050010681152,0.13905000686645508
1750560856446207500,9.36120751953125,8.517000198364258,5.206050395965576,0.13695000112056732
1750560856455812400,9.370812255859375,8.067000389099121,5.16795015335083,0.1969500035047531
1750560856465417000,9.3804169921875,7.878000259399414,5.083950042724609,0.4030500054359436
1750560856475022000,9.39002197265625,8.010000228881836,5.038950443267822,0.5700000524520874
1750560856484626700,9.399626708984375,8.290050506591797,5.026950359344482,0.5700000524520874
1750560856494231600,9.4092314453125,8.656050682067871,5.047950267791748,0.5629500150680542
1750560856503836400,9.41883642578125,8.8410005569458,5.0560503005981445,0.5230500102043152
1750560856513441000,9.42844091796875,8.625,5.130000114440918,0.5509500503540039
1750560856523046000,9.4380458984375,8.12505054473877,5.178000450134277,0.609000027179718
1750560856532650800,9.447650634765624,7.7989501953125,5.202000141143799,0.3859500288963318
1750560856542255600,9.457255615234375,7.870950222015381,5.2759504318237305,0.14205001294612885
1750560856551860500,9.466860595703125,8.233050346374512,5.326050281524658,0.05100000277161598
1750560856561465300,9.47646533203125,8.379000663757324,5.263950347900391,0.2950500249862671
1750560856571070000,9.486070068359375,7.984050273895264,5.19195032119751,0.7380000352859497
1750560856580674800,9.4956748046875,7.789950370788574,5.206050395965576,0.8269500136375427
1750560856590279700,9.50527978515625,7.873050212860107,5.259000301361084,0.7309500575065613
1750560856599884500,9.514884521484374,8.017050743103027,5.206050395965576,0.7519500255584717
1750560856609489400,9.524489501953125,8.28795051574707,5.251950263977051,0.6420000195503235
1750560856619094300,9.53409423828125,8.497950553894043,5.296950340270996,0.4410000145435333
1750560856628699100,9.54369921875,8.623050689697266,5.206050395965576,0.3379500210285187
1750560856638304000,9.553303955078125,8.568000793457031,5.263950347900391,0.22605000436306
1750560856647908600,9.56290869140625,8.280000686645508,5.257050037384033,0.17805001139640808
1750560856657513700,9.572513671875,7.854000568389893,5.199000358581543,0.14205001294612885
1750560856667118600,9.58211865234375,7.702950477600098,5.1660003662109375,0.0990000069141388
1750560856676723500,9.591723388671875,7.579050540924072,5.161050319671631,0.2160000056028366
1750560856686328000,9.601328125,7.7149505615234375,5.094000339508057,0.6570000052452087
1750560856695933000,9.610932861328125,8.031000137329102,5.095950126647949,0.8580000400543213
1750560856705537800,9.620537841796875,8.617950439453125,5.142000198364258,0.7140000462532043
1750560856715143000,9.630142822265626,9.079950332641602,5.127000331878662,0.4549500346183777
1750560856724747500,9.63974755859375,9.20895004272461,5.127000331878662,0.20205001533031464
1750560856734352400,9.649352294921876,9.12600040435791,5.107950210571289,0.08400000631809235
1750560856743957000,9.65895703125,8.769000053405762,5.151000022888184,0.15600000321865082
1750560856753561900,9.668561767578124,8.256000518798828,5.134950160980225,0.5149500370025635
1750560856763166700,9.678166748046875,7.924050331115723,5.149050235748291,0.7210500240325928
1750560856772771600,9.687771484375,7.890000343322754,5.115000247955322,0.843000054359436
1750560856782376400,9.69737646484375,7.912050247192383,5.10105037689209,0.7620000243186951
1750560856791981000,9.70698095703125,7.914000511169434,5.209050178527832,0.5440500378608704
1750560856801586000,9.7165859375,7.91895055770874,5.257050037384033,0.30705001950263977
1750560856811190800,9.726190673828125,8.110050201416016,5.284950256347656,0.08205000311136246
1750560856820795600,9.735795654296876,8.476950645446777,5.206050395965576,-0.039000000804662704
1750560856830400500,9.745400390625,8.874000549316406,5.154000282287598,-0.0990000069141388
1750560856840005400,9.75500537109375,9.195000648498535,5.104050159454346,-0.013050000183284283
1750560856849610200,9.7646103515625,9.037050247192383,4.990950107574463,0.4459500312805176
1750560856859215000,9.774215087890624,8.701950073242188,4.98105001449585,0.8629500269889832
1750560856868819700,9.78381982421875,8.221050262451172,5.010000228881836,1.071000099182129
1750560856878424600,9.793424560546875,7.969050407409668,5.058000087738037,1.0300500392913818
1750560856888029700,9.80302978515625,8.022000312805176,5.170950412750244,0.8239500522613525
1750560856897634600,9.812634521484375,8.08395004272461,5.202000141143799,0.5700000524520874
1750560856907239200,9.8222392578125,8.34000015258789,5.214000225067139,0.31905001401901245
1750560856916844000,9.831843994140625,8.380949974060059,5.259000301361084,0.12000000476837158
1750560856926448600,9.84144873046875,8.320950508117676,5.257050037384033,-0.00795000046491623
1750560856936053800,9.8510537109375,8.230050086975098,5.271000385284424,-0.003000000026077032
1750560856945658600,9.86065869140625,8.098050117492676,5.202000141143799,0.2160000056028366
1750560856955263500,9.870263427734375,8.046000480651855,5.10105037689209,0.5989500284194946
1750560856964868000,9.8798681640625,8.155950546264648,5.080050468444824,0.778950035572052
1750560856974473000,9.889472900390626,8.431050300598145,5.086950302124023,0.6660000085830688
1750560856984077800,9.899077880859375,8.664000511169434,5.029050350189209,0.4030500054359436
1750560856993682700,9.9086826171875,8.728050231933594,5.034000396728516,0.20205001533031464
1750560857003287300,9.918287353515625,8.632050514221191,5.068050384521484,0.19005000591278076
1750560857012892400,9.927892333984374,8.447999954223633,5.118000030517578,0.22095000743865967
1750560857022497000,9.9374970703125,8.167950630187988,5.122950077056885,0.32100000977516174
1750560857032102000,9.947101806640624,7.858950138092041,5.16795015335083,0.364950031042099
1750560857041706800,9.956706787109376,7.833000183105469,5.134950160980225,0.41700002551078796
1750560857051311400,9.966311279296875,8.058000564575195,5.095950126647949,0.4909500181674957
1750560857060916200,9.975916259765626,8.371050834655762,5.082000255584717,0.4650000333786011
1750560857070521300,9.985521240234375,8.640000343322754,5.046000003814697,0.4650000333786011
1750560857080126200,9.995126220703124,8.946000099182129,5.047950267791748,0.47895002365112305
1750560857089730800,10.004730712890625,8.95305061340332,5.023950099945068,0.5080500245094299
1750560857099335700,10.014335693359374,8.692049980163574,5.082000255584717,0.4240500330924988
1750560857108940500,10.0239404296875,8.271000862121582,5.173050403594971,0.30900001525878906
1750560857118545700,10.033545654296875,7.954950332641602,5.1660003662109375,0.22095000743865967
1750560857128150300,10.043150390625,8.038949966430664,5.158950328826904,0.2350500077009201
1750560857137755100,10.052755126953125,8.35004997253418,5.107950210571289,0.30705001950263977
1750560857147359700,10.06235986328125,8.707050323486328,4.990950107574463,0.5110500454902649
1750560857156964900,10.07196484375,8.874000549316406,4.978950023651123,0.6640500426292419
1750560857166569700,10.08156982421875,8.838000297546387,5.023950099945068,0.5989500284194946
1750560857176174300,10.09117431640625,8.569950103759766,5.119950294494629,0.36000001430511475
1750560857185779200,10.100779296875,8.37600040435791,5.15595006942749,0.17295001447200775
1750560857195384000,10.110384033203125,8.227950096130371,5.182950019836426,0.0580500029027462
1750560857204989000,10.119989013671875,8.12505054473877,5.17995023727417,0.027000000700354576
1750560857214593800,10.12959375,8.005050659179688,5.08905029296875,0.2689500153064728
1750560857224198700,10.13919873046875,7.939950466156006,5.07705020904541,0.42900002002716064
1750560857233803500,10.148803466796876,7.962000370025635,5.005050182342529,0.62295001745224
1750560857243408100,10.158408203125,8.163000106811523,5.1060004234313965,0.5700000524520874
1750560857253013000,10.168012939453124,8.41200065612793,5.161050319671631,0.5370000004768372
1750560857262617900,10.177617919921875,8.482049942016602,5.158950328826904,0.5419500470161438
1750560857272222700,10.18722265625,8.391000747680664,5.161050319671631,0.520050048828125
1750560857281827600,10.19682763671875,8.35200023651123,5.20395040512085,0.325950026512146
1750560857291432400,10.206432373046875,8.32800006866455,5.17995023727417,0.20205001533031464
1750560857301037000,10.216037109375,8.33595085144043,5.1660003662109375,0.25905001163482666
1750560857310642000,10.225641845703125,8.28795051574707,5.154000282287598,0.32895001769065857
1750560857320246800,10.235246826171876,8.284950256347656,5.11305046081543,0.4720500111579895
1750560857329851600,10.2448515625,8.320950508117676,5.104050159454346,0.6810000538825989
1750560857339456800,10.254456787109374,8.416950225830078,5.130000114440918,0.7570500373840332
1750560857349061400,10.264061279296875,8.37405014038086,5.11305046081543,0.7210500240325928
1750560857358666200,10.273666259765625,8.26395034790039,5.154000282287598,0.45795002579689026
1750560857368270800,10.283270751953125,8.248950004577637,5.187000274658203,0.09405000507831573
1750560857377875700,10.292875732421875,8.319000244140625,5.202000141143799,-0.039000000804662704
1750560857387480600,10.30248046875,8.416950225830078,5.175000190734863,0.04605000093579292
1750560857397085400,10.31208544921875,8.431050300598145,5.115000247955322,0.3240000009536743
1750560857406690300,10.321690185546874,8.472000122070312,5.058000087738037,0.5850000381469727
1750560857416295200,10.331295166015625,8.66100025177002,5.058000087738037,0.6469500064849854
1750560857425900000,10.340900146484374,8.68005084991455,5.047950267791748,0.5800500512123108
1750560857435504600,10.350504638671875,8.446050643920898,5.06505012512207,0.40005001425743103
1750560857445109800,10.36010986328125,8.187000274658203,5.151000022888184,0.25905001163482666
1750560857454714400,10.36971435546875,7.984050273895264,5.17995023727417,0.24705001711845398
1750560857464319200,10.3793193359375,8.022000312805176,5.2420501708984375,0.23805001378059387
1750560857473924000,10.388924072265626,8.326050758361816,5.235000133514404,0.2569500207901001
1750560857483529000,10.398529052734375,8.565000534057617,5.137050151824951,0.4440000355243683
1750560857493133600,10.408133544921874,8.707050323486328,5.173050403594971,0.5110500454902649
1750560857502738400,10.417738525390625,8.407050132751465,5.134950160980225,0.5560500025749207
1750560857512343600,10.427343505859374,8.06505012512207,5.094000339508057,0.6160500049591064
1750560857521948200,10.4369482421875,7.9170002937316895,5.163000106811523,0.5010000467300415
1750560857531553000,10.446552978515625,7.981050491333008,5.125050067901611,0.3739500045776367
1750560857541158000,10.456157958984376,8.295000076293945,5.119950294494629,0.31200000643730164
1750560857550762500,10.465762451171875,8.580000877380371,5.086950302124023,0.325950026512146
1750560857560367600,10.47536767578125,8.629950523376465,5.07705020904541,0.3139500021934509
1750560857569972500,10.484972412109375,8.599050521850586,5.062950134277344,0.3139500021934509
1750560857579577300,10.494577392578124,8.563050270080566,5.07705020904541,0.29295000433921814
1750560857589182200,10.50418212890625,8.290050506591797,5.034000396728516,0.46995002031326294
1750560857598786800,10.513786865234374,8.155950546264648,5.044050216674805,0.44805002212524414
1750560857608391700,10.5233916015625,8.206049919128418,5.080050468444824,0.32100000977516174
1750560857617996500,10.53299658203125,8.254050254821777,5.068050384521484,0.24495001137256622
1750560857627601400,10.542601318359376,8.236949920654297,5.080050468444824,0.2179500162601471
1750560857637206300,10.552206298828125,8.08395004272461,5.082000255584717,0.32895001769065857
1750560857646811000,10.561810791015626,8.122050285339355,5.08905029296875,0.32895001769065857
1750560857656415700,10.571415771484375,8.315999984741211,5.080050468444824,0.3169500231742859
1750560857666020600,10.5810205078125,8.629950523376465,5.095950126647949,0.325950026512146
1750560857675625500,10.59062548828125,8.86500072479248,5.10105037689209,0.34800001978874207
1750560857685230600,10.600230712890625,8.770950317382812,5.046000003814697,0.33105000853538513
1750560857694835200,10.609835205078125,8.496000289916992,5.059950351715088,0.30195000767707825
1750560857704439800,10.619439697265625,8.122050285339355,5.107950210571289,0.3330000042915344
1750560857714044700,10.629044677734376,7.950000286102295,5.11305046081543,0.4120500087738037
1750560857723649500,10.6386494140625,8.11305046081543,5.1469502449035645,0.32895001769065857
1750560857733254100,10.648254150390626,8.230050086975098,5.139000415802002,0.27105000615119934
1750560857742859300,10.657859375,8.517000198364258,5.122950077056885,0.32895001769065857
1750560857752464100,10.667464111328124,8.665950775146484,5.095950126647949,0.5059500336647034
1750560857762069000,10.677069091796875,8.689949989318848,5.059950351715088,0.5269500017166138
1750560857771673600,10.686673583984375,8.616000175476074,5.149050235748291,0.2950500249862671
1750560857781278500,10.696278564453126,8.37405014038086,5.098950386047363,0.20400001108646393
1750560857790883600,10.705883544921875,8.182050704956055,5.070000171661377,0.29295000433921814
1750560857800488200,10.71548828125,8.134050369262695,5.07705020904541,0.3720000088214874
1750560857810093000,10.725093017578125,8.006999969482422,5.094000339508057,0.3570000231266022
1750560857819698000,10.734697998046874,7.987950325012207,5.154000282287598,0.18495000898838043
1750560857829302500,10.744302490234375,7.978950500488281,5.2260003089904785,0.1270500123500824
1750560857838907400,10.753907470703124,8.023950576782227,5.2260003089904785,0.11295000463724136
1750560857848512300,10.76351220703125,8.182050704956055,5.238000392913818,0.19200000166893005
1750560857858117000,10.7731171875,8.419050216674805,5.134950160980225,0.3169500231742859
1750560857867722000,10.782721923828126,8.731050491333008,5.017050266265869,0.6400500535964966
1750560857877326800,10.792326904296875,8.776050567626953,4.945050239562988,0.9799500703811646
1750560857886931700,10.801931640625,8.56095027923584,4.912050247192383,1.2619500160217285
1750560857896536300,10.811536376953125,7.833000183105469,4.692000389099121,2.7490501403808594
1750560857906141200,10.82114111328125,7.423050403594971,4.584000110626221,3.8580002784729004
1750560857915746300,10.830746337890625,7.656000137329102,4.288949966430664,5.682000160217285
1750560857925351200,10.84035107421875,8.02695083618164,3.6379501819610596,8.068950653076172
1750560857934955800,10.849955810546875,9.094050407409668,3.8749501705169678,9.280950546264648
1750560857944560600,10.859560546875,9.363000869750977,3.6720001697540283,10.27695083618164
1750560857954165500,10.86916552734375,9.657000541687012,3.684000253677368,7.891950607299805
1750560857963770400,10.878770263671875,11.272950172424316,4.288949966430664,3.172950267791748
1750560857973375200,10.888375244140626,12.037050247192383,4.663050174713135,0.00795000046491623
1750560857982979800,10.897979736328125,10.854000091552734,3.9300003051757812,2.25600004196167
1750560857992584700,10.907584716796874,8.802000045776367,3.3030002117156982,4.068000316619873
1750560858002189600,10.917189453125,6.925050258636475,3.5350501537323,2.625000238418579
1750560858011794200,10.926794189453124,5.604000091552734,3.7960500717163086,-0.5779500007629395
1750560858021399300,10.9363994140625,5.989050388336182,4.219950199127197,-5.437950134277344
1750560858031004200,10.946004150390625,7.576950550079346,5.2230000495910645,-10.51200008392334
1750560858040609000,10.955609130859376,8.652000427246094,5.818950176239014,-13.464000701904297
1750560858050213600,10.965213623046875,8.41200065612793,5.805000305175781,-13.453950881958008
1750560858059818500,10.974818603515626,7.486050128936768,5.652000427246094,-12.136950492858887
1750560858069423400,10.98442333984375,6.703050136566162,5.185050010681152,-10.384950637817383
1750560858079028200,10.9940283203125,6.6910505294799805,4.692000389099121,-9.355050086975098
1750560858088633000,11.003633056640625,6.885000228881836,3.9160501956939697,-8.212950706481934
1750560858098238000,11.013238037109375,6.994950294494629,3.1549501419067383,-6.58305025100708
1750560858107842600,11.022842529296875,7.8160505294799805,2.6520001888275146,-5.806950092315674
1750560858117447400,11.032447509765625,8.497950553894043,2.7280502319335938,-6.324000358581543
1750560858127052500,11.042052490234376,8.494050025939941,2.628000020980835,-6.370050430297852
1750560858136657200,11.0516572265625,7.978950500488281,2.620950222015381,-6.23805046081543
1750560858146262000,11.061261962890624,7.3969502449035645,2.4870002269744873,-5.769000053405762
1750560858155867000,11.070866943359375,7.6050004959106445,2.050950050354004,-4.333950042724609
1750560858165471700,11.0804716796875,9.031949996948242,2.115000009536743,-3.492000102996826
1750560858175076600,11.09007666015625,10.857000350952148,2.047950029373169,-2.5990500450134277
1750560858184681500,11.099681396484375,11.362051010131836,2.5540502071380615,-2.971950054168701
1750560858194286000,11.1092861328125,11.233050346374512,2.2300500869750977,-3.220950126647949
1750560858203891000,11.118890869140625,10.147950172424316,1.9860000610351562,-1.686000108718872
1750560858213495800,11.128495849609376,8.062950134277344,1.162950038909912,3.601950168609619
1750560858223100700,11.1381005859375,7.260000228881836,1.1239500045776367,7.705050468444824
1750560858232705500,11.14770556640625,8.881050109863281,1.9840500354766846,7.9860005378723145
1750560858242310400,11.157310302734375,11.809950828552246,3.0829501152038574,5.851950168609619
1750560858251915300,11.166915283203124,13.483050346374512,3.624000072479248,3.220950126647949
1750560858261520100,11.17652001953125,13.177050590515137,3.942000150680542,1.4160000085830688
1750560858271124700,11.186124755859375,11.5489501953125,4.503000259399414,0.7240500450134277
1750560858280729600,11.1957294921875,9.085050582885742,4.597949981689453,1.5859500169754028
1750560858290334500,11.20533447265625,6.994950294494629,4.43595027923584,3.4650001525878906
1750560858299939000,11.21493896484375,6.307950496673584,4.833000183105469,3.630000114440918
1750560858309544200,11.224544189453125,6.517950534820557,5.154000282287598,2.2609500885009766
1750560858319148800,11.234148681640624,6.88200044631958,5.269050121307373,1.1380500793457031
1750560858328753700,11.243753662109375,6.999000549316406,5.317050457000732,0.6810000538825989
1750560858338358500,11.253358642578124,7.210050106048584,5.209050178527832,0.8359500169754028
1750560858347963100,11.262963134765625,8.356950759887695,5.190000057220459,0.6949500441551208
1750560858357568300,11.272568359375,9.748050689697266,5.1660003662109375,0.18000000715255737
1750560858367173000,11.282173095703126,10.395000457763672,5.050950050354004,-0.17805001139640808
1750560858376777700,11.29177783203125,9.43005084991455,4.900050163269043,0.3930000066757202
1750560858386382600,11.301382568359376,7.890000343322754,4.703999996185303,1.6810500621795654
1750560858395987500,11.310987548828125,7.294050216674805,4.653000354766846,2.3830502033233643
1750560858405592300,11.32059228515625,7.780050277709961,4.672950267791748,1.9380000829696655
1750560858415197200,11.330197265625,8.57295036315918,4.759050369262695,1.0969500541687012
1750560858424801800,11.3398017578125,9.046950340270996,4.821000099182129,0.22095000743865967
1750560858434407000,11.349406982421876,8.8410005569458,4.885950088500977,-0.4030500054359436
1750560858444011500,11.359011474609375,8.380949974060059,4.869000434875488,-0.6760500073432922
1750560858453616400,11.368616455078126,8.074950218200684,4.833000183105469,-0.625950038433075
1750560858463221200,11.37822119140625,8.070000648498535,4.7059502601623535,-0.5989500284194946
1750560858472826000,11.387826171875,8.146050453186035,4.546050071716309,-0.04200000315904617
1750560858482431000,11.397430908203125,8.332950592041016,4.462050437927246,0.6040500402450562
1750560858492035800,11.407035888671874,8.789999961853027,4.279950141906738,1.2960000038146973
1750560858501640700,11.416640625,9.38700008392334,4.311000347137451,1.3890000581741333
1750560858511245300,11.426245361328125,9.636000633239746,4.394999980926514,0.8940000534057617
1750560858520850200,11.43585009765625,9.394050598144531,4.479000091552734,0.22095000743865967
1750560858530455000,11.445455078125,8.901000022888184,4.653000354766846,-0.19500000774860382
1750560858540060000,11.455059814453126,8.565000534057617,4.684950351715088,-0.2740500271320343
1750560858549664800,11.464664794921875,8.604000091552734,4.680000305175781,-0.24495001137256622
1750560858559269600,11.47426953125,8.898000717163086,4.644000053405762,-0.18495000898838043
1750560858568874200,11.483874267578125,9.075000762939453,4.62000036239624,-0.15600000321865082
1750560858578479000,11.49347900390625,8.824049949645996,4.528950214385986,0.1660500019788742
1750560858588084000,11.503083984375,8.410050392150879,4.504950046539307,0.2639999985694885
1750560858597688800,11.512688720703125,8.227950096130371,4.546050071716309,0.17505000531673431
1750560858607293700,11.522293701171876,8.398050308227539,4.507050037384033,0.027000000700354576
1750560858616898300,11.531898193359375,8.764050483703613,4.546050071716309,-0.034050002694129944
1750560858626503200,11.541503173828126,9.109050750732422,4.651050090789795,-0.0580500029027462
1750560858636108000,11.55110791015625,9.26205062866211,4.663050174713135,0.07200000435113907
1750560858645713000,11.560712890625,9.001049995422363,4.684950351715088,0.22605000436306
1750560858655317800,11.57031787109375,8.539050102233887,4.680000305175781,0.30705001950263977
1750560858664922600,11.579922607421874,8.221050262451172,4.6369500160217285,0.29295000433921814
1750560858674527500,11.589527587890625,8.043000221252441,4.629000186920166,0.2779500186443329
1750560858684132000,11.599132080078125,8.185050010681152,4.5769500732421875,0.30705001950263977
1750560858693737000,11.608737060546876,8.517000198364258,4.546050071716309,0.26205000281333923
1750560858703341800,11.618341796875,8.92905044555664,4.567049980163574,0.17805001139640808
1750560858712946700,11.62794677734375,9.196950912475586,4.579050064086914,0.04605000093579292
1750560858722551600,11.637551513671875,9.058950424194336,4.5859503746032715,0.06300000101327896
1750560858732156400,11.647156494140624,8.575050354003906,4.534049987792969,0.1870500147342682
1750560858741761000,11.656760986328125,8.142000198364258,4.540950298309326,0.21405000984668732
1750560858751366000,11.666365966796874,8.022000312805176,4.549950122833252,0.17805001139640808
1750560858760971000,11.675970947265625,8.200950622558594,4.588950157165527,0.2179500162601471
1750560858770575600,11.68557568359375,8.503050804138184,4.548000335693359,0.3240000009536743
1750560858780180500,11.695180419921876,8.934000015258789,4.561950206756592,0.34800001978874207
1750560858789785300,11.704785400390625,9.163949966430664,4.597949981689453,0.2689500153064728
1750560858799390200,11.71439013671875,9.082950592041016,4.629000186920166,0.15600000321865082
1750560858808994800,11.723994873046875,8.644050598144531,4.639050006866455,-0.037050001323223114
1750560858818599700,11.733599609375,8.254050254821777,4.677000045776367,-0.1489500105381012
1750560858828204500,11.74320458984375,8.010000228881836,4.648950099945068,-0.06495000422000885
1750560858837809400,11.752809326171874,7.926000595092773,4.597949981689453,0.28995001316070557
1750560858847414300,11.762414306640625,8.14905071258545,4.617000102996826,0.5989500284194946
1750560858857019000,11.772018798828125,8.644050598144531,4.617000102996826,0.6829500198364258
1750560858866623700,11.781623779296876,9.163949966430664,4.609950065612793,0.6060000061988831
1750560858876228600,11.791228515625,9.475050926208496,4.627050399780273,0.40005001425743103
1750560858885833500,11.80083349609375,9.327000617980957,4.588950157165527,0.2350500077009201
1750560858895438300,11.810438232421875,8.950950622558594,4.701000213623047,0.025050001218914986
1750560858905043200,11.820043212890624,8.67495059967041,4.72005033493042,-0.022050000727176666
1750560858914648000,11.82964794921875,8.434050559997559,4.725000381469727,0.0799500048160553
1750560858924252700,11.839252685546874,8.29995059967041,4.711050033569336,0.36900001764297485
1750560858933857800,11.84885791015625,8.320950508117676,4.669950008392334,0.5059500336647034
1750560858943462400,11.85846240234375,8.434050559997559,4.653000354766846,0.5580000281333923
1750560858953067300,11.8680673828125,8.653950691223145,4.62000036239624,0.5250000357627869
1750560858962672000,11.877672119140625,8.980050086975098,4.669950008392334,0.3859500288963318
1750560858972277000,11.887277099609374,9.17400074005127,4.675050258636475,0.2639999985694885
1750560858981881600,11.896881591796875,9.169050216674805,4.70805025100708,0.09405000507831573
1750560858991486500,11.906486572265624,8.944050788879395,4.7659502029418945,-0.0580500029027462
1750560859001091300,11.91609130859375,8.260950088500977,4.711050033569336,0.10395000129938126
1750560859010696200,11.9256962890625,7.833000183105469,4.713000297546387,0.30705001950263977
1750560859020301000,11.935301025390626,7.9360504150390625,4.716000080108643,0.3139500021934509
1750560859029906000,11.944906005859375,8.344950675964355,4.656000137329102,0.17295001447200775
1750560859039510800,11.9545107421875,8.740050315856934,4.669950008392334,0.09195000678300858
1750560859049115400,11.964115478515625,8.944050788879395,4.627050399780273,0.11505000293254852
1750560859058720300,11.97372021484375,8.97705078125,4.6870503425598145,0.15900000929832458
1750560859068325000,11.9833251953125,8.805000305175781,4.728000164031982,0.09600000083446503
1750560859077930000,11.992929931640624,8.556000709533691,4.692000389099121,0.05100000277161598
1750560859087534800,12.002534912109375,8.485950469970703,4.699050426483154,0.010050000622868538
1750560859097139700,12.0121396484375,8.36400032043457,4.657950401306152,0.21405000984668732
1750560859106744300,12.021744384765626,8.122050285339355,4.600950241088867,0.4549500346183777
1750560859116349200,12.03134912109375,8.28795051574707,4.651050090789795,0.42900002002716064
1750560859125954000,12.0409541015625,8.449950218200684,4.534049987792969,0.5539500117301941
1750560859135559000,12.050558837890625,8.764050483703613,4.597949981689453,0.5370000004768372
1750560859145163800,12.060163818359374,9.006000518798828,4.6369500160217285,0.453000009059906
1750560859154768600,12.0697685546875,8.87700080871582,4.584000110626221,0.41700002551078796
1750560859164373200,12.079373291015624,8.656050682067871,4.648950099945068,0.23295001685619354
1750560859173978400,12.088978271484375,8.36205005645752,4.711050033569336,0.09195000678300858
1750560859183583200,12.098583251953125,8.079000473022461,4.70805025100708,0.14205001294612885
1750560859193187800,12.108187744140626,8.034000396728516,4.672950267791748,0.34995001554489136
1750560859202792700,12.117792724609375,8.272950172424316,4.629000186920166,0.46695002913475037
1750560859212397600,12.1273974609375,8.6850004196167,4.63200044631958,0.5149500370025635
1750560859222002200,12.137002197265625,8.956050872802734,4.522050380706787,0.7429500222206116
1750560859231607000,12.14660693359375,9.211950302124023,4.579050064086914,0.6019500494003296
1750560859241212200,12.156212158203125,9.159000396728516,4.660950183868408,0.35295000672340393
1750560859250816800,12.165816650390624,8.956050872802734,4.70805025100708,0.07500000298023224
1750560859260421600,12.175421630859375,8.785950660705566,4.729950428009033,-0.08895000070333481
1750560859270026500,12.185026611328125,8.613000869750977,4.780050277709961,0.039000000804662704
1750560859279631000,12.194631103515626,8.508000373840332,4.819050312042236,0.1680000126361847
1750560859289236200,12.204236328125,8.41200065612793,4.8259501457214355,0.25394999980926514
1750560859298841000,12.213841064453124,8.142000198364258,4.833000183105469,0.24000000953674316
1750560859308446000,12.223446044921875,7.828050136566162,4.8259501457214355,0.46995002031326294
1750560859318050600,12.233050537109374,7.702950477600098,4.831050395965576,0.6400500535964966
1750560859327655400,12.242655517578125,7.9860005378723145,4.857000350952148,0.5659500360488892
1750560859337260300,12.25226025390625,8.551050186157227,4.857000350952148,0.30900001525878906
1750560859346865000,12.261864990234375,9.042000770568848,4.849950313568115,0.1969500035047531
1750560859356470000,12.271469970703125,9.217050552368164,4.773000240325928,0.2689500153064728
1750560859366075000,12.281074951171876,9.159000396728516,4.713000297546387,0.3859500288963318
1750560859375679500,12.290679443359375,8.860050201416016,4.6870503425598145,0.3739500045776367
1750560859385284400,12.300284423828124,8.431050300598145,4.681950092315674,0.5749500393867493
1750560859394889000,12.309888916015625,8.215950012207031,4.660950183868408,0.6880500316619873
1750560859404493800,12.319493896484374,8.236949920654297,4.735050201416016,0.5460000038146973
1750560859414099000,12.329098876953125,8.380949974060059,4.7470502853393555,0.34800001978874207
1750560859423703800,12.338703857421875,8.5489501953125,4.78695011138916,0.13005000352859497
1750560859433308400,12.348308349609376,8.776050567626953,4.749000072479248,0.08400000631809235
1750560859442913300,12.357913330078125,8.881050109863281,4.72005033493042,0.016950000077486038
1750560859452518000,12.367517822265626,8.857050895690918,4.6650004386901855,-0.019950000569224358
1750560859462122800,12.377122802734375,8.709000587463379,4.567049980163574,0.11295000463724136
1750560859471727600,12.3867275390625,8.605950355529785,4.567049980163574,0.31905001401901245
1750560859481332700,12.396332763671875,8.635050773620605,4.584000110626221,0.5059500336647034
1750560859490937300,12.405937255859374,8.725950241088867,4.644000053405762,0.37605002522468567
1750560859500542200,12.415542236328125,8.515049934387207,4.660950183868408,0.27105000615119934
1750560859510146800,12.425146728515625,8.35004997253418,4.657950401306152,0.40005001425743103
1750560859519751700,12.434751708984376,8.304000854492188,4.713000297546387,0.42195001244544983
1750560859529356500,12.4443564453125,8.506050109863281,4.728000164031982,0.30900001525878906
