,acc_x,acc_y,acc_z,gyr_x,gyr_y,gyr_z,sample,label
0,0.1287160068750381,-0.0598569996654987,0.0265740007162094,-0.3086875081062317,-0.1502874940633773,0.0094875004142522,0,0
1,0.2590030133724212,-0.0660860016942024,0.115505002439022,-0.3221625089645386,-0.1735250055789947,0.007012499962002,0,0
2,0.3125649988651275,-0.0456020012497901,0.0099090002477169,-0.3282124996185303,-0.1772374957799911,-0.0075624999590218,0,0
3,0.2052060067653656,-0.0040770000778138,-0.0533250011503696,-0.3319250047206878,-0.1467124968767166,-0.0320375002920627,0,0
4,0.0655919983983039,0.0922729969024658,0.0184899996966123,-0.3331624865531921,-0.1027124971151351,-0.0417999997735023,0,0
5,0.0144130000844597,0.1410969942808151,0.1757919937372207,-0.3172124922275543,-0.053762499243021,-0.0405624993145465,0,0
6,0.0758140012621879,0.2302449941635131,0.3227570056915283,-0.2719750106334686,0.002337499987334,-0.03575000166893,0,0
7,0.0424520000815391,0.2826890051364898,0.3604339957237243,-0.2158749997615814,0.0512874983251094,-0.0368499979376792,0,0
8,0.0172690004110336,0.3293589949607849,0.3821290135383606,-0.171875,0.0793375000357627,-0.0368499979376792,0,0
9,0.0505799986422061,0.2883189916610718,0.2099619954824447,-0.1449249982833862,0.0646250024437904,-0.0417999997735023,0,0
10,0.0838209986686706,0.3250429928302765,0.0393479987978935,-0.1511124968528747,0.0365750007331371,-0.0515624992549419,0,0
11,0.1056279987096786,0.3615790009498596,0.2434229999780655,-0.1743499934673309,0.0353375002741813,-0.063799999654293,0,0
12,0.0305250007659196,0.4358589947223663,0.94929701089859,-0.1645874977111816,0.0488125011324882,-0.0760374963283538,0,0
13,0.1907500028610229,0.3766149878501892,2.126836061477661,-0.0741124972701072,0.0671000033617019,-0.091849997639656,0,0
14,0.2593620121479034,0.3564330041408539,3.132878065109253,0.118937499821186,0.0646250024437904,-0.1333750039339065,0,0
15,0.0273630004376173,0.437716007232666,4.026691913604736,0.3913249969482422,0.0891000032424926,-0.1761374920606613,0,0
16,-0.3634450137615204,0.3191080093383789,5.117730140686035,0.7138999700546265,0.1183874979615211,-0.203087493777275,0,0
17,-0.9824519753456116,-0.0235799998044967,8.22581958770752,1.0742875337600708,0.0830499976873397,-0.198137491941452,0,0
18,-1.3454060554504397,-1.3769760131835938,12.709278106689451,1.5934875011444092,-0.0807124972343444,-0.1443749964237213,0,0
19,-0.9544680118560792,-2.5975849628448486,15.437661170959473,2.447499990463257,-0.4130499958992004,-0.1297999918460846,0,0
20,-1.2186479568481443,-3.169758081436157,16.71238136291504,3.5384249687194824,-0.6036249995231628,-0.091849997639656,0,0
21,-2.13698410987854,-4.133031845092773,16.23879051208496,4.800537586212158,-0.5229125022888184,-0.0576125010848045,0,0
22,-2.999336004257202,-5.088174819946289,11.361173629760742,6.033225059509277,-0.488812506198883,-0.0283249989151954,0,0
23,-3.1103880405426025,-5.264983177185059,5.435557842254639,6.867575168609619,-0.2199999988079071,0.0987249985337257,0,0
24,-1.7594490051269531,-4.504517078399658,1.10371196269989,7.180387496948242,0.1025749966502189,0.2513499855995178,0,0
25,-0.0261070001870393,-3.817660093307495,-1.865399956703186,7.000812530517578,0.2418625056743621,0.3686375021934509,0,0
26,1.897377014160156,-4.856993198394775,-2.7446489334106445,6.530425071716309,0.2431000024080276,0.3015374839305877,0,0
27,2.774338960647583,-4.964629173278809,-4.268902778625488,5.965987682342529,-0.1039500012993812,0.0009624999947845,0,0
28,1.98689603805542,-3.199587106704712,-7.5313591957092285,5.212212562561035,-0.5669124722480774,-0.2910875082015991,0,0
29,1.0004680156707764,-1.491655945777893,-9.875017166137695,4.212862491607666,-0.8772500157356262,-0.4046624898910522,0,0
30,0.2178779989480972,-0.7929750084877014,-9.593073844909668,3.1755623817443848,-0.9762499928474426,-0.3826625049114227,0,0
31,-0.1215339973568916,-0.7852650284767151,-8.494829177856445,2.28621244430542,-1.0495375394821167,-0.2739000022411346,0,0
32,0.1535499989986419,-0.999197006225586,-7.258392810821533,1.571487545967102,-1.053112506866455,-0.166374996304512,0,0
33,0.5863109827041626,-1.510550022125244,-6.070028781890869,1.040050029754639,-0.9542499780654908,-0.1200374960899353,0,0
34,0.9281280040740968,-1.9041199684143064,-4.925548076629639,0.6796625256538391,-0.7574874758720398,-0.134612500667572,0,0
35,1.0572439432144165,-2.2155239582061768,-3.7938449382781982,0.4743750095367431,-0.4483875036239624,-0.182325005531311,0,0
36,0.950232982635498,-2.4062321186065674,-2.920907020568848,0.3975124955177307,-0.1282874941825866,-0.2580874860286712,0,0
37,0.6277549862861633,-2.489051103591919,-2.433919906616211,0.3668499886989593,0.1416250020265579,-0.320374995470047,0,0
38,0.427291989326477,-2.5428450107574463,-2.0523080825805664,0.3240875005722046,0.3224374949932098,-0.3716624975204468,0,0
39,0.1913750022649765,-2.6173551082611084,-2.12675404548645,0.2190375030040741,0.3371500074863434,-0.4204750061035156,0,0
40,-0.082846000790596,-2.3429319858551025,-2.592242956161499,0.0296999998390674,0.2454375028610229,-0.4474250078201294,0,0
41,-0.1712609976530075,-2.0107600688934326,-3.045969009399414,-0.2194499969482422,0.1978625059127807,-0.4351874887943268,0,0
42,-0.2717469930648803,-1.6538230180740356,-3.534164905548096,-0.4907374978065491,0.2381500005722046,-0.3997125029563904,0,0
43,-0.3216510117053985,-1.460582971572876,-3.915765047073364,-0.7913125157356262,0.3334375023841858,-0.333712488412857,0,0
44,-0.3813250064849853,-1.3258830308914185,-3.905606031417847,-1.1467499732971191,0.4054875075817108,-0.256850004196167,0,0
45,-0.3216220140457153,-1.380748987197876,-4.164011955261231,-1.5878499746322632,0.3249124884605407,-0.1956624984741211,0,0
46,-0.243474006652832,-1.6107020378112793,-4.226283073425293,-2.103337526321411,0.1623875051736831,-0.1590874940156936,0,0
47,-0.0775820016860961,-1.838282942771912,-4.284453868865967,-2.603012561798096,0.0035749999806284,-0.1566125005483627,0,0
48,0.296653002500534,-1.8983739614486688,-4.968062877655029,-3.056349992752075,-0.084425002336502,-0.1859000027179718,0,0
49,0.6367390155792236,-2.0076260566711426,-5.855661869049072,-3.532787561416626,-0.0257124993950128,-0.2336124926805496,0,0
50,0.7726960182189941,-2.53931188583374,-5.759556770324707,-4.039750099182129,0.1636250019073486,-0.2971374988555908,0,0
51,0.5828239917755127,-3.574126005172729,-4.863540172576904,-4.562662601470947,0.2516250014305115,-0.3948999941349029,0,0
52,-0.8107709884643555,-4.244553089141846,-2.342452049255371,-5.05257511138916,0.2246749997138977,-0.3863750100135803,0,0
53,-1.4968470335006714,-4.136377811431885,0.6959279775619507,-5.333624839782715,0.0280499998480081,-0.2751374840736389,0,0
54,-1.922050952911377,-3.775909900665283,1.429075002670288,-5.375150203704834,-0.3042874932289123,-0.1786125004291534,0,0
55,-2.7587618827819824,-3.111557006835937,2.153630018234253,-5.349437236785889,-0.4558124840259552,0.0327249988913536,0,0
56,-2.384260892868042,-2.962476968765259,5.27735710144043,-5.210149765014648,-0.3971000015735626,0.3686375021934509,0,0
57,-1.1865960359573364,-3.3663558959960938,8.77344799041748,-4.721475124359131,-0.3115749955177307,0.5801125168800354,0,0
58,-0.1158000007271766,-3.870459079742432,10.571175575256348,-3.9237000942230233,-0.2615250051021576,0.6166874766349792,0,0
59,0.7311279773712158,-3.753139019012451,10.324417114257812,-2.9928250312805176,-0.2052875012159347,0.5263500213623047,0,0
60,1.101868987083435,-3.068934917449951,7.819562911987305,-2.1595749855041504,-0.0892374962568283,0.3588750064373016,0,0
61,0.7347930073738098,-2.485985040664673,5.072650909423828,-1.6208499670028689,0.1721500009298324,0.2074874937534332,0,0
62,0.2467170059680938,-1.7260489463806152,4.350348949432373,-1.3593250513076782,0.4482499957084656,0.1377750039100647,0,0
63,-0.0962679982185363,-1.5318679809570312,5.8145527839660645,-1.194462537765503,0.6682500243186951,0.1537249982357025,0,0
64,-0.2499189972877502,-2.083717107772827,7.849343776702881,-0.8999375104904175,0.7768750190734863,0.1512500047683715,0,0
65,-0.3785139918327331,-2.108419895172119,8.409751892089844,-0.4345000088214874,0.7550125122070312,0.1487749963998794,0,0
66,-0.2977080047130584,-1.8607189655303955,7.488653182983398,0.02364999987185,0.7000125050544739,0.1610125005245208,0,0
67,-0.1998549997806549,-1.7818830013275146,5.529612064361572,0.3132250010967254,0.5839625000953674,0.1597750037908554,0,0
68,-0.0789830014109611,-1.612679958343506,3.8276209831237793,0.3718000054359436,0.4141499996185303,0.1572999954223632,0,0
69,0.0914919972419738,-1.4770469665527344,2.734147071838379,0.2679874897003174,0.2088624984025955,0.1414874941110611,0,0
70,0.2068199962377548,-1.3740880489349363,2.169390916824341,0.1091749966144561,0.0218624994158744,0.1109625026583671,0,0
71,0.3076049983501434,-1.2267060279846191,2.0148580074310303,-0.006874999962747,-0.0892374962568283,0.0791999995708465,0,0
72,0.3487829864025116,-1.1550860404968262,1.8593560457229608,-0.0325874984264373,-0.127187505364418,0.048675000667572,0,0
73,0.2996180057525635,-1.030266046524048,1.6089340448379517,-0.009349999949336,-0.1014750003814697,0.0192499998956918,0,0
74,0.1363310068845749,-0.8275700211524963,1.5228079557418823,0.0199375003576278,-0.0672374963760376,0.0034374999813735,0,0
75,-0.0173959992825984,-0.7894889712333679,1.4674420356750488,0.0516999997198581,-0.0452375002205371,0.0107249999418854,0,0
76,-0.1621550023555755,-0.8048250079154968,1.7322039604187012,0.1006499975919723,-0.0184249989688396,0.0204875003546476,0,0
77,-0.2979960143566131,-0.927836000919342,2.1029820442199707,0.1775124967098236,-0.0354750007390975,0.0400125011801719,0,0
78,-0.3149679899215698,-1.0081679821014404,1.8390549421310425,0.2752749919891357,-0.0977625027298927,0.0534874983131885,0,0
79,-0.3208659887313843,-0.8855689764022827,0.8596469759941101,0.3302749991416931,-0.127187505364418,0.0632499977946281,0,0
80,-0.1461129933595657,-0.8268960118293762,-0.0307080000638961,0.3180375099182129,-0.079475000500679,0.073012501001358,0,0
81,0.0004320000007282,-0.7896289825439453,-0.5089200139045715,0.2520374953746795,0.0072874999605119,0.0705375000834465,0,0
82,0.0581119991838932,-0.7474669814109802,-0.4146899878978729,0.1641750037670135,0.1025749966502189,0.0620125010609626,0,0
83,0.0655660033226013,-0.8368620276451111,0.0268530007451772,0.0969374999403953,0.1465750038623809,0.0461999997496604,0,0
84,0.0443879999220371,-0.8818889856338501,0.4435609877109527,0.0712250024080276,0.1478125005960464,0.0217249989509582,0,0
85,0.0165710002183914,-0.8830549716949463,0.8351140022277832,0.0871749967336654,0.1123374998569488,-0.0075624999590218,0,0
86,0.0124979997053742,-0.8261650204658508,0.8192819952964783,0.1225124970078468,0.0438624992966651,-0.0320375002920627,0,0
87,-0.0601250007748603,-0.736847996711731,0.5109559893608093,0.1409374922513961,-0.017187500372529,-0.0540375001728534,0,0
88,-0.196259006857872,-0.5618150234222412,0.2990779876708984,0.1311749964952469,-0.0514249987900257,-0.063799999654293,0,0
89,-0.2967559993267059,-0.5243200063705444,0.1183129996061325,0.1067000031471252,-0.0917124971747398,-0.0576125010848045,0,0
90,-0.372078001499176,-0.5223180055618286,-0.1378760039806366,0.0627000033855438,-0.1307625025510788,-0.0430375002324581,0,0
91,-0.36285400390625,-0.4358299970626831,-0.2901270091533661,0.0151249999180436,-0.1357125043869018,-0.0235124994069337,0,0
92,-0.2414229959249496,-0.4166150093078613,-0.3128069937229156,-0.0215875003486871,-0.1014750003814697,-0.0002749999985098,0,0
93,-0.145682007074356,-0.4181489944458008,-0.1316010057926178,-0.0398750007152557,-0.0427624993026256,0.0144375003874301,0,0
94,-0.1457809954881668,-0.3587749898433685,0.3691740036010742,-0.0338249988853931,0.0120999999344348,0.0266750007867813,0,0
95,-0.1446850001811981,-0.3611330091953277,0.698777973651886,0.0052249999716877,0.024337500333786,0.0387750007212162,0,0
96,-0.1015919968485832,-0.3556500077247619,0.6899880170822144,0.0566499978303909,0.0048124999739229,0.0510125011205673,0,0
97,-0.0471710003912448,-0.4431149959564209,0.5219939947128296,0.0956999957561492,-0.0208999998867511,0.0620125010609626,0,0
98,0.0268639996647834,-0.4930669963359833,0.2603319883346557,0.1127500012516975,-0.0452375002205371,0.0669625028967857,0,0
99,0.108544997870922,-0.5257419943809509,-0.065480999648571,0.0994125008583068,-0.0697124972939491,0.0620125010609626,0,0
100,-0.0115379998460412,-0.0099160000681877,-0.0197620000690221,-0.0668250024318695,-0.0721874982118606,0.0254375003278255,1,0
101,0.0781219974160194,-0.011490000411868,0.0437199994921684,-0.0398750007152557,-0.029424998909235,0.0290124993771314,1,0
102,0.2017209976911544,-0.0282339993864297,0.0503150001168251,-0.0056374999694526,0.0120999999344348,0.0241999998688697,1,0
103,0.2215089946985244,-0.0354759991168975,-0.1122530028223991,0.0151249999180436,0.0340999998152256,0.0107249999418854,1,0
104,0.1365430057048797,-0.0259990002959966,-0.2454030066728592,0.0052249999716877,0.0438624992966651,0.0009624999947845,1,0
105,0.099552996456623,0.0024770000018179,-0.282719999551773,-0.026537500321865,0.0328624993562698,-0.0063249999657273,1,0
106,0.0845410004258155,-0.0044519999064505,-0.2884320020675659,-0.0643500015139579,0.0108624994754791,-0.010037500411272,1,0
107,0.1462800055742263,-0.0047980002127587,-0.3239589929580688,-0.0985874980688095,-0.0098999999463558,-0.0173249989748001,1,0
108,0.1490190029144287,0.0354779995977878,-0.3402380049228668,-0.1254000067710876,-0.017187500372529,-0.0332750007510185,1,0
109,0.2049960047006607,0.025722000747919,-0.3534139990806579,-0.1523499935865402,-0.0219999998807907,-0.0515624992549419,1,0
110,0.195701003074646,0.126471996307373,-0.3436779975891113,-0.1766874939203262,-0.0244750007987022,-0.0723249986767768,1,0
111,0.1581279933452606,0.1299459934234619,-0.2045370042324066,-0.1951124966144561,-0.0049499999731779,-0.0893749967217445,1,0
112,0.1182729974389076,0.0985369980335235,-0.0860999971628189,-0.1951124966144561,0.0207624994218349,-0.1077999994158744,1,0
113,0.0233280006796121,0.202452003955841,0.2715499997138977,-0.1853500008583068,0.0671000033617019,-0.1163249984383583,1,0
114,0.0455040000379085,0.2927300035953522,1.2734949588775637,-0.1328250020742416,0.1391499936580658,-0.1163249984383583,1,0
115,-0.1937250047922134,0.4033870100975036,3.418800115585327,0.0151249999180436,0.2296250015497207,-0.1077999994158744,1,0
116,-0.3412240147590637,0.3162539899349212,6.622978210449219,0.3583250045776367,0.2943874895572662,-0.0882750004529953,1,0
117,-0.5886179804801941,-0.1332679986953735,9.445388793945312,0.9435250163078308,0.27114999294281,-0.0662750005722045,1,0
118,-0.5453559756278992,-0.9813550114631652,11.554227828979492,1.75724995136261,0.3286249935626983,-0.0442750006914138,1,0
119,-0.2583679854869842,-2.040008068084717,11.806371688842772,2.7418875694274902,0.3957250118255615,-0.0808499976992607,1,0
120,-1.211230993270874,-2.060271978378296,10.515862464904783,3.6606624126434326,0.4984374940395355,-0.0980374962091445,1,0
121,-1.3239760398864746,-2.219338893890381,8.836076736450195,4.4009623527526855,0.5387250185012817,-0.0345125012099742,1,0
122,-1.929723024368286,-1.796960949897766,6.417342185974121,4.903112411499023,0.4079625010490417,0.0119624994695186,1,0
123,-2.4639060497283936,-2.087697982788086,5.294524192810059,5.169449806213379,0.3811500072479248,0.152487501502037,1,0
124,-1.5777889490127563,-2.9253969192504883,3.915555953979492,5.367312431335449,0.1941500008106231,0.2978250086307525,1,0
125,-0.446586012840271,-3.347177028656006,1.592494010925293,5.49326229095459,0.1025749966502189,0.322299987077713,1,0
126,0.093359000980854,-3.703383922576904,-0.2086520045995712,5.529837608337402,0.1648624986410141,0.2392500042915344,1,0
127,-0.1167770028114318,-3.173082113265991,-2.835961103439331,5.385737419128418,0.0585750006139278,0.1280124932527542,1,0
128,-0.2237669974565506,-1.8293739557266235,-6.335405826568604,4.936112403869629,-0.0941874980926513,0.1072499975562095,1,0
129,0.2680059969425201,-0.7605540156364441,-8.958471298217773,4.148099899291992,-0.2077624946832656,0.152487501502037,1,0
130,0.5526990294456482,-0.3657509982585907,-9.26050853729248,3.1438000202178955,-0.3360500037670135,0.1890625059604644,1,0
131,0.7505639791488647,-0.6465920209884644,-8.206903457641602,2.135925054550171,-0.5473874807357788,0.2147749960422516,1,0
132,0.9462990164756776,-1.057492971420288,-6.256255149841309,1.288100004196167,-0.7734375,0.2000624984502792,1,0
133,0.6690829992294312,-1.3098520040512085,-4.568210124969482,0.6943749785423279,-0.9200124740600586,0.1634874939918518,1,0
134,0.1752739995718002,-1.3462660312652588,-3.0783441066741943,0.3607999980449676,-0.9407749772071838,0.1512500047683715,1,0
135,-0.205264002084732,-1.4757859706878662,-2.1810901165008545,0.1959374994039535,-0.9102500081062316,0.1890625059604644,1,0
136,-0.1508059948682785,-1.7346030473709106,-1.5360130071640017,0.1274625062942505,-0.8430125117301941,0.2428250014781952,1,0
137,0.2804059982299804,-2.054555892944336,-1.5095670223236084,0.0919874981045723,-0.8332499861717224,0.2550624907016754,1,0
138,0.599045991897583,-2.157581090927124,-2.1611111164093018,0.0174624994397163,-0.8417750000953674,0.2147749960422516,1,0
139,0.7253810167312622,-1.886715054512024,-3.55181097984314,-0.1266375035047531,-0.7734375,0.152487501502037,1,0
140,0.6303669810295105,-1.3046159744262695,-5.225430965423584,-0.3574999868869781,-0.5706250071525574,0.1084875017404556,1,0
141,0.5254290103912354,-0.9252169728279114,-6.231410026550293,-0.6898375153541565,-0.2652375102043152,0.1121999993920326,1,0
142,0.5550029873847961,-1.1088019609451294,-6.32269811630249,-1.1529375314712524,0.015812499448657,0.1280124932527542,1,0
143,0.5543259978294373,-1.669985055923462,-5.572975158691406,-1.6867125034332275,0.1501500010490417,0.1377750039100647,1,0
144,0.7174180150032043,-2.2111830711364746,-4.653412818908691,-2.1913375854492188,0.1368124932050705,0.1243000030517578,1,0
145,0.8246189951896667,-2.4207239151000977,-4.194188117980957,-2.610437393188477,0.0635249987244606,0.0596750006079673,1,0
146,0.4872600138187408,-2.5318429470062256,-4.012452125549316,-2.987874984741211,0.0415249988436698,-0.0087999999523162,1,0
147,0.0618709996342659,-2.5638248920440674,-3.267329931259156,-3.3397374153137207,0.0560999996960163,-0.0552750006318092,1,0
148,-0.369931012392044,-2.4860689640045166,-2.997499942779541,-3.647599935531616,-0.0061874999664723,-0.0686125010251998,1,0
149,-0.7039859890937805,-2.399355888366699,-2.931318998336792,-3.940887451171875,-0.0672374963760376,-0.0527999997138977,1,0
150,-0.5803970098495483,-2.683866024017334,-2.9382259845733643,-4.235274791717529,-0.0439999997615814,0.0009624999947845,1,0
151,-0.6609179973602295,-3.107530117034912,-1.502506971359253,-4.496662616729736,0.1183874979615211,0.0705375000834465,1,0
152,-0.534093976020813,-4.05380916595459,1.232306957244873,-4.606662273406982,0.2161500006914138,0.1121999993920326,1,0
153,-0.9612749814987184,-4.159234046936035,4.782077789306641,-4.4868998527526855,0.17586250603199,0.1427250057458877,1,0
154,-1.0817389488220217,-3.9640800952911377,7.962975025177002,-4.087462425231934,-0.0024749999865889,0.1683000028133392,1,0
155,-1.3517049551010132,-3.258685111999512,9.706306457519531,-3.4595000743865967,-0.2138125002384185,0.1964875012636184,1,0
156,-1.1645859479904177,-2.5967230796813965,10.093147277832031,-2.7240123748779297,-0.3201000094413757,0.2648249864578247,1,0
157,-0.585669994354248,-2.2858479022979736,9.746246337890623,-1.9934749603271484,-0.3067624866962433,0.3161124885082245,1,0
158,-0.0872669965028762,-2.4060370922088623,9.403070449829102,-1.3105125427246094,-0.1137124970555305,0.3088249862194061,1,0
159,0.2411870062351226,-2.6165480613708496,8.399003982543945,-0.6373124718666077,0.1343374997377395,0.2330625057220459,1,0
160,0.4218690097332001,-2.387712955474853,6.310956001281738,-0.0692999958992004,0.4544374942779541,0.1390125006437301,1,0
161,0.3812699913978576,-2.002765893936157,4.68084192276001,0.2899875044822693,0.8600624799728394,0.0534874983131885,1,0
162,0.1730449944734573,-1.620439052581787,3.8794240951538086,0.4292750060558319,1.115399956703186,-0.0125124994665384,1,0
163,-0.080095000565052,-1.3026880025863647,3.39192008972168,0.3803249895572662,1.089687466621399,-0.0442750006914138,1,0
164,-0.1271450072526931,-1.2750060558319092,3.347798109054565,0.2019875049591064,0.8331124782562256,-0.0490874983370304,1,0
165,-0.1296200007200241,-1.3114739656448364,3.645351886749268,-0.0056374999694526,0.4141499996185303,-0.0600874982774257,1,0
166,-0.252824991941452,-1.1963579654693604,3.746005058288574,-0.160874992609024,-0.0501874983310699,-0.0662750005722045,1,0
167,-0.3852100074291229,-1.0419830083847046,3.575872898101806,-0.2341624945402145,-0.3898124992847442,-0.0478499978780746,1,0
168,-0.3566339910030365,-1.006018042564392,3.101538896560669,-0.2366375029087066,-0.5743374824523926,-0.0087999999523162,1,0
169,-0.168845996260643,-1.005396008491516,2.462512969970703,-0.1938749998807907,-0.5876749753952026,0.0254375003278255,1,0
170,0.075032003223896,-1.0264639854431152,1.6417289972305298,-0.1413500010967254,-0.4728625118732452,0.0314874984323978,1,0
171,0.3458409905433655,-1.056712985038757,1.167752027511597,-0.0961124971508979,-0.2578125,0.0094875004142522,1,0
172,0.350629985332489,-1.058948993682861,1.1600019931793213,-0.0472999997437,-0.0098999999463558,-0.0405624993145465,1,0
173,0.1080209985375404,-1.0839309692382812,1.525076985359192,0.0261249989271163,0.202674999833107,-0.0906125009059906,1,0
174,-0.2489649951457977,-0.9500880241394044,1.820996046066284,0.113987497985363,0.3089624941349029,-0.1211374998092651,1,0
175,-0.4822100102901459,-0.858260989189148,1.6975510120391846,0.1824624985456466,0.2919124960899353,-0.1273249983787536,1,0
176,-0.5187349915504456,-0.7727320194244385,1.407433032989502,0.2007499933242797,0.210099995136261,-0.1150875017046928,1,0
177,-0.5144929885864258,-0.7461400032043457,1.094323992729187,0.1714625060558319,0.0805749967694282,-0.0992750003933906,1,0
178,-0.4253210127353668,-0.8063660264015198,0.9007869958877563,0.1127500012516975,-0.0514249987900257,-0.0857999995350837,1,0
179,-0.3632790148258209,-0.8117079734802246,0.6752910017967224,0.0639375001192092,-0.1502874940633773,-0.0857999995350837,1,0
180,-0.3539310097694397,-0.7846390008926392,0.3987669944763183,0.0419375002384185,-0.1552374958992004,-0.0870374962687492,1,0
181,-0.3439129889011383,-0.7441700100898743,0.3890919983386993,0.0529375001788139,-0.0709500014781951,-0.0845625028014183,1,0
182,-0.3620330095291137,-0.6969370245933533,0.4179869890213012,0.089649997651577,0.0378125011920928,-0.0760374963283538,1,0
183,-0.2673830091953277,-0.7114670276641846,0.573527991771698,0.1372250020503997,0.1380500048398971,-0.063799999654293,1,0
184,-0.2631120085716247,-0.7287600040435791,0.7369639873504639,0.1922249943017959,0.20762500166893,-0.0576125010848045,1,0
185,-0.2876209914684295,-0.717278003692627,0.7113999724388123,0.2325125038623809,0.2051499933004379,-0.0540375001728534,1,0
186,-0.3671889901161194,-0.6862000226974487,0.4650619924068451,0.2325125038623809,0.1403875052928924,-0.0430375002324581,1,0
187,-0.3440130054950714,-0.6285709738731384,0.1945630013942718,0.1909874975681305,0.0426249988377094,-0.0185624994337558,1,0
188,-0.2509999871253967,-0.6348339915275574,-0.1028439998626709,0.118937499821186,-0.0636624991893768,0.007012499962002,1,0
189,-0.1215460002422332,-0.6582840085029602,-0.1886100023984909,0.0406999997794628,-0.1332374960184097,0.0217249989509582,1,0
190,-0.0096810003742575,-0.6544489860534668,-0.2556169927120209,-0.0081124994903802,-0.1564749926328659,0.022962499409914,1,0
191,0.0465039983391761,-0.564795970916748,-0.3175320029258728,-0.0301124993711709,-0.1172875016927719,0.0204875003546476,1,0
192,0.1489930003881454,-0.5510069727897644,-0.2124910056591034,-0.0325874984264373,-0.0232375003397464,0.0169124994426965,1,0
193,0.1375070065259933,-0.6086440086364746,-0.0883309990167617,-0.017875000834465,0.0635249987244606,0.004674999974668,1,0
194,0.0412119999527931,-0.6150779724121094,0.1453720033168792,-0.0056374999694526,0.128150001168251,-0.0063249999657273,1,0
195,-0.1088960021734237,-0.5836120247840881,0.4686459898948669,0.0126499999314546,0.1478125005960464,-0.0075624999590218,1,0
196,-0.1040389984846115,-0.6197999715805054,0.6136720180511475,0.039462499320507,0.1183874979615211,-0.0015124999918043,1,0
197,-0.0628739967942237,-0.6023269891738892,0.5641000270843506,0.0554125010967254,0.0622874982655048,-0.0050874999724328,1,0
198,-0.042272001504898,-0.4899910092353821,0.3496139943599701,0.0529375001788139,-0.0049499999731779,-0.0137499999254941,1,0
199,0.0016499999910593,-0.3708699941635132,0.0650380030274391,0.0272249989211559,-0.0562375001609325,-0.0112749999389052,1,0
200,0.0548119992017746,0.0286079999059438,0.0497570000588893,-0.0753500014543533,0.0268124993890523,-0.0002749999985098,2,0
201,0.0212430004030466,0.0048509999178349,0.3356510102748871,-0.0826374962925911,0.0072874999605119,-0.0063249999657273,2,0
202,-0.0117950001731514,-0.0144379995763301,0.4769519865512848,-0.0643500015139579,-0.0257124993950128,-0.0050874999724328,2,0
203,-0.0345019996166229,-0.0163519997149705,0.3946479856967926,-0.0423500016331672,-0.0636624991893768,-0.0063249999657273,2,0
204,-0.0510869994759559,-0.0115170003846287,0.2660470008850097,-0.0301124993711709,-0.083187498152256,-0.0125124994665384,2,0
205,-0.0444529987871646,0.0406799986958503,0.1438429951667785,-0.0276375003159046,-0.0989999994635582,-0.0173249989748001,2,0
206,-0.0409389995038509,0.1564030051231384,0.0859209969639778,-0.0288750007748603,-0.0965249985456466,-0.0185624994337558,2,0
207,-0.0219030007719993,0.1829179972410202,0.0493520013988018,-0.0203499998897314,-0.0684750005602836,-0.0210375003516674,2,0
208,0.0059440000914037,0.2138269990682602,0.0195899996906518,-0.006874999962747,-0.0257124993950128,-0.0210375003516674,2,0
209,0.0681240037083625,0.2093829959630966,0.152197003364563,0.0064624999649822,0.0230999998748302,-0.0185624994337558,2,0
210,0.0896459966897964,0.1414290070533752,0.1816119998693466,0.0211750008165836,0.0378125011920928,-0.0270875003188848,2,0
211,0.1185209974646568,0.1491139978170395,0.0101100001484155,0.0248875003308057,0.024337500333786,-0.0393249988555908,2,0
212,0.1521279960870742,0.1811890006065368,-0.2041369974613189,-0.0020624999888241,0.0010999999940395,-0.0527999997138977,2,0
213,0.2671979963779449,0.2379100024700164,-0.2707569897174835,-0.0496375001966953,-0.0208999998867511,-0.0650374963879585,2,0
214,0.3764339983463287,0.2600579857826233,-0.3045729994773865,-0.0826374962925911,-0.0219999998807907,-0.091849997639656,2,0
215,0.4561370015144348,0.2892970144748688,-0.1867939978837967,-0.0961124971508979,0.0292875003069639,-0.1175625026226043,2,0
216,0.5055009722709656,0.245629996061325,0.291155993938446,-0.0728750005364418,0.1513874977827072,-0.1468500047922134,2,0
217,0.134112000465393,0.2713190019130707,1.427459955215454,0.0114124994724988,0.3176249861717224,-0.1748999953269958,2,0
218,-0.4357619881629944,0.3525919914245605,4.073268890380859,0.2202749997377395,0.5484874844551086,-0.139562502503395,2,0
219,-0.5644840002059937,-0.0909459963440895,6.3893232345581055,0.6759499907493591,0.7023500204086304,-0.0783749967813491,2,0
220,-0.8245220184326172,-0.4934250116348266,8.957027435302734,1.2893375158309937,0.896637499332428,0.007012499962002,2,0
221,-0.7221119999885559,-1.767871975898743,12.526544570922852,2.126162528991699,1.1349250078201294,0.0754875019192695,2,0
222,-0.8365600109100342,-2.8143179416656494,13.563493728637695,3.2355124950408936,1.181262493133545,0.0437249988317489,2,0
223,-1.9306269884109497,-2.702014923095703,13.241570472717283,4.325200080871582,1.2314499616622925,0.076724998652935,2,0
224,-1.9508570432662964,-3.480705976486206,11.570636749267578,5.220737457275391,0.989449977874756,0.1670625060796737,2,0
225,-1.8553400039672847,-4.218286991119385,7.67628002166748,5.759600162506104,0.4361499845981598,0.1977249979972839,2,0
226,-1.2925360202789309,-4.793125152587891,4.295390129089356,5.9257001876831055,-0.1149500012397766,0.176825001835823,2,0
227,-1.095636010169983,-4.397961139678955,0.5242390036582947,5.8133625984191895,-0.7526749968528748,0.0705375000834465,2,0
228,-1.4407559633255005,-3.0467779636383057,-2.974205017089844,5.466312408447266,-1.181399941444397,-0.0125124994665384,2,0
229,-1.4384959936141968,-2.1509621143341064,-5.546664237976074,4.9739251136779785,-1.3696374893188477,0.0107249999418854,2,0
230,-1.2426509857177734,-1.2091259956359863,-8.106225967407227,4.338675022125244,-1.4001624584197998,0.0717749968171119,2,0
231,-0.6243939995765686,-0.2664589881896972,-8.618429183959961,3.56784987449646,-1.2253999710083008,0.2012999951839447,2,0
232,0.2286799997091293,-0.3633680045604706,-7.548542022705078,2.793174982070923,-1.1093499660491943,0.2820124924182892,2,0
233,0.5822659730911255,-0.6799269914627075,-6.796433925628662,2.0613999366760254,-1.168062448501587,0.2868250012397766,2,0
234,0.7049580216407776,-0.8450009822845459,-5.359311103820801,1.4212000370025637,-1.185112476348877,0.2710124850273132,2,0
235,0.7437800168991089,-1.0645300149917605,-4.024686813354492,0.9630500078201294,-1.1631125211715698,0.2305874973535537,2,0
236,0.6521599888801575,-1.2670049667358398,-3.1555769443511963,0.6931374669075012,-1.0458250045776367,0.2037750035524368,2,0
237,0.8543630242347717,-1.5216779708862305,-2.5606610774993896,0.5598999857902527,-0.8381999731063843,0.1670625060796737,2,0
238,1.012570023536682,-1.7510639429092407,-2.271449089050293,0.4817999899387359,-0.6329125165939331,0.1060125008225441,2,0
239,1.1734479665756226,-1.9555699825286863,-2.093018054962158,0.4023250043392181,-0.4728625118732452,0.0254375003278255,2,0
240,1.3786020278930664,-2.010629892349243,-2.0414040088653564,0.2997500002384186,-0.3788124918937683,-0.0783749967813491,2,0
241,1.2580569982528689,-1.987874984741211,-2.116715908050537,0.1677500009536743,-0.3287625014781952,-0.1993750035762787,2,0
242,0.8321430087089539,-1.6092790365219116,-2.52908992767334,0.0174624994397163,-0.2602874934673309,-0.2958999872207641,2,0
243,0.4301199913024902,-0.9356259703636168,-3.4084889888763428,-0.171875,-0.1417624950408935,-0.3251875042915344,2,0
244,0.0901309996843338,-0.5891320109367371,-3.946074962615967,-0.4504500031471252,0.0450999997556209,-0.2898499965667724,2,0
245,-0.248442992568016,-0.4183259904384613,-3.8923730850219727,-0.7948874831199646,0.2125750035047531,-0.2238499969244003,2,0
246,-0.4737330079078674,-0.4230549931526184,-3.618622064590454,-1.1834625005722046,0.2956250011920929,-0.1297999918460846,2,0
247,-0.5158439874649048,-0.605588972568512,-3.075982093811035,-1.5903249979019165,0.3089624941349029,-0.0197999998927116,2,0
248,-0.2147780060768127,-0.9095810055732728,-2.81974196434021,-1.9837124347686768,0.2491499930620193,0.0681999996304512,2,0
249,0.0304080005735158,-1.3358010053634644,-2.7194530963897705,-2.3794374465942383,0.1611499935388565,0.0999625027179718,2,0
250,0.3346059918403625,-1.710415005683899,-2.8037800788879395,-2.793587446212769,0.0292875003069639,0.0742499977350235,2,0
251,0.4058980047702789,-1.9986770153045648,-3.0520830154418945,-3.2016875743865967,-0.0647625029087066,0.0424874983727932,2,0
252,0.3705390095710754,-2.2957780361175537,-2.9256649017333984,-3.5815999507904053,-0.0354750007390975,-0.0002749999985098,2,0
253,0.2464710026979446,-2.642256021499634,-2.7185800075531006,-3.9078874588012695,0.0585750006139278,-0.0295624993741512,2,0
254,0.1216330006718635,-3.035504102706909,-2.7570340633392334,-4.212037563323975,0.1795749962329864,-0.0393249988555908,2,0
255,0.403560996055603,-3.82406497001648,-2.499152898788452,-4.5236124992370605,0.3871999979019165,-0.025849999859929,2,0
256,-0.0182969998568296,-4.288681983947754,-1.7060619592666626,-4.83023738861084,0.5240125060081482,-0.0466125011444091,2,0
257,-0.4556570053100586,-5.127319812774658,0.7149670124053955,-5.045287609100342,0.6413000226020813,-0.03575000166893,2,0
258,-0.8538640141487122,-5.340700149536133,4.524648189544678,-5.039100170135498,0.620537519454956,-0.0015124999918043,2,0
259,-1.420590043067932,-4.809321880340576,8.994352340698242,-4.692187309265137,0.5081999897956848,0.0669625028967857,2,0
260,-1.7079659700393677,-3.9730520248413086,12.592252731323242,-3.950649976730346,0.417724996805191,0.1670625060796737,2,0
261,-1.297299027442932,-3.641364097595215,14.278465270996094,-2.90482497215271,0.393387496471405,0.258774995803833,2,0
262,-0.4304440021514892,-3.767190933227539,13.33191967010498,-1.7747124433517456,0.4164874851703644,0.2685374915599823,2,0
263,0.2388470023870468,-3.543302059173584,10.502099990844728,-0.8156499862670898,0.5277249813079834,0.1780624985694885,2,0
264,0.5811349749565125,-3.2645208835601807,7.257999897003174,-0.1901624947786331,0.6890124678611755,0.0522499978542327,2,0
265,0.4548909962177276,-2.837937116622925,4.537162780761719,0.0809874981641769,0.8588249683380127,-0.0882750004529953,2,0
266,-0.0539860017597675,-2.0946359634399414,2.8370819091796875,0.0578874982893466,0.9773499965667723,-0.1968999952077865,2,0
267,-0.4528349936008453,-1.5349769592285156,2.2629430294036865,-0.1438249945640564,0.9455875158309937,-0.2213750034570694,2,0
268,-0.6956660151481628,-1.239954948425293,2.579741954803467,-0.4014999866485595,0.7512999773025513,-0.1920875012874603,2,0
269,-1.1724209785461426,-1.0794240236282349,3.6321749687194815,-0.622737467288971,0.4239124953746795,-0.1211374998092651,2,0
270,-1.2119150161743164,-1.0332679748535156,4.8161821365356445,-0.7155500054359436,0.0292875003069639,-0.0148499999195337,2,0
271,-0.9639710187911988,-1.2173449993133545,5.009393215179443,-0.6763625144958496,-0.3531000018119812,0.0864875018596649,2,0
272,-0.4842570126056671,-1.383152961730957,4.730995178222656,-0.5603125095367432,-0.5706250071525574,0.1622499972581863,2,0
273,0.0843309983611106,-1.5944620370864868,4.163144111633301,-0.381974995136261,-0.5938624739646912,0.1817750036716461,2,0
274,0.4257330000400543,-1.7739989757537842,3.398737907409668,-0.1926375031471252,-0.4630999863147735,0.1439625024795532,2,0
275,0.5693309903144836,-1.785580039024353,2.6643669605255127,-0.0313500016927719,-0.2432374954223632,0.0754875019192695,2,0
276,0.496053010225296,-1.5781160593032837,2.1549150943756104,0.0919874981045723,-0.0012374999932944,-0.0002749999985098,2,0
277,0.2338459938764572,-1.3649100065231323,2.032345056533813,0.1799875050783157,0.2003374993801117,-0.0613249987363815,2,0
278,0.0247990004718303,-1.203425049781799,1.9596199989318848,0.2545124888420105,0.3176249861717224,-0.0930875018239021,2,0
279,-0.1212050020694732,-1.028149962425232,1.9112939834594729,0.3095124959945678,0.3651999831199646,-0.1077999994158744,2,0
280,-0.1888069957494735,-0.9613540172576904,1.829417943954468,0.3302749991416931,0.3102000057697296,-0.1090374961495399,2,0
281,-0.1250510066747665,-0.8625239729881287,1.472659945487976,0.3155624866485595,0.1856250017881393,-0.1090374961495399,2,0
282,-0.2340800017118454,-0.7339630126953125,1.1589030027389526,0.2667500078678131,0.0536249987781047,-0.1138499975204467,2,0
283,-0.305631011724472,-0.688368022441864,0.9382010102272034,0.2007499933242797,-0.0684750005602836,-0.110275000333786,2,0
284,-0.3546929955482483,-0.7178980112075806,0.6636710166931152,0.1396999955177307,-0.1552374958992004,-0.1028499975800514,2,0
285,-0.4247390031814575,-0.5857120156288147,0.3498550057411194,0.0871749967336654,-0.1857624948024749,-0.0930875018239021,2,0
286,-0.4091359972953796,-0.604449987411499,0.2207150012254715,0.0504624992609024,-0.1467124968767166,-0.0747999995946884,2,0
287,-0.3753460049629211,-0.6480690240859985,0.2795639932155609,0.0456499978899955,-0.0659999996423721,-0.0552750006318092,2,0
288,-0.3440560102462768,-0.634958028793335,0.2747969925403595,0.0529375001788139,0.0170499999076128,-0.03575000166893,2,0
289,-0.2891669869422912,-0.6235299706459045,0.4612019956111908,0.0541750006377697,0.0708125010132789,-0.0148499999195337,2,0
290,-0.2235420048236847,-0.6652050018310547,0.672419011592865,0.0578874982893466,0.0671000033617019,-0.0015124999918043,2,0
291,-0.1629379987716674,-0.7435370087623596,0.801023006439209,0.0589874982833862,0.015812499448657,0.0082499999552965,2,0
292,-0.0651800036430358,-0.8197919726371765,0.7338269948959351,0.0687500014901161,-0.0439999997615814,0.0059124999679625,2,0
293,-0.0884210020303726,-0.784184992313385,0.5140200257301331,0.0786499977111816,-0.0917124971747398,-0.0027499999850988,2,0
294,-0.1149040013551712,-0.7119330167770386,0.1732749938964843,0.0797500014305114,-0.1172875016927719,0.002199999988079,2,0
295,0.0197800006717443,-0.655019998550415,-0.1435009986162185,0.0676499977707862,-0.1062875017523765,0.0131999999284744,2,0
296,0.0621879994869232,-0.6157169938087463,-0.282719999551773,0.0382249988615512,-0.0562375001609325,0.0107249999418854,2,0
297,0.0917769968509674,-0.6027950048446655,-0.2108960002660751,0.0076999999582767,-0.0098999999463558,0.0059124999679625,2,0
298,0.060003999620676,-0.5776519775390625,-0.1051739975810051,-0.0215875003486871,0.0170499999076128,-0.0015124999918043,2,0
299,-0.0501589998602867,-0.5942649841308594,0.1991239935159683,-0.0362999998033046,0.0378125011920928,-0.0027499999850988,2,0
300,0.1074019968509674,-0.0237540006637573,-0.1220149993896484,-0.0020624999888241,0.0940499976277351,-0.0466125011444091,3,0
301,0.0283100008964538,0.0006740000098943,-0.2431560009717941,0.0016499999910593,0.1160499975085258,-0.0613249987363815,3,0
302,-0.0585989989340305,0.127139002084732,-0.2880400121212005,-0.017875000834465,0.1258125007152557,-0.0650374963879585,3,0
303,-0.1294189989566803,0.1568879932165146,-0.2189749926328659,-0.0496375001966953,0.1098624989390373,-0.0600874982774257,3,0
304,-0.1265089958906173,0.1149810031056404,-0.0692970007658004,-0.0826374962925911,0.0708125010132789,-0.0503249987959861,3,0
305,-0.0252090003341436,0.13646200299263,-0.1116079986095428,-0.1120624989271164,0.015812499448657,-0.0527999997138977,3,0
306,0.0624720007181167,0.236284002661705,-0.1086229979991912,-0.1328250020742416,0.002337499987334,-0.0503249987959861,3,0
307,0.0784920006990432,0.3015719950199127,0.0369260013103485,-0.1376374959945678,0.0268124993890523,-0.0600874982774257,3,0
308,-0.089037999510765,0.474151998758316,0.6445310115814209,-0.1095874980092048,0.0976250022649765,-0.0600874982774257,3,0
309,-0.0533760003745555,0.4828430116176605,1.9851540327072144,-0.004537499975413,0.2161500006914138,-0.0405624993145465,3,0
310,0.0368579998612403,0.233815997838974,3.369227886199951,0.2362249940633773,0.345674991607666,-0.03575000166893,3,0
311,0.2456369996070861,0.040692999958992,4.143551826477051,0.5978500247001648,0.5007749795913696,-0.0368499979376792,3,0
312,0.4965629875659942,-0.2160910069942474,4.57846212387085,1.018049955368042,0.7060624957084656,-0.0723249986767768,3,0
313,0.5626739859580994,-0.2140620052814483,5.045071125030518,1.4469125270843506,0.9296374917030334,-0.1273249983787536,3,0
314,-0.0397749990224838,-0.1994789987802505,6.719038009643555,1.89653754234314,1.211925029754639,-0.1553750038146972,3,0
315,-0.8224850296974182,-0.5524960160255432,9.21918487548828,2.491499900817871,1.4365999698638916,-0.1248499974608421,3,0
316,-2.039958953857422,-1.0691440105438232,11.191088676452637,3.2892749309539795,1.5795999765396118,-0.0235124994069337,3,0
317,-2.6644179821014404,-2.187436103820801,12.230612754821776,4.227574825286865,1.5637874603271484,0.147537499666214,3,0
318,-2.2205629348754883,-3.2408111095428467,9.905384063720703,5.079112529754639,1.1911624670028689,0.3198249936103821,3,0
319,-0.9692310094833374,-4.084714889526367,5.76634693145752,5.51636266708374,0.6804875135421753,0.4273499846458435,3,0
320,0.3017910122871399,-4.522113800048828,2.460943937301636,5.526262283325195,0.1440999954938888,0.3588750064373016,3,0
321,0.4605929851531982,-4.532015800476074,0.2454899996519088,5.275737285614014,-0.4778124988079071,0.1463000029325485,3,0
322,-0.3213289976119995,-3.582498073577881,-2.6623458862304688,4.82735013961792,-1.1606374979019165,-0.03575000166893,3,0
323,-1.0368449687957764,-2.0097219944000244,-5.25756311416626,4.200624942779541,-1.6017374992370603,-0.0808499976992607,3,0
324,-1.1975059509277344,-0.4677920043468475,-7.141569137573242,3.5226125717163086,-1.7580749988555908,0.0009624999947845,3,0
325,-0.7066860198974609,0.110625997185707,-8.054015159606934,2.8666000366210938,-1.5992624759674072,0.1267749965190887,3,0
326,-0.0275279991328716,0.0467449985444545,-7.669287204742432,2.256925106048584,-1.2438249588012695,0.2477750033140182,3,0
327,0.4415990114212036,-0.4821439981460571,-6.020674228668213,1.7132500410079956,-0.9237250089645386,0.3185875117778778,3,0
328,0.5726789832115173,-1.123993992805481,-3.849507093429565,1.3088624477386477,-0.7697250247001648,0.3345375061035156,3,0
329,0.7125099897384644,-1.415539026260376,-2.835300922393799,1.043762445449829,-0.8014875054359436,0.2917749881744385,3,0
330,0.523921012878418,-1.4876430034637451,-2.295281887054444,0.8397125005722046,-0.8417750000953674,0.2380124926567077,3,0
331,0.4759239852428436,-1.4955110549926758,-1.821614027023316,0.7041375041007996,-0.856487512588501,0.1988250017166137,3,0
332,0.3571709990501404,-1.5148320198059082,-1.960433006286621,0.6051374673843384,-0.8662499785423279,0.1610125005245208,3,0
333,0.3613919913768768,-1.380763053894043,-1.9640820026397705,0.5086125135421753,-0.8014875054359436,0.1487749963998794,3,0
334,0.5324689745903015,-1.4193300008773804,-1.8075239658355715,0.4255625009536743,-0.7013875246047974,0.1219625025987625,3,0
335,0.4105080068111419,-1.2045550346374512,-2.019382953643799,0.3460874855518341,-0.6036249995231628,0.0791999995708465,3,0
336,0.3437240123748779,-0.8822540044784546,-2.5917649269104004,0.2398000061511993,-0.4740999937057495,0.0620125010609626,3,0
337,0.3500680029392242,-0.6823300123214722,-3.2515571117401123,0.0736999958753585,-0.3238124847412109,0.0571999996900558,3,0
338,0.3503290116786957,-0.5046539902687073,-3.794724941253662,-0.1571625024080276,-0.1490499973297119,0.0596750006079673,3,0
339,0.3079659938812256,-0.5569720268249512,-3.883169889450073,-0.4614500105381012,-0.0098999999463558,0.0657249987125396,3,0
340,0.2872729897499084,-0.7051460146903992,-3.698829889297485,-0.8205999732017517,0.0402874983847141,0.0705375000834465,3,0
341,0.1750580072402954,-0.8375319838523865,-3.0276520252227783,-1.1969374418258667,0.0340999998152256,0.0742499977350235,3,0
342,-0.0208180006593465,-0.8890209794044495,-2.2648301124572754,-1.5340875387191772,-0.0184249989688396,0.077962502837181,3,0
343,-0.3963069915771484,-0.7074790000915527,-1.930569052696228,-1.825999975204468,-0.0782374963164329,0.0987249985337257,3,0
344,-0.7449970245361328,-0.5417289733886719,-1.872275948524475,-2.1070499420166016,-0.1185249984264373,0.1732500046491623,3,0
345,-0.6951389908790588,-0.4748019874095917,-2.0409579277038574,-2.39662504196167,-0.1467124968767166,0.2612499892711639,3,0
346,-0.3828020095825195,-0.6106150150299072,-2.660862922668457,-2.7289624214172363,-0.1710499972105026,0.3271124958992004,3,0
347,0.0699860006570816,-0.8958320021629333,-3.452466011047364,-3.1406373977661133,-0.1808124929666519,0.3565374910831451,3,0
348,0.0303739998489618,-1.3247150182724,-3.793428897857666,-3.635362386703491,-0.1172875016927719,0.3821125030517578,3,0
349,-0.4663900136947632,-1.7600940465927124,-2.377908945083618,-4.099699974060059,0.0695749968290329,0.457874983549118,3,0
350,-0.6007469892501831,-2.797175884246826,-0.0193060003221035,-4.383087635040283,0.1880999952554702,0.54339998960495,3,0
351,-1.8063640594482424,-2.820348024368286,2.0555529594421387,-4.449087619781494,0.20762500166893,0.6472125053405762,3,0
352,-2.027669906616211,-2.857028007507324,3.5564939975738525,-4.320799827575684,0.1856250017881393,0.8427374958992004,3,0
353,-1.3222789764404297,-3.1569480895996094,3.141179084777832,-4.122799873352051,0.0035749999806284,1.0040249824523926,3,0
354,-0.0685509964823722,-3.4304869174957275,2.2462549209594727,-4.031225204467773,-0.1710499972105026,1.0515999794006348,3,0
355,1.1128770112991333,-3.785742044448853,1.7227710485458374,-4.038512706756592,-0.3140499889850616,0.979550004005432,3,0
356,1.2448489665985107,-3.8778789043426514,1.869143009185791,-4.0569376945495605,-0.3005749881267547,0.8475499749183655,3,0
357,0.5332000255584717,-3.776034116744995,4.020435810089111,-3.94569993019104,0.0207624994218349,0.7767375111579895,3,0
358,0.0625889971852302,-3.7436490058898926,7.878071784973144,-3.521787405014038,0.4079625010490417,0.7522624731063843,3,0
359,-0.0303070005029439,-3.9308969974517822,11.184617042541504,-2.76182508468628,0.638824999332428,0.7279250025749207,3,0
360,0.637669026851654,-4.119442939758301,12.056812286376951,-1.8272374868392944,0.6462500095367432,0.6679750084877014,3,0
361,1.783532977104187,-3.945230007171631,10.734082221984863,-0.9464125037193298,0.564300000667572,0.5066875219345093,3,0
362,2.43364691734314,-3.677613019943237,8.320784568786621,-0.31597501039505,0.4959625005722046,0.2525874972343445,3,0
363,2.141324996948242,-3.399914026260376,6.355733871459961,0.0406999997794628,0.4482499957084656,-0.010037500411272,3,0
364,1.4155429601669312,-2.9569170475006104,5.030350208282471,0.2105125039815902,0.354200005531311,-0.203087493777275,3,0
365,0.6625850200653076,-2.4721250534057617,3.5009350776672363,0.2752749919891357,0.2466749995946884,-0.309374988079071,3,0
366,0.0603899993002414,-1.786600947380066,2.07358193397522,0.2484624981880188,0.2431000024080276,-0.320374995470047,3,0
367,-0.2109770029783249,-1.3214019536972046,1.4175560474395752,0.1689874976873397,0.3224374949932098,-0.2531374990940094,3,0
368,-0.1183549985289573,-1.062675952911377,1.3099069595336914,0.0724624991416931,0.3713875114917755,-0.1590874940156936,3,0
369,0.1393299996852874,-1.101027011871338,1.623613953590393,-0.017875000834465,0.3334375023841858,-0.0882750004529953,3,0
370,0.3697620034217834,-1.16845703125,1.890180945396424,-0.0765874981880188,0.2186249941587448,-0.0600874982774257,3,0
371,0.427172988653183,-1.1778550148010254,2.239804983139038,-0.0985874980688095,0.0671000033617019,-0.0576125010848045,3,0
372,0.4748159945011139,-1.3018829822540283,2.5987329483032227,-0.0618750005960464,-0.0574750006198883,-0.06751249730587,3,0
373,0.5249390006065369,-1.352924942970276,2.434307098388672,0.039462499320507,-0.1307625025510788,-0.0930875018239021,3,0
374,0.5457850098609924,-1.294929027557373,1.9241420030593872,0.1567499935626983,-0.1027124971151351,-0.1260875016450882,3,0
375,0.4798609912395477,-1.1847230195999146,1.2901970148086548,0.2532750070095062,-0.0049499999731779,-0.1615625023841858,3,0
376,0.4067089855670929,-1.0214999914169312,0.7547469735145569,0.3229874968528747,0.1380500048398971,-0.1883749961853027,3,0
377,0.2703259885311126,-0.8646339774131775,0.4798119962215423,0.3607999980449676,0.2858625054359436,-0.203087493777275,3,0
378,0.0885450020432472,-0.7258139848709106,0.4395590126514435,0.3718000054359436,0.3896749913692474,-0.2043250054121017,3,0
379,-0.0063749998807907,-0.6139050126075745,0.4761640131473541,0.3535124957561493,0.4031499922275543,-0.1859000027179718,3,0
380,-0.0333090014755725,-0.5783249735832214,0.5322290062904358,0.2997500002384186,0.3188624978065491,-0.166374996304512,3,0
381,-0.0588800013065338,-0.5352020263671875,0.5624949932098389,0.2300374954938888,0.1698125004768371,-0.1505624949932098,3,0
382,-0.1280860006809234,-0.5000399947166443,0.5942249894142151,0.157987505197525,0.0120999999344348,-0.134612500667572,3,0
383,-0.1983360052108764,-0.4942420125007629,0.4354529976844787,0.0969374999403953,-0.1405249983072281,-0.1163249984383583,3,0
384,-0.0793789997696876,-0.4968549907207489,0.2635760009288788,0.0554125010967254,-0.2138125002384185,-0.0943249985575676,3,0
385,0.0029100000392645,-0.5365210175514221,0.133542999625206,0.0492249988019466,-0.2040500044822693,-0.0845625028014183,3,0
386,0.0287319999188184,-0.5025089979171753,-0.121408000588417,0.0627000033855438,-0.1295250058174133,-0.0796125009655952,3,0
387,0.0279329996556043,-0.4345319867134094,-0.2607530057430267,0.0724624991416931,-0.0098999999463558,-0.0723249986767768,3,0
388,0.0194729994982481,-0.4083169996738434,-0.3397159874439239,0.0724624991416931,0.1013374999165535,-0.0662750005722045,3,0
389,-0.104324996471405,-0.376237004995346,-0.266413003206253,0.0456499978899955,0.1698125004768371,-0.0515624992549419,3,0
390,-0.124900996685028,-0.4061129987239837,0.0067369998432695,0.0028874999843537,0.1733874976634979,-0.0210375003516674,3,0
391,-0.0523039996623992,-0.5039629936218262,0.3574030101299286,-0.0338249988853931,0.1306249946355819,0.004674999974668,3,0
392,0.0219679996371269,-0.5699189901351929,0.628017008304596,-0.0496375001966953,0.0671000033617019,0.0192499998956918,3,0
393,0.0565209984779357,-0.6691160202026367,0.7251380085945129,-0.0533500015735626,-0.0098999999463558,0.022962499409914,3,0
394,0.0893390029668808,-0.6694089770317078,0.654541015625,-0.0460624992847442,-0.0769999995827674,0.0144375003874301,3,0
395,0.1450809985399246,-0.6405519843101501,0.4535019993782043,-0.0338249988853931,-0.1039500012993812,0.002199999988079,3,0
396,0.153220996260643,-0.569333016872406,0.2736139893531799,-0.017875000834465,-0.0782374963164329,-0.0125124994665384,3,0
397,0.179530993103981,-0.5090029835700989,0.1271180063486099,0.0004124999977648,-0.0219999998807907,-0.0235124994069337,3,0
398,0.0977789983153343,-0.4696879982948303,0.1086060032248497,0.0151249999180436,0.0536249987781047,-0.0307999998331069,3,0
399,0.0054080002009868,-0.4189749956130981,0.1767700016498565,0.0272249989211559,0.1062875017523765,-0.0332750007510185,3,0
400,-0.2553620040416717,0.183895006775856,-0.2213519960641861,-0.1913999915122985,-0.053762499243021,-0.0552750006318092,4,0
401,-0.3810569941997528,0.2828870117664337,-0.1901389956474304,-0.2501125037670135,-0.1149500012397766,-0.025849999859929,4,0
402,-0.3201670050621032,0.240007996559143,-0.1083569973707199,-0.291637510061264,-0.1637624949216842,0.0094875004142522,4,0
403,-0.1825249940156936,0.1899749934673309,-0.0513920001685619,-0.3136374950408935,-0.1894749999046325,0.0351999998092651,4,0
404,0.0548509992659091,0.0820960029959678,0.2220389991998672,-0.3001624941825866,-0.1674750000238418,0.0497750006616115,4,0
405,0.2096419930458068,-0.0704889968037605,0.4016480147838592,-0.2378749996423721,-0.1051874980330467,0.0387750007212162,4,0
406,0.3232110142707824,-0.1245300024747848,0.4104489982128143,-0.1438249945640564,-0.0012374999932944,0.0107249999418854,4,0
407,0.2983810007572174,-0.0372020006179809,0.3099530041217804,-0.050875000655651,0.1123374998569488,-0.025849999859929,4,0
408,0.262019008398056,0.0647839978337287,0.1876569986343383,0.0224124994128942,0.2136749923229217,-0.0552750006318092,4,0
409,0.2127670049667358,0.1131870001554489,0.0267789997160434,0.0699874982237815,0.2943874895572662,-0.0772750005125999,4,0
410,0.1959259957075119,0.1351799964904785,0.0750399976968765,0.0919874981045723,0.3627249896526336,-0.091849997639656,4,0
411,0.195591002702713,0.0242250002920627,0.4872620105743408,0.1104125007987022,0.4116750061511993,-0.106562502682209,4,0
412,-0.0074399998411536,0.0817160010337829,1.108044981956482,0.1641750037670135,0.4470124840736389,-0.1223749965429306,4,0
413,-0.2308399975299835,0.1368899941444397,2.490550994873047,0.2789874970912933,0.5215374827384949,-0.1053249984979629,4,0
414,-0.500777006149292,0.3471400141716003,5.27153205871582,0.5476624965667725,0.6755374670028687,-0.06751249730587,4,0
415,-0.92290997505188,0.0799370035529136,10.173933029174805,1.108525037765503,0.9613999724388124,0.0241999998688697,4,0
416,-0.9093629717826844,-1.7470970153808594,14.576435089111328,2.1176373958587646,1.1972124576568604,0.1219625025987625,4,0
417,0.136689007282257,-3.97790789604187,15.633026123046877,3.382087469100952,1.1922625303268433,0.1182499974966049,4,0
418,0.703220009803772,-4.713821887969971,13.992361068725586,4.559774875640869,0.9675874710083008,-0.0368499979376792,4,0
419,1.0027090311050415,-4.727330207824707,9.866426467895508,5.405262470245361,0.7207750082015991,-0.2604250013828277,4,0
420,0.5014910101890564,-4.310826778411865,6.762707233428955,5.908649921417236,0.6890124678611755,-0.4571875035762787,4,0
421,-0.4342490136623382,-4.868349075317383,4.839540958404541,6.250612258911133,0.7512999773025513,-0.5609999895095825,4,0
422,-1.205888032913208,-4.42283296585083,3.061113119125366,6.516950130462647,0.8001124858856201,-0.5304750204086304,4,0
423,-1.2787710428237915,-4.442996978759766,2.2337820529937744,6.713712692260742,0.9248250126838684,-0.3936625123023987,4,0
424,-1.5227559804916382,-4.6046671867370605,0.8887180089950562,6.793049812316895,0.757349967956543,-0.2690874934196472,4,0
425,-1.5552879571914673,-4.074237823486328,-1.642712950706482,6.551187515258789,0.2356749922037124,-0.1297999918460846,4,0
426,-1.3627170324325562,-3.149009943008423,-4.757386207580566,5.92817497253418,-0.5193374752998352,-0.0050874999724328,4,0
427,-0.7351329922676086,-1.6107549667358398,-8.089521408081055,5.021637439727783,-1.2755874395370483,0.1084875017404556,4,0
428,-0.0499569997191429,-0.2931849956512451,-11.097472190856934,3.962475061416626,-1.7495499849319458,0.219587504863739,4,0
429,0.7511360049247742,0.2988980114459991,-12.436847686767578,2.8799374103546143,-1.7972625494003296,0.2941125035285949,4,0
430,1.3648539781570437,0.3294669985771179,-11.931597709655762,1.9221124649047847,-1.6127375364303589,0.3113000094890594,4,0
431,1.2707849740982056,0.1098999977111816,-10.27115535736084,1.1805750131607056,-1.3403500318527222,0.2832500040531158,4,0
432,1.2641710042953491,-0.2263250052928924,-8.698724746704102,0.6516125202178955,-1.106874942779541,0.2697750031948089,4,0
433,1.210677981376648,-0.7238569855690002,-6.961276054382324,0.2679874897003174,-0.8894875049591064,0.2465374916791916,4,0
434,0.9465559720993042,-1.1405010223388672,-5.12100076675415,-0.0008249999955296,-0.6914874911308289,0.2123000025749206,4,0
435,0.7691280245780945,-1.4026689529418943,-4.028086185455322,-0.160874992609024,-0.5583875179290771,0.1805374920368194,4,0
436,0.6513950228691101,-1.4571529626846311,-3.756169080734253,-0.2708750069141388,-0.4606249928474426,0.1500124931335449,4,0
437,0.6096879839897156,-1.45216703414917,-3.920500040054321,-0.3917374908924103,-0.3616249859333038,0.1194875016808509,4,0
438,0.5551509857177734,-1.4083399772644043,-4.197879791259766,-0.5750250220298767,-0.2822875082492828,0.0914374962449073,4,0
439,0.6976249814033508,-1.3168909549713137,-4.622477054595947,-0.8450750112533569,-0.2908124923706054,0.0571999996900558,4,0
440,0.6060310006141663,-1.1335959434509275,-4.765155792236328,-1.2177000045776367,-0.3592875003814697,0.0082499999552965,4,0
441,0.4504689872264862,-0.8437319993972778,-4.71737003326416,-1.6440874338150024,-0.4448125064373016,-0.0307999998331069,4,0
442,0.2286269962787628,-0.5614219903945923,-5.175817966461182,-2.069237470626831,-0.4789125025272369,-0.0417999997735023,4,0
443,0.0024129999801516,-0.2845230102539062,-5.670172214508057,-2.4954874515533447,-0.3310999870300293,0.0169124994426965,4,0
444,0.0391729995608329,-0.6184049844741821,-5.658193111419678,-2.918299913406372,-0.0367125011980533,0.1194875016808509,4,0
445,-0.7540119886398315,-1.121356964111328,-4.799195766448975,-3.3397374153137207,0.3102000057697296,0.1915374994277954,4,0
446,-1.631680965423584,-1.6428200006484983,-2.63395094871521,-3.724600076675415,0.5302000045776367,0.330825001001358,4,0
447,-1.9215079545974727,-2.161492109298706,-0.8359709978103638,-4.012937545776367,0.3994374871253967,0.4823499917984009,4,0
448,-1.7704230546951294,-2.38810396194458,-0.4163990020751953,-4.254799842834473,0.0328624993562698,0.6008750200271606,4,0
449,-1.598482966423035,-2.613413095474243,-0.6823400259017944,-4.549187660217285,-0.3628624975681305,0.6899750232696533,4,0
450,-1.2426940202713013,-3.052733898162842,-0.3409869968891144,-4.885237693786621,-0.717199981212616,0.7609249949455261,4,0
451,-1.5500719547271729,-2.9101951122283936,-0.8528879880905151,-5.183337688446045,-1.114300012588501,0.8157874941825867,4,0
452,-1.6404110193252563,-3.04852294921875,-1.3836029767990112,-5.419149875640869,-1.227874994277954,0.9440749883651732,4,0
453,-1.5450750589370728,-3.506838083267212,-0.9552119970321656,-5.54743766784668,-1.0458250045776367,1.1261249780654907,4,0
454,-1.4754430055618286,-4.170741081237793,1.360658049583435,-5.504674911499023,-0.651199996471405,1.308174967765808,4,0
455,-0.9148849844932556,-4.945651054382324,5.276692867279053,-5.163812637329102,-0.2077624946832656,1.443750023841858,4,0
456,0.0301559995859861,-5.7219438552856445,9.069944381713867,-4.484562397003174,0.0340999998152256,1.4339874982833862,4,0
457,1.0725610256195068,-5.591955184936523,11.071556091308594,-3.587787389755249,0.1013374999165535,1.277649998664856,4,0
458,2.202164888381958,-4.923781871795654,11.208359718322754,-2.6507248878479004,0.1513874977827072,1.0210750102996826,4,0
459,2.6154239177703857,-4.553055763244629,10.337169647216797,-1.8149999380111688,0.2296250015497207,0.6899750232696533,4,0
460,2.244247913360596,-4.35179615020752,9.518651008605955,-1.0966999530792236,0.3676750063896179,0.3601124882698059,4,0
461,1.7699270248413086,-4.146949768066406,8.412797927856445,-0.4406875073909759,0.5447750091552734,0.0914374962449073,4,0
462,1.4180599451065063,-3.6960289478302,6.560060024261475,0.1067000031471252,0.7683500051498413,-0.1163249984383583,4,0
463,0.9370570182800292,-3.22351598739624,4.5343427658081055,0.4413749873638153,1.0176374912261963,-0.2580874860286712,4,0
464,0.2976700067520141,-2.638999938964844,3.4167699813842773,0.5391374826431274,1.1996874809265137,-0.317900002002716,4,0
465,-0.0139680001884698,-2.119673013687134,2.82237195968628,0.4633750021457672,1.1789250373840332,-0.3044250011444092,4,0
466,-0.1799309998750686,-1.817487955093384,2.606797933578491,0.2655124962329864,0.940637469291687,-0.2641375064849853,4,0
467,-0.1671320050954818,-1.728342056274414,2.852426052093506,0.0321750007569789,0.555774986743927,-0.214087501168251,4,0
468,0.0065529998391866,-1.6500070095062256,3.0287230014801025,-0.1498750001192093,0.1233374997973442,-0.1773750036954879,4,0
469,0.0988589972257614,-1.491634964942932,2.946355104446411,-0.2524499893188476,-0.2212374955415725,-0.1541374921798706,4,0
470,0.2496789991855621,-1.4602869749069214,2.82411789894104,-0.2609750032424927,-0.3860999941825866,-0.1248499974608421,4,0
471,0.4328149855136871,-1.547706961631775,2.512176036834717,-0.1816374957561493,-0.3726249933242798,-0.106562502682209,4,0
472,0.5212010145187378,-1.5025769472122192,2.271414041519165,-0.054587498307228,-0.2175250053405761,-0.1138499975204467,4,0
473,0.5345950126647949,-1.5176860094070437,1.9377039670944207,0.0969374999403953,-0.0219999998807907,-0.142037495970726,4,0
474,0.3584389984607696,-1.3633860349655151,1.4490679502487185,0.2287999987602234,0.167337492108345,-0.1847999989986419,4,0
475,0.0886579975485801,-1.1169830560684204,1.1228389739990234,0.3070375025272369,0.3176249861717224,-0.214087501168251,4,0
476,-0.096900001168251,-0.9088839888572692,0.8885430097579956,0.3388000130653381,0.3944875001907348,-0.2153249979019165,4,0
477,-0.2452140003442764,-0.7829890251159668,0.8341190218925476,0.3315125107765198,0.4079625010490417,-0.2018499970436096,4,0
478,-0.3461450040340423,-0.6742479801177979,1.0417840480804443,0.2985124886035919,0.345674991607666,-0.1773750036954879,4,0
479,-0.3164680004119873,-0.6759849786758423,1.198665976524353,0.2605625092983246,0.1978625059127807,-0.1493249982595443,4,0
480,-0.251213014125824,-0.6414300203323364,1.03049898147583,0.2202749997377395,0.0218624994158744,-0.134612500667572,4,0
481,-0.2217220067977905,-0.583217978477478,0.7693129777908325,0.1702249944210052,-0.1332374960184097,-0.1285624951124191,4,0
482,-0.2579689919948578,-0.6121360063552856,0.458757996559143,0.1249874979257583,-0.2407625019550323,-0.1248499974608421,4,0
483,-0.306861013174057,-0.5125340223312378,0.1649329960346222,0.0944624990224838,-0.2615250051021576,-0.1187999993562698,4,0
484,-0.3385950028896332,-0.4160700142383575,-0.0743760019540786,0.0847000032663345,-0.1930499970912933,-0.0980374962091445,4,0
485,-0.29652801156044,-0.4343979954719543,-0.2090770006179809,0.0809874981641769,-0.0734250023961067,-0.0698499977588653,4,0
486,-0.2969189882278442,-0.3924860060214996,-0.0975390002131462,0.0859375,0.0695749968290329,-0.0368499979376792,4,0
487,-0.345550000667572,-0.3825510144233703,0.2240010052919387,0.1029874980449676,0.1819124966859817,0.0059124999679625,4,0
488,-0.1812690049409866,-0.4863100051879883,0.5459169745445251,0.1214125007390976,0.2259124964475631,0.0437249988317489,4,0
489,-0.0504430010914802,-0.5152450203895569,0.643097996711731,0.1274625062942505,0.1929125040769577,0.0644875019788742,4,0
490,-0.0013490000274032,-0.5816149711608887,0.6586419939994812,0.1079374998807907,0.1050499975681305,0.0681999996304512,4,0
491,0.0739080011844635,-0.6453700065612793,0.5308830142021179,0.0797500014305114,-0.0074249999597668,0.0620125010609626,4,0
492,0.0674280002713203,-0.64096599817276,0.3421800136566162,0.0406999997794628,-0.107524998486042,0.0522499978542327,4,0
493,0.0823559984564781,-0.6576709747314453,0.1218329966068267,-0.0032999999821186,-0.1759999990463256,0.0387750007212162,4,0
494,0.122979000210762,-0.6414530277252197,-0.0886010006070137,-0.0448249988257885,-0.1955250054597854,0.0314874984323978,4,0
495,0.188970997929573,-0.6317729949951172,-0.1896229982376098,-0.0728750005364418,-0.151525005698204,0.0204875003546476,4,0
496,0.2433820068836212,-0.6347399950027466,-0.1218769997358322,-0.0765874981880188,-0.0562375001609325,0.0094875004142522,4,0
497,0.215485006570816,-0.644931972026825,0.1384119987487793,-0.0472999997437,0.0720499977469444,-0.0050874999724328,4,0
498,0.1032809987664222,-0.6416990160942078,0.4004009962081909,0.0126499999314546,0.1868624985218048,-0.0173249989748001,4,0
499,0.00131700001657,-0.6052640080451965,0.4850899875164032,0.0724624991416931,0.2443374991416931,-0.0222750008106231,4,0
500,0.1054529994726181,-0.0297519993036985,0.0980570018291473,-0.0056374999694526,0.0305249989032745,0.0254375003278255,5,0
501,0.15208600461483,-0.0910380035638809,0.1906049996614456,0.0151249999180436,0.0450999997556209,0.0169124994426965,5,0
502,0.1181820034980773,-0.0934270024299621,0.140171006321907,0.0284624993801116,0.0218624994158744,0.002199999988079,5,0
503,0.0844129994511604,-0.0320350006222724,0.0026209999341517,0.0248875003308057,-0.0061874999664723,-0.0063249999657273,5,0
504,0.0263170003890991,0.0343989990651607,-0.0887240022420883,0.0138875003904104,-0.0184249989688396,-0.0125124994665384,5,0
505,-0.0104099996387958,0.05120699852705,-0.2562409937381744,-0.0020624999888241,-0.0269499998539686,-0.0112749999389052,5,0
506,0.0308870002627372,0.0671169981360435,-0.3760049939155578,-0.0276375003159046,-0.0196624994277954,-0.0063249999657273,5,0
507,0.0796419978141784,0.0193419996649026,-0.3807440102100372,-0.0582999996840953,-0.0074249999597668,-0.0015124999918043,5,0
508,0.1226119995117187,-0.0102589996531605,-0.345005989074707,-0.0900624990463256,-0.0024749999865889,-0.0050874999724328,5,0
509,0.115615002810955,0.0176279991865158,-0.2551079988479614,-0.1193500012159347,-0.0086624994874,-0.0160875003784894,5,0
510,0.1423889994621276,0.1465059965848922,-0.1439509987831115,-0.14011250436306,-0.0219999998807907,-0.0197999998927116,5,0
511,0.1256079971790313,0.1801709979772567,-0.0858469977974891,-0.1473999917507171,-0.0244750007987022,-0.0307999998331069,5,0
512,0.1529099941253662,0.2082300037145614,-0.0989980027079582,-0.1486375033855438,-0.0159499999135732,-0.0283249989151954,5,0
513,0.2157109975814819,0.1868769973516464,0.1058970019221305,-0.1388749927282333,0.0340999998152256,-0.0307999998331069,5,0
514,0.205485999584198,0.190770998597145,0.7032009959220886,-0.0936374962329864,0.1123374998569488,-0.0417999997735023,5,0
515,0.1887470036745071,0.1620060056447982,1.6473129987716677,0.0114124994724988,0.210099995136261,-0.0490874983370304,5,0
516,0.3668789863586426,0.1434790045022964,2.782805919647217,0.2056999951601028,0.2968625128269195,-0.0686125010251998,5,0
517,0.3949899971485138,0.108984000980854,4.138659954071045,0.4915624856948852,0.4311999976634979,-0.1003749966621398,5,0
518,0.3190209865570068,-0.162894994020462,6.171443939208984,0.9081875085830688,0.6632999777793884,-0.1383250057697296,5,0
519,0.1353819966316223,-1.0164049863815308,9.086505889892578,1.5274875164031982,0.9431124925613404,-0.1383250057697296,5,0
520,0.3214969933032989,-2.2037808895111084,11.634432792663574,2.3754498958587646,1.106737494468689,-0.166374996304512,5,0
521,-0.0111959995701909,-3.1200900077819824,12.50602912902832,3.329562425613404,1.106737494468689,-0.2446125000715255,5,0
522,-0.4586949944496155,-3.0651841163635254,12.262343406677246,4.204337596893311,1.027400016784668,-0.3008500039577484,5,0
523,-1.3276879787445068,-3.0608561038970947,11.083484649658203,4.947112560272217,0.7402999997138977,-0.3044250011444092,5,0
524,-2.065377950668335,-3.165781021118164,9.020861625671388,5.460262298583984,0.345674991607666,-0.2483250051736831,5,0
525,-2.1637279987335205,-4.328080177307129,6.695643901824951,5.781599998474121,-0.0697124972939491,-0.1456124931573867,5,0
526,-1.7483799457550049,-4.2179341316223145,2.658674955368042,5.950174808502197,-0.4288625121116638,-0.0893749967217445,5,0
527,-1.4566500186920166,-3.5168559551239014,-0.9584980010986328,5.942749977111816,-0.4630999863147735,-0.0455125011503696,5,0
528,-1.3879090547561646,-3.018955945968628,-4.0288920402526855,5.7228875160217285,-0.3946250081062317,-0.0015124999918043,5,0
529,-1.3611589670181274,-1.6997710466384888,-6.977365970611572,5.186500072479248,-0.5009124875068665,0.0791999995708465,5,0
530,-0.9701319932937622,-0.7164329886436462,-9.166461944580078,4.304437637329102,-0.7807250022888184,0.2110625058412552,5,0
531,-0.6310359835624695,-0.0447990000247955,-9.308987617492676,3.223274946212769,-1.1473000049591064,0.3185875117778778,5,0
532,-0.6948850154876709,0.0006709999870508,-8.33663558959961,2.179924964904785,-1.5809749364852903,0.4200625121593475,5,0
533,-0.5932390093803406,-0.3431529998779297,-6.590957164764404,1.3466750383377075,-1.9218374490737915,0.5238749980926514,5,0
534,-0.3961580097675323,-0.897803008556366,-4.970178127288818,0.7969499826431274,-2.070887565612793,0.6154500246047974,5,0
535,-0.2100510001182556,-1.505766987800598,-3.4105710983276367,0.5123249888420105,-1.971887469291687,0.6631624698638916,5,0
536,-0.2408629953861236,-1.803879976272583,-2.0271220207214355,0.4426124989986419,-1.7776000499725342,0.6692125201225281,5,0
537,0.0224070008844137,-2.286027908325196,-1.56385600566864,0.4853749871253967,-1.596787452697754,0.6679750084877014,5,0
538,0.3575490117073059,-2.562369108200073,-1.7486809492111206,0.5233250260353088,-1.434399962425232,0.6204000115394592,5,0
539,0.7032229900360107,-2.5867691040039062,-2.159179925918579,0.5196124911308289,-1.271875023841858,0.5409250259399414,5,0
540,0.9137189984321594,-2.1622910499572754,-3.486746072769165,0.4768500030040741,-1.0433499813079834,0.4431625008583069,5,0
541,0.9224900007247924,-1.3896989822387695,-5.201234817504883,0.3888500034809112,-0.6304374933242798,0.3748250007629394,5,0
542,0.9783669710159302,-0.9167640209197998,-6.428768157958984,0.1872749924659729,-0.107524998486042,0.3455374836921692,5,0
543,1.1407370567321775,-0.5699920058250427,-7.463214874267578,-0.1803999990224838,0.3506250083446502,0.3125374913215637,5,0
544,0.9705849885940552,-0.7147250175476074,-7.94598388671875,-0.7301250100135803,0.612012505531311,0.2733500003814697,5,0
545,0.8622230291366577,-1.2117359638214111,-7.577487945556641,-1.3947999477386477,0.6535375118255615,0.2452999949455261,5,0
546,0.4065510034561157,-1.6149450540542605,-6.486969947814941,-2.072812557220459,0.5827249884605408,0.2232999950647354,5,0
547,0.2462770044803619,-2.0870800018310547,-5.456563949584961,-2.648250102996826,0.4984374940395355,0.2025374919176101,5,0
548,-0.11472799628973,-2.209610939025879,-5.193334102630615,-3.1173999309539795,0.4751999974250793,0.1817750036716461,5,0
549,-0.3711990118026733,-2.3839340209960938,-4.4276227951049805,-3.5315499305725098,0.5215374827384949,0.1940124928951263,5,0
550,-0.5075759887695312,-2.5806639194488525,-4.312915802001953,-3.901700019836426,0.5802500247955322,0.2220624983310699,5,0
551,-0.3588669896125793,-2.8612279891967773,-4.592415809631348,-4.259749889373779,0.682824969291687,0.2355374991893768,5,0
552,-0.2400059998035431,-3.7428131103515625,-4.604888916015625,-4.670187473297119,0.8478249907493591,0.2404875010251999,5,0
553,0.4350169897079468,-4.853388786315918,-3.058990955352783,-5.103862285614014,1.018875002861023,0.2135374993085861,5,0
554,0.0571359992027282,-5.711757183074951,-1.323868989944458,-5.442249774932861,0.952875018119812,0.1072499975562095,5,0
555,-0.8234919905662537,-6.091370105743408,1.352643966674805,-5.6414875984191895,0.8771125078201294,0.0217249989509582,5,0
556,-1.4178420305252075,-5.763970851898193,4.964491844177246,-5.588962554931641,0.7915874719619751,0.0559624992311,5,0
557,-2.0095911026000977,-5.405829906463623,8.980402946472168,-5.197912693023682,0.6852999925613403,0.1377750039100647,5,0
558,-2.720767021179199,-4.5399489402771,12.557575225830078,-4.461325168609619,0.612012505531311,0.2525874972343445,5,0
559,-2.1137280464172363,-4.090968132019043,14.521778106689451,-3.45455002784729,0.4862000048160553,0.4188250005245209,5,0
560,-0.7425150275230408,-4.071615219116211,13.758024215698242,-2.3929123878479004,0.3493874967098236,0.4823499917984009,5,0
561,0.2492959946393966,-3.875746011734009,11.622421264648438,-1.4961374998092651,0.3053874969482422,0.3870624899864197,5,0
562,0.5486040115356445,-3.574755907058716,9.309642791748049,-0.8328375220298767,0.3761999905109405,0.227012500166893,5,0
563,0.3879100084304809,-3.089570999145508,7.326805114746094,-0.381974995136261,0.5447750091552734,0.0632499977946281,5,0
564,-0.2218559980392456,-2.410844087600708,5.875304222106934,-0.1193500012159347,0.7133499979972839,-0.0540375001728534,5,0
565,-0.7850919961929321,-1.7227050065994265,5.059553146362305,0.0041249999776482,0.8098750114440918,-0.0710875019431114,5,0
566,-1.0213559865951538,-1.4277490377426147,4.582917213439941,0.0309375002980232,0.7671124935150146,-0.0112749999389052,5,0
567,-0.9214199781417848,-1.3318300247192385,4.224597930908203,-0.0155375003814697,0.5717250108718872,0.077962502837181,5,0
568,-0.6176589727401733,-1.3740229606628418,3.865762948989868,-0.1131625026464462,0.2674374878406524,0.1597750037908554,5,0
569,-0.2374400049448013,-1.404425024986267,3.9212939739227295,-0.2219250053167343,-0.053762499243021,0.2098249942064285,5,0
570,0.0020930001046508,-1.551988959312439,3.9219179153442383,-0.2854500114917755,-0.3543374836444855,0.2245374917984008,5,0
571,0.2225150018930435,-1.6913210153579712,3.5344560146331787,-0.2842124998569488,-0.5546749830245972,0.2184875011444091,5,0
572,0.5632860064506531,-1.8448309898376465,3.07112193107605,-0.2366375029087066,-0.5974375009536743,0.1977249979972839,5,0
573,0.7431409955024719,-1.833488941192627,2.537313938140869,-0.1413500010967254,-0.4838624894618988,0.145062506198883,5,0
574,0.6674659848213196,-1.7396320104599,2.016453981399536,-0.0203499998897314,-0.2517625093460083,0.0815375000238418,5,0
575,0.5104280114173889,-1.6387629508972168,1.7591110467910769,0.0956999957561492,0.0195249989628791,0.0266750007867813,5,0
576,0.2612369954586029,-1.5067280530929563,1.750862956047058,0.194700002670288,0.2320999950170517,-0.0235124994069337,5,0
577,-0.0174490008503198,-1.4000229835510254,1.8058569431304927,0.2630375027656555,0.3334375023841858,-0.0527999997138977,5,0
578,-0.1717150062322616,-1.3031920194625854,1.8783249855041504,0.3082749843597412,0.3371500074863434,-0.06751249730587,5,0
579,-0.1432549953460693,-1.2176079750061035,1.699915051460266,0.3350875079631805,0.2748624980449676,-0.0820875018835067,5,0
580,-0.1306390017271042,-1.145277976989746,1.4304029941558838,0.3290374875068664,0.1733874976634979,-0.1016125008463859,5,0
581,-0.1856250017881393,-1.0270040035247805,1.0602970123291016,0.2985124886035919,0.0635249987244606,-0.1260875016450882,5,0
582,-0.3216019868850708,-0.8556820154190063,0.7346979975700378,0.2582249939441681,-0.0012374999932944,-0.142037495970726,5,0
583,-0.4904620051383972,-0.7341089844703674,0.4412209987640381,0.2129874974489212,-0.0269499998539686,-0.1407999992370605,5,0
584,-0.6264340281486511,-0.6999300122261047,0.3185209929943084,0.1652749925851822,-0.0037124999798834,-0.1175625026226043,5,0
585,-0.6234880089759827,-0.7071419954299927,0.4055379927158355,0.1299374997615814,0.0353375002741813,-0.0893749967217445,5,0
586,-0.5938810110092163,-0.7670230269432068,0.5345640182495117,0.1079374998807907,0.0512874983251094,-0.0613249987363815,5,0
587,-0.4203310012817383,-0.7924579977989197,0.7769119739532471,0.0994125008583068,0.0500499978661537,-0.038087498396635,5,0
588,-0.2740480005741119,-0.8352490067481995,0.9329349994659424,0.1091749966144561,0.0230999998748302,-0.03575000166893,5,0
589,-0.1871269941329956,-0.7611669898033142,0.8885459899902344,0.1335124969482422,-0.0086624994874,-0.0442750006914138,5,0
590,-0.14478300511837,-0.6805580258369446,0.7699030041694641,0.1641750037670135,-0.0244750007987022,-0.0466125011444091,5,0
591,-0.114376001060009,-0.6347090005874634,0.5485280156135559,0.2032250016927719,-0.0159499999135732,-0.0515624992549419,5,0
592,-0.1657440066337585,-0.5170279741287231,0.1210040003061294,0.2300374954938888,0.0218624994158744,-0.0490874983370304,5,0
593,-0.2019120007753372,-0.484851986169815,-0.1270959973335266,0.2312749922275543,0.0780999958515167,-0.03575000166893,5,0
594,-0.1696480065584182,-0.528132975101471,-0.2017350047826767,0.2092749923467636,0.1098624989390373,-0.0185624994337558,5,0
595,-0.1061310023069381,-0.5169129967689514,-0.2347300052642822,0.1641750037670135,0.0940499976277351,-0.0015124999918043,5,0
596,0.0263379998505115,-0.551006019115448,-0.0942490026354789,0.115225002169609,0.0683375000953674,0.0119624994695186,5,0
597,0.102301999926567,-0.5559350252151489,0.0040119998157024,0.0774125009775161,0.0328624993562698,0.0144375003874301,5,0
598,0.130063995718956,-0.5187169909477234,0.1015549972653389,0.0492249988019466,-0.0024749999865889,0.0169124994426965,5,0
599,0.1083569973707199,-0.5024979710578918,0.07184299826622,0.0296999998390674,-0.0281875003129243,0.0192499998956918,5,0
600,-0.2162269949913025,0.0731500014662742,0.0028709999751299,-0.0019249999895691,0.0562375001609325,-0.0013749999925494,6,0
601,-0.2728820145130157,0.138606995344162,-0.1400279998779297,-0.0191124994307756,0.0244750007987022,0.0108624994754791,6,0
602,-0.2961150109767914,0.1722919940948486,-0.2995139956474304,-0.0654499977827072,-0.0342375002801418,0.031624998897314,6,0
603,-0.2323849946260452,0.1591079980134964,-0.3833340108394623,-0.1351625025272369,-0.1013374999165535,0.0547249987721443,6,0
604,-0.0132590001448988,0.0963540002703666,-0.4073899984359741,-0.2023999989032745,-0.1612875014543533,0.0731500014662742,6,0
605,0.0997089967131614,0.0895249992609024,-0.421979010105133,-0.2572624981403351,-0.1978625059127807,0.0743874981999397,6,0
606,0.1944099962711334,0.1062040030956268,-0.4908829927444458,-0.3147374987602234,-0.2418625056743621,0.0731500014662742,6,0
607,0.2601149976253509,0.1611759960651397,-0.8070189952850342,-0.3880249857902527,-0.2858625054359436,0.0633874982595443,6,0
608,0.1710149943828582,0.2854419946670532,-0.8574560284614563,-0.4662624895572662,-0.2565749883651733,0.0547249987721443,6,0
609,0.1876019984483719,0.3433870077133178,-0.9949349761009216,-0.5102624893188477,-0.1905750036239624,0.052387498319149,6,0
610,0.1084889993071556,0.2336210012435913,-1.1155719757080078,-0.5505499839782715,-0.0390499979257583,0.0547249987721443,6,0
611,0.2203720062971115,0.1456599980592727,-0.9859840273857116,-0.5895999670028687,0.1392875015735626,0.0559624992311,6,0
612,0.7012109756469727,0.1021160036325454,-1.2958519458770752,-0.6396499872207642,0.2773374915122986,0.0376750007271766,6,0
613,1.2260290384292605,0.0891579985618591,-1.813472032546997,-0.7459374666213989,0.4398624897003174,-0.0246124994009733,6,0
614,1.1606580018997192,0.3361980020999908,-1.9348069429397583,-0.9048874974250792,0.6157249808311462,-0.1236125007271766,6,0
615,0.1089410036802291,1.2110940217971802,0.5822010040283203,-1.0599875450134275,0.8369625210762024,-0.1308999955654144,6,0
616,-0.5111299753189087,1.5322940349578855,4.756811141967773,-1.0184625387191772,0.8918250203132629,-0.0393249988555908,6,0
617,-1.509876012802124,1.6094399690628052,10.777629852294922,-0.7240750193595886,0.8784874677658081,0.0901999995112419,6,0
618,-2.4716429710388184,0.609495997428894,17.269235610961914,0.0578874982893466,0.6804875135421753,0.1964875012636184,6,0
619,-3.044990062713623,-1.399302959442139,18.79733657836914,1.3810499906539917,0.3788124918937683,0.3137750029563904,6,0
620,-1.969320058822632,-3.0601470470428467,18.36910629272461,2.92036247253418,0.5644375085830688,0.4164874851703644,6,0
621,-0.3084189891815185,-3.94977593421936,15.926406860351562,4.393674850463867,0.9383000135421752,0.3834874927997589,6,0
622,0.0256050005555152,-4.174458980560303,13.56572723388672,5.479787349700928,1.3879250288009644,0.2600125074386596,6,0
623,-1.0734330415725708,-4.222661972045898,13.015987396240234,6.239749908447266,1.6017374992370603,0.1904374957084655,6,0
624,-2.1362171173095703,-4.78127908706665,10.627111434936523,6.773662567138672,1.280400037765503,0.2514874935150146,6,0
625,-2.86216688156128,-5.047735214233398,8.973166465759277,6.888474941253662,0.8442500233650208,0.442062497138977,6,0
626,-2.0602030754089355,-6.642312049865723,8.795495986938477,6.828662395477295,0.1808124929666519,0.6033499836921692,6,0
627,-1.66034197807312,-7.701292991638184,6.193519115447998,6.728425025939941,-0.7892500162124634,0.5935875177383423,6,0
628,-1.4744470119476318,-7.349103927612305,2.8004229068756104,6.4413251876831055,-1.6003625392913818,0.5031124949455261,6,0
629,-1.817850947380066,-6.30079984664917,-1.0573580265045166,6.028412342071533,-2.2332749366760254,0.4152500033378601,6,0
630,-1.763537049293518,-4.347620010375977,-6.010404109954834,5.554312705993652,-2.4495625495910645,0.4175874888896942,6,0
631,-0.8041319847106934,-3.4610369205474854,-9.137425422668455,4.997300148010254,-2.147749900817871,0.5055875182151794,6,0
632,-0.0025780000723898,-3.298504114151001,-10.668192863464355,4.317912578582764,-1.7018375396728516,0.5458750128746033,6,0
633,0.7511789798736572,-2.992805957794189,-11.27585220336914,3.5629000663757324,-1.3524500131607056,0.5568749904632568,6,0
634,1.1046589612960815,-2.8080990314483643,-11.877989768981934,2.804312467575073,-1.1704000234603882,0.516587495803833,6,0
635,1.2459700107574463,-2.5901169776916504,-12.239409446716309,2.038300037384033,-1.04458749294281,0.4763000011444092,6,0
636,1.4507219791412354,-2.561392068862915,-12.701067924499512,1.2648625373840332,-1.0030624866485596,0.433537483215332,6,0
637,1.3661160469055176,-2.576396942138672,-12.74952793121338,0.4487999975681305,-0.9602999687194824,0.3932499885559082,6,0
638,1.3714549541473389,-2.437894105911255,-11.726628303527832,-0.342787504196167,-0.888112485408783,0.3627249896526336,6,0
639,1.1065789461135864,-2.448049068450928,-10.42416286468506,-1.0012749433517456,-0.8222500085830688,0.3357749879360199,6,0
640,0.9246090054512024,-2.5658860206604004,-9.425737380981444,-1.4961374998092651,-0.695062518119812,0.322299987077713,6,0
641,0.9046900272369384,-2.577244997024536,-8.486152648925781,-1.8748124837875368,-0.5033875107765198,0.3100624978542328,6,0
642,0.8065580129623413,-2.85861611366272,-7.4990081787109375,-2.2181499004364014,-0.3188624978065491,0.2782999873161316,6,0
643,0.8990020155906677,-3.151074886322021,-6.789381980895996,-2.5882999897003174,-0.2235749959945678,0.2197249978780746,6,0
644,1.0497230291366575,-3.2966349124908447,-6.33211088180542,-3.004925012588501,-0.1880999952554702,0.1207249984145164,6,0
645,1.0256550312042236,-3.451077938079834,-6.095913887023926,-3.447262525558472,-0.1220999956130981,-0.0123749999329447,6,0
646,0.5448939800262451,-3.676675081253052,-5.815083026885986,-3.849174976348877,0.0452375002205371,-0.1381874978542328,6,0
647,-0.7140290141105652,-3.40726900100708,-4.278281211853027,-4.149749755859375,0.4423374831676483,-0.2091374993324279,6,0
648,-1.601294994354248,-2.77083706855774,-1.3122040033340454,-4.238850116729736,0.8430125117301941,-0.1956624984741211,6,0
649,-1.6009830236434937,-2.6913719177246094,0.6269699931144714,-4.141087532043457,0.8967750072479248,-0.1541374921798706,6,0
650,-0.9709579944610596,-2.8120570182800293,0.4044710099697113,-4.039750099182129,0.7012500166893005,-0.1736624985933303,6,0
651,-0.334304004907608,-3.160346031188965,-1.2544490098953247,-4.083749771118164,0.5411999821662903,-0.2567124962806701,6,0
652,0.1212529987096786,-3.874066114425659,-2.586134910583496,-4.336612701416016,0.4446749985218048,-0.3667125105857849,6,0
653,-0.9153890013694764,-4.490275859832764,-2.8287830352783203,-4.742237567901611,0.3995749950408935,-0.4680500030517578,6,0
654,-3.1803719997406006,-3.7058160305023193,1.6306610107421875,-5.175912380218506,0.6169624924659729,-0.3117125034332275,6,0
655,-2.260101079940796,-3.2997689247131348,9.178820610046388,-5.090387344360352,0.6451500058174133,-0.0111375004053115,6,0
656,-1.9016369581222528,-3.993176937103272,13.08972454071045,-4.370850086212158,0.310337483882904,0.0974875018000602,6,0
657,-1.9528889656066888,-3.5324900150299072,14.247517585754396,-3.358025074005127,0.1160499975085258,0.1891999989748001,6,0
658,-0.8448169827461243,-2.940412998199463,12.875931739807127,-2.2071499824523926,0.1295250058174133,0.2782999873161316,6,0
659,0.0672999992966651,-2.8487548828125,8.714218139648438,-1.2445124387741089,0.2943874895572662,0.234437495470047,6,0
660,0.6086680293083191,-2.436784029006958,4.926308155059815,-0.6886000037193298,0.708674967288971,0.1256749927997589,6,0
661,0.6934980154037476,-1.953557014465332,2.903570890426636,-0.4625499844551086,1.1631125211715698,-0.0098999999463558,6,0
662,0.4962210059165954,-1.7012369632720947,1.4946010112762451,-0.4797374904155731,1.3573999404907229,-0.1199000030755996,6,0
663,0.2052749991416931,-1.670454978942871,1.376283049583435,-0.7203624844551086,1.3707374334335327,-0.166374996304512,6,0
664,-0.2823190093040466,-1.4742350578308103,4.127597808837891,-0.9451749920845032,1.3048750162124634,-0.1797125041484832,6,0
665,-1.2250070571899414,-1.0425440073013306,7.270774841308594,-0.8644624948501587,1.0078749656677246,-0.1113749966025352,6,0
666,-1.1169060468673706,-1.2855620384216309,8.441393852233887,-0.5273125171661377,0.5522000193595886,0.0169124994426965,6,0
667,-0.3256100118160248,-1.8271960020065308,7.227451801300049,-0.1351625025272369,0.1209999993443489,0.0756250023841857,6,0
668,0.5187879800796509,-2.0760838985443115,5.200388908386231,0.1348875015974044,-0.1258125007152557,0.0254375003278255,6,0
669,0.6492570042610168,-1.9728009700775144,3.7353808879852295,0.2569875121116638,-0.183287501335144,-0.0966624990105629,6,0
670,0.0623669996857643,-1.59136700630188,2.938950061798096,0.3229874968528747,-0.1220999956130981,-0.2006125003099441,6,0
671,-0.5674110054969788,-1.026819944381714,2.102250099182129,0.3852750062942505,0.0134749999269843,-0.2188999950885772,6,0
672,-0.8551679849624634,-0.5651689767837524,1.7295390367507937,0.4195125102996826,0.1979999989271164,-0.1687124967575073,6,0
673,-0.9075440168380736,-0.4137319922447204,1.5386309623718262,0.4145624935626983,0.2895750105381012,-0.0941874980926513,6,0
674,-0.7058449983596802,-0.481454998254776,1.369110941886902,0.3620375096797943,0.2663374841213226,-0.0233750008046627,6,0
675,-0.6322590112686157,-0.4792070090770721,1.650141954421997,0.2655124962329864,0.1332374960184097,0.0241999998688697,6,0
676,-0.4673070013523102,-0.5365710258483887,1.910159945487976,0.1678874939680099,-0.1392875015735626,0.0547249987721443,6,0
677,-0.2896910011768341,-0.5229910016059875,1.5083080530166626,0.0956999957561492,-0.40191251039505,0.0657249987125396,6,0
678,-0.1480779945850372,-0.431784987449646,1.1044249534606934,0.0566499978303909,-0.5033875107765198,0.0621500015258789,6,0
679,-0.0675159990787506,-0.4203630089759826,0.8943309783935547,0.0688875019550323,-0.4459125101566314,0.0609125010669231,6,0
680,0.0415619984269142,-0.4942960143089294,0.8065230250358582,0.1348875015974044,-0.2626250088214874,0.0559624992311,6,0
681,0.0093109998852014,-0.5123410224914551,0.779017984867096,0.2314125001430511,-0.032999999821186,0.0474375002086162,6,0
682,-0.0714000016450882,-0.5378040075302124,0.6188499927520752,0.3034625053405761,0.135574996471405,0.0413874983787536,6,0
683,-0.0983520001173019,-0.5147969722747803,0.3610309958457947,0.3192749917507171,0.2052875012159347,0.0328624993562698,6,0
684,-0.1228799968957901,-0.3816420137882232,0.3024559915065765,0.2777499854564667,0.2089999914169311,0.0266750007867813,6,0
685,-0.0446959994733333,-0.410627007484436,0.5297589898109436,0.2227499932050705,0.1465750038623809,0.0218624994158744,6,0
686,0.0895659998059272,-0.568494975566864,0.7122359871864319,0.1764124929904937,0.0342375002801418,0.0131999999284744,6,0
687,0.2139209955930709,-0.5564680099487305,0.6907100081443787,0.1494625061750412,-0.0842875018715858,-0.0173249989748001,6,0
688,0.1789419949054718,-0.5589720010757446,0.3132149875164032,0.1274625062942505,-0.1636250019073486,-0.0441375002264976,6,0
689,0.1023729965090751,-0.6299700140953064,-0.0095469998195767,0.0933625027537345,-0.1722874939441681,-0.0746624991297721,6,0
690,-0.0023849999997764,-0.4786309897899627,-0.2402880042791366,0.0639375001192092,-0.1245749965310096,-0.1040875017642974,6,0
691,-0.1624269932508468,-0.3241670131683349,-0.2794840037822723,0.0468874983489513,-0.0305249989032745,-0.116187497973442,6,0
692,-0.3366869986057281,-0.1968410015106201,-0.1545509994029998,0.0419375002384185,0.0684750005602836,-0.1113749966025352,6,0
693,-0.4421820044517517,-0.1981569975614547,0.0800559967756271,0.0566499978303909,0.1490499973297119,-0.0893749967217445,6,0
694,-0.4098170101642608,-0.2116989940404892,0.2694840133190155,0.0823625028133392,0.1905750036239624,-0.0613249987363815,6,0
695,-0.3702839910984039,-0.3044109940528869,0.3774850070476532,0.0933625027537345,0.1795749962329864,-0.0405624993145465,6,0
696,-0.4015659987926483,-0.2831479907035827,0.4791330099105835,0.0859375,0.1027124971151351,-0.0233750008046627,6,0
697,-0.5673099756240845,-0.2380519956350326,0.5282149910926819,0.0603624992072582,-0.0305249989032745,-0.0038499999791383,6,0
698,-0.5533599853515625,-0.1714169979095459,0.2515380084514618,0.0199375003576278,-0.1880999952554702,0.0218624994158744,6,0
699,-0.3841080069541931,-0.1981739997863769,-0.104652002453804,-0.025162499397993,-0.2651000022888183,0.0449624992907047,6,0
700,0.076213002204895,0.0873930007219314,0.0763769969344139,-0.0764499977231025,-0.0769999995827674,0.0108624994754791,7,0
701,0.1307969987392425,0.0448979996144771,-0.0272790007293224,-0.0654499977827072,-0.0635249987244606,0.0034374999813735,7,0
702,0.0681079998612403,0.0395560003817081,-0.0291670002043247,-0.0521125011146068,-0.0244750007987022,-0.0063249999657273,7,0
703,-0.0156970005482435,0.0727519989013671,0.0384129993617534,-0.0349249988794326,0.0024749999865889,-0.0087999999523162,7,0
704,-0.2098439931869506,0.0785520002245903,-0.1108909994363784,-0.0349249988794326,-0.0097624994814395,-0.0075624999590218,7,0
705,-0.2840070128440857,0.1914869993925094,-0.2264440059661865,-0.0631124973297119,-0.0415249988436698,0.0108624994754791,7,0
706,-0.2189980000257492,0.2215979993343353,-0.2954350113868713,-0.1046374961733818,-0.0769999995827674,0.0328624993562698,7,0
707,-0.1142719984054565,0.1661510020494461,-0.1995880007743835,-0.1473999917507171,-0.0965249985456466,0.0499125011265277,7,0
708,0.0583209991455078,0.0269659999758005,0.0191420000046491,-0.169400006532669,-0.0989999994635582,0.0571999996900558,7,0
709,0.1505039930343628,-0.126118004322052,0.1784610003232956,-0.1596374958753585,-0.0891000032424926,0.0499125011265277,7,0
710,0.1055689975619316,-0.1932550072669983,0.1421270072460174,-0.1363999992609024,-0.0818125009536743,0.0364375002682209,7,0
711,0.0299210008233785,-0.0901110023260116,-0.0410640016198158,-0.1326874941587448,-0.0915749967098236,0.0279124993830919,7,0
712,0.0572590008378028,-0.0141510004177689,-0.3251340091228485,-0.1571625024080276,-0.0977625027298927,0.0291499998420476,7,0
713,0.2802099883556366,-0.0024389999452978,-0.1641580015420913,-0.1999250054359436,-0.0732875019311904,0.0303875003010034,7,0
714,0.4496400058269501,-0.107133001089096,0.1147200018167495,-0.2072124928236007,-0.0500499978661537,0.0059124999679625,7,0
715,0.5333240032196045,-0.143448993563652,0.026290999725461,-0.1779250055551529,-0.015812499448657,-0.0356125012040138,7,0
716,0.518884003162384,-0.1149690002202987,-0.0748760029673576,-0.1583999991416931,0.0659999996423721,-0.0783749967813491,7,0
717,0.1474580019712448,-0.0556069985032081,-0.0437919981777668,-0.1596374958753585,0.1368124932050705,-0.1296624988317489,7,0
718,-0.4145010113716125,0.3478640019893646,0.3879730105400085,-0.1656875014305114,0.2162874937057495,-0.1284250020980835,7,0
719,-0.5989140272140503,0.6427580118179321,1.4429370164871216,-0.1119249984622001,0.3091000020503998,-0.0783749967813491,7,0
720,-0.6574310064315796,0.8071200251579285,3.2475619316101074,0.0151249999180436,0.4593875110149383,0.0181499999016523,7,0
721,-0.2933999896049499,0.388590008020401,7.076714992523193,0.3205125033855438,0.6584874987602234,0.1073874980211258,7,0
722,0.2135110050439834,-0.8262069821357727,9.298379898071287,0.964424967765808,0.6744375228881836,0.080437496304512,7,0
723,0.7332040071487427,-1.7365260124206543,9.365290641784668,1.7792500257492063,0.781962513923645,0.004674999974668,7,0
724,1.2048699855804443,-2.1597390174865723,8.89387035369873,2.586787462234497,1.0506374835968018,-0.1431374996900558,7,0
725,0.1400559991598129,-1.9411799907684328,7.929712772369385,3.306462526321411,1.3609750270843506,-0.2982375025749206,7,0
726,-1.175686001777649,-1.5927430391311646,9.337979316711426,3.9049999713897705,1.7323625087738037,-0.2531374990940094,7,0
727,-1.4094330072402954,-2.4920809268951416,11.47152328491211,4.616012573242188,1.8338375091552728,-0.1321374922990799,7,0
728,-1.7911570072174072,-3.755340099334717,12.502517700195312,5.396737575531006,1.728787541389465,-0.0123749999329447,7,0
729,-1.4060499668121338,-5.413332939147949,12.642416954040527,6.160274982452393,1.4049749374389648,0.0621500015258789,7,0
730,-1.2643389701843262,-7.056985855102539,9.625426292419434,6.78095006942749,0.8039624691009521,0.0547249987721443,7,0
731,-1.5216809511184692,-7.211191177368164,5.248844146728516,7.0412373542785645,0.273624986410141,0.0438624992966651,7,0
732,-1.3599909543991089,-6.430256843566895,1.827034950256348,7.024049758911133,-0.1416250020265579,0.0536249987781047,7,0
733,-1.1282720565795898,-4.918025016784668,-2.319917917251587,6.782187461853027,-0.550962507724762,0.0438624992966651,7,0
734,-0.8933010101318359,-3.342798948287964,-6.566469192504883,6.269037246704102,-0.7574874758720398,0.0609125010669231,7,0
735,-0.596127986907959,-2.4622368812561035,-8.845279693603516,5.515262603759766,-0.7794874906539917,0.159912496805191,7,0
736,0.4643799960613251,-1.5041240453720093,-10.74870491027832,4.5831499099731445,-0.8025875091552734,0.2551999986171722,7,0
737,1.2634140253067017,-1.0552619695663452,-11.731016159057615,3.549562454223633,-0.8710625171661377,0.2917749881744385,7,0
738,0.8200889825820923,-0.7298650145530701,-10.74599838256836,2.513499975204468,-0.944350004196167,0.2734875082969665,7,0
739,0.2724739909172058,-0.4216980040073395,-8.84090805053711,1.6632000207901,-1.1618750095367432,0.3137750029563904,7,0
740,0.0162259992212057,-0.8549789786338806,-8.087677001953125,1.0071874856948853,-1.4843125343322754,0.4017750024795532,7,0
741,0.1868869960308075,-1.2707250118255615,-7.528389930725098,0.4598000049591064,-1.7153124809265137,0.4555374979972839,7,0
742,0.3522399961948395,-1.497475028038025,-7.417076110839844,0.0309375002980232,-1.83136248588562,0.4750624895095825,7,0
743,0.6388429999351501,-1.4159499406814575,-7.574098110198975,-0.2915000021457672,-1.748175024986267,0.4800125062465668,7,0
744,0.9166370034217834,-1.4475769996643066,-7.850246906280518,-0.5480750203132629,-1.538074970245361,0.4690124988555908,7,0
745,1.0774240493774414,-1.2424999475479126,-8.338005065917969,-0.7863624691963196,-1.2412124872207642,0.444537490606308,7,0
746,1.1719850301742554,-1.0300170183181765,-9.273310661315918,-1.0489875078201294,-0.9088749885559082,0.4225375056266784,7,0
747,1.1632020473480225,-0.9932770133018494,-10.39187240600586,-1.3923250436782837,-0.4886749982833862,0.3944875001907348,7,0
748,1.0249539613723757,-1.271567940711975,-10.482994079589844,-1.8187124729156487,-0.0378125011920928,0.3504875004291534,7,0
749,1.027343988418579,-1.4552409648895264,-9.799817085266112,-2.3011999130249023,0.2675749957561493,0.2905375063419342,7,0
750,1.1972719430923462,-1.7973719835281372,-9.042055130004885,-2.79963755607605,0.3909125030040741,0.2087250053882599,7,0
751,1.1344820261001587,-2.4089930057525635,-7.872063159942627,-3.2847375869750977,0.3788124918937683,0.077962502837181,7,0
752,0.5130000114440918,-2.69979190826416,-6.852161884307861,-3.763649940490722,0.2822875082492828,-0.0576125010848045,7,0
753,-0.3650180101394653,-2.606053113937378,-6.285904884338379,-4.221799850463867,0.1820500046014785,-0.1138499975204467,7,0
754,-1.2088279724121094,-2.376422882080078,-5.610383033752441,-4.635950088500977,0.0855249986052513,-0.0856624990701675,7,0
755,-1.4113130569458008,-2.385219097137451,-5.670773029327393,-5.022049903869629,0.0085249999538064,-0.0098999999463558,7,0
756,-1.0838539600372314,-2.8427999019622803,-5.771489143371582,-5.439774990081787,0.0024749999865889,0.0829124972224235,7,0
757,-0.8215190172195435,-4.256167888641357,-5.401282787322998,-5.940687656402588,-0.0244750007987022,0.1586750000715255,7,0
758,-0.7682449817657471,-5.826000213623047,-3.4916539192199707,-6.489312648773193,-0.1343374997377395,0.2124374955892563,7,0
759,-1.7564409971237185,-7.0657172203063965,0.6785020232200623,-6.942512512207031,-0.420199990272522,0.2624875009059906,7,0
760,-2.5237319469451904,-5.993824005126953,7.0457258224487305,-6.992562294006348,-0.8075374960899353,0.4360125064849853,7,0
761,-1.477954983711243,-5.102250099182129,10.704071998596191,-6.324312686920166,-1.3547874689102173,0.6191624999046326,7,0
762,-1.5179380178451538,-4.247921943664551,9.559715270996094,-5.35920000076294,-1.6065499782562256,0.6961625218391418,7,0
763,-1.5888659954071045,-2.494714975357056,9.610992431640623,-4.483187675476074,-1.1496374607086182,0.9062625169754028,7,0
764,-0.0253010001033544,-2.6950008869171143,11.475882530212402,-3.4740750789642334,-0.3848625123500824,1.0993125438690186,7,0
765,0.9545130133628844,-3.621350049972534,11.63829231262207,-2.264625072479248,0.3225750029087066,1.022449970245361,7,0
766,1.5160969495773315,-3.6748709678649902,9.487068176269531,-1.1149874925613403,0.954112470149994,0.8549749851226807,7,0
767,2.0616700649261475,-3.3253469467163086,6.686273097991943,-0.2719750106334686,1.5613124370574951,0.6448749899864197,7,0
768,1.9771629571914675,-2.7532880306243896,5.02414608001709,0.2216500043869018,2.06469988822937,0.4164874851703644,7,0
769,1.489572048187256,-2.368792057037353,4.373391151428223,0.4377999901771545,2.230799913406372,0.2355374991893768,7,0
770,0.7285429835319519,-2.184945106506348,4.184298038482666,0.4512749910354614,1.9779374599456787,0.1304875016212463,7,0
771,0.4518640041351318,-1.9198180437088013,3.827209949493408,0.3156999945640564,1.385450005531311,0.1024374961853027,7,0
772,0.5156480073928833,-1.8674800395965576,3.0604751110076904,0.0774125009775161,0.65972501039505,0.0731500014662742,7,0
773,0.5336170196533203,-1.495393991470337,2.8759939670562744,-0.1827374994754791,0.0512874983251094,0.0218624994158744,7,0
774,0.3887400031089782,-1.1519349813461304,3.126704931259156,-0.318450003862381,-0.3091000020503998,-0.0185624994337558,7,0
775,0.2113710045814514,-1.0859179496765137,3.2763140201568604,-0.279262512922287,-0.4434374868869781,-0.038087498396635,7,0
776,0.0213799998164176,-0.9443489909172058,2.660475969314575,-0.1388749927282333,-0.4189625084400177,-0.0428999997675418,7,0
777,-0.0941220000386238,-0.603190004825592,1.969269037246704,0.0248875003308057,-0.2235749959945678,-0.025849999859929,7,0
778,-0.0835369974374771,-0.3996489942073822,1.671710968017578,0.1751749962568283,0.0427624993026256,0.004674999974668,7,0
779,-0.0857729986310005,-0.3148699998855591,1.6652590036392212,0.2899875044822693,0.2418625056743621,0.0291499998420476,7,0
780,-0.0220090001821517,-0.2451499998569488,1.8941839933395384,0.3596999943256378,0.3250499963760376,0.0547249987721443,7,0
781,0.2818300127983093,-0.3699620068073272,1.896252989768982,0.3950375020503998,0.3078624904155731,0.080437496304512,7,0
782,0.6840850114822388,-0.5990359783172607,2.256481885910034,0.4145624935626983,0.2638624906539917,0.0609125010669231,7,0
783,0.6931819915771484,-0.7671369910240173,1.9643440246582031,0.4353249967098236,0.1050499975681305,-0.0001374999992549,7,0
784,0.4108679890632629,-0.5880429744720459,1.2056770324707031,0.3950375020503998,-0.0549999997019767,-0.0613249987363815,7,0
785,-0.0559340007603168,-0.1741710007190704,0.6289780139923096,0.3119874894618988,-0.1538625061511993,-0.0954250022768974,7,0
786,-0.3456070125102997,0.1175180003046989,0.3014569878578186,0.2252250015735626,-0.1746249943971634,-0.0833249986171722,7,0
787,-0.3911679983139038,0.2506169974803924,0.1829500049352646,0.1629374921321869,-0.1160499975085258,-0.0416624993085861,7,0
788,-0.2154960036277771,0.1673119962215423,0.2162349969148636,0.1274625062942505,-0.0170499999076128,0.0010999999940395,7,0
789,0.1343529969453811,0.0129239996895194,0.3298990130424499,0.118937499821186,0.0904750004410743,0.0241999998688697,7,0
790,0.3187080025672912,-0.0916600003838539,0.4439229965209961,0.1238875016570091,0.1845249980688095,0.0181499999016523,7,0
791,0.1354780048131942,-0.1913750022649765,0.6615049839019775,0.1311749964952469,0.2382874935865402,0.0010999999940395,7,0
792,0.0018579999450594,-0.2339390069246292,0.7938899993896484,0.1324124932289123,0.183287501335144,-0.0038499999791383,7,0
793,-0.1489000022411346,-0.1806299984455108,0.5909799933433533,0.1031249985098838,0.053762499243021,-0.0026124999858438,7,0
794,-0.1283999979496002,-0.1373140066862106,0.2202520072460174,0.0419375002384185,-0.0780999958515167,0.0169124994426965,7,0
795,-0.1430370062589645,-0.1482110023498535,0.066209003329277,-0.0349249988794326,-0.1453374922275543,0.0413874983787536,7,0
796,-0.0144710000604391,-0.2592769861221313,0.1104729995131492,-0.0948750004172325,-0.1685750037431717,0.0621500015258789,7,0
797,0.0550939999520778,-0.380282998085022,0.1219019964337349,-0.12168750166893,-0.1331000030040741,0.0706750005483627,7,0
798,0.1310040056705474,-0.474821001291275,0.4166019856929779,-0.1106875017285347,-0.0427624993026256,0.0633874982595443,7,0
799,0.1809010058641433,-0.5990099906921387,0.6438609957695007,-0.0581624992191791,0.0281875003129243,0.0438624992966651,7,0
800,-0.0008660000166855,-0.078573003411293,-0.0805480033159256,-0.1278750002384185,-0.0305249989032745,-0.0208999998867511,8,0
801,-0.1150629967451095,0.0284809991717338,0.1137270033359527,-0.1241625025868415,-0.015812499448657,-0.0111375004053115,8,0
802,-0.0541960000991821,-0.0241819992661476,0.2191819995641708,-0.1009249985218048,-0.0097624994814395,0.002199999988079,8,0
803,-0.0319099985063076,-0.0025659999810159,0.1469500064849853,-0.0851124972105026,-0.0134749999269843,0.004674999974668,8,0
804,-0.0058249998837709,-0.0127980001270771,0.0318000018596649,-0.0911625027656555,-0.0207624994218349,0.0034374999813735,8,0
805,-0.0696519985795021,0.0134119996801018,-0.0554100014269351,-0.1106875017285347,-0.0390499979257583,0.0034374999813735,8,0
806,-0.1229529976844787,0.0167559999972581,-0.1965550035238266,-0.1486375033855438,-0.0732875019311904,0.0120999999344348,8,0
807,-0.0483909994363784,-0.0049970000982284,-0.240786999464035,-0.1999250054359436,-0.108762502670288,0.0241999998688697,8,0
808,0.1771160066127777,-0.0465289987623691,0.0017049999441951,-0.2364999949932098,-0.1220999956130981,0.0351999998092651,8,0
809,0.4081949889659881,-0.0953560024499893,0.3155860006809234,-0.2169750034809112,-0.1160499975085258,0.022962499409914,8,0
810,0.4168770015239715,-0.1402020007371902,0.3214879930019378,-0.1619749963283538,-0.0695749968290329,-0.0111375004053115,8,0
811,0.3865709900856018,-0.1313270032405853,0.4559389948844909,-0.0911625027656555,0.0232375003397464,-0.0393249988555908,8,0
812,0.2237100005149841,-0.0380700007081031,0.4281350076198578,-0.0043999999761581,0.1160499975085258,-0.0636624991893768,8,0
813,0.1341490000486374,-0.0540269985795021,0.2950780093669891,0.0578874982893466,0.1942874938249588,-0.0833249986171722,8,0
814,0.0083210002630949,-0.0065190000459551,0.226965993642807,0.0823625028133392,0.2223374992609024,-0.0991374999284744,8,0
815,-0.0614290013909339,0.0100140003487467,-0.0096800001338124,0.0591249987483024,0.1772374957799911,-0.1088999956846237,8,0
816,-0.1738640069961547,0.1924030035734176,-0.0657569989562034,-0.0081124994903802,0.111237496137619,-0.1076624989509582,8,0
817,-0.2410410046577453,0.3597869873046875,0.2220969945192337,-0.0728750005364418,0.0512874983251094,-0.084425002336502,8,0
818,-0.0851709991693496,0.3609830141067505,0.5367040038108826,-0.0948750004172325,0.0134749999269843,-0.0563750006258487,8,0
819,0.2066980004310608,0.4083659946918487,1.044424057006836,-0.0764499977231025,0.0599500015377998,-0.0318999998271465,8,0
820,0.7610480189323425,-0.0285149998962879,2.6410319805145264,0.0273624993860721,0.2297624945640564,-0.0405624993145465,8,0
821,0.9947659969329834,-0.4795359969139099,3.700809955596924,0.2912249863147735,0.3665750026702881,-0.1199000030755996,8,0
822,0.9351189732551576,-0.543595016002655,4.082549095153809,0.6467999815940857,0.5656750202178955,-0.2041874974966049,8,0
823,0.9155139923095704,-0.6880829930305481,4.881929874420166,1.051187515258789,0.8857749700546265,-0.2774749994277954,8,0
824,0.0066309999674558,-0.3486199975013733,6.237714767456055,1.554437518119812,1.2706375122070312,-0.3312374949455261,8,0
825,-1.527448058128357,0.3159579932689667,9.879958152770996,2.19958758354187,1.8203624486923216,-0.2139499932527542,8,0
826,-2.504211902618408,-0.5010679960250854,13.405195236206056,3.225749969482422,2.2357499599456787,-0.0075624999590218,8,0
827,-3.4431140422821045,-1.693640947341919,13.399066925048828,4.464624881744385,2.386037588119507,0.2124374955892563,8,0
828,-2.627639055252075,-2.9630300998687744,11.42091941833496,5.500549793243408,2.4116125106811523,0.4738250076770782,8,0
829,-1.5657620429992676,-3.96070408821106,9.277555465698242,6.129749774932861,2.2235124111175537,0.6155874729156494,8,0
830,-1.4180279970169067,-4.5760178565979,7.838490009307861,6.416850090026856,1.8423625230789185,0.6558749675750732,8,0
831,-1.253517985343933,-5.298972129821777,6.633825778961182,6.520662307739258,1.255924940109253,0.6729249954223633,8,0
832,-0.3436500132083893,-6.2333598136901855,4.146853923797607,6.5256123542785645,0.5669124722480774,0.6106374859809875,8,0
833,-0.3999600112438202,-6.104137897491455,0.8904600143432617,6.352087497711182,-0.0940499976277351,0.4701125025749206,8,0
834,-0.4724760055541992,-4.921144962310791,-2.865920066833496,5.983174800872803,-0.5937250256538391,0.3748250007629394,8,0
835,-0.3019759953022003,-3.079197883605957,-7.976599216461182,5.413787364959717,-0.8978750109672546,0.3748250007629394,8,0
836,0.2973049879074096,-1.5889689922332764,-11.249199867248535,4.594150066375732,-0.7587249875068665,0.4175874888896942,8,0
837,0.8557320237159729,-0.9469419717788696,-12.211082458496094,3.650899887084961,-0.6059625148773193,0.4982999861240387,8,0
838,1.4080849885940552,-0.8959540128707886,-12.136401176452637,2.671074867248535,-0.6767749786376953,0.533637523651123,8,0
839,1.38100004196167,-1.3537349700927734,-11.748336791992188,1.686437487602234,-0.9590625166893004,0.4885374903678894,8,0
840,1.4114439487457275,-1.647765040397644,-11.185888290405272,0.7408499717712402,-1.3756874799728394,0.4323000013828277,8,0
841,1.5296950340270996,-1.4659429788589478,-10.916006088256836,-0.0813999995589256,-1.784887433052063,0.381012499332428,8,0
842,1.7112339735031128,-1.5502170324325562,-11.213279724121094,-0.783887505531311,-2.0719873905181885,0.3357749879360199,8,0
843,1.6926569938659668,-1.515442967414856,-11.764467239379885,-1.3861374855041504,-2.1367499828338623,0.2807750105857849,8,0
844,1.6294430494308472,-1.1576030254364014,-12.306479454040527,-1.916337490081787,-2.009700059890747,0.2674374878406524,8,0
845,1.5751169919967651,-0.9726449847221376,-12.774221420288086,-2.455199956893921,-1.7164125442504885,0.2967250049114227,8,0
846,1.1924810409545898,-1.325374960899353,-12.565698623657228,-3.0159249305725098,-1.3011624813079834,0.3150124847888946,8,0
847,0.4836100041866302,-1.8024719953536987,-11.020208358764648,-3.5485999584198,-0.8441125154495239,0.3260124921798706,8,0
848,-0.2486799955368042,-2.245306968688965,-7.996391773223877,-3.981037378311157,-0.4996750056743622,0.3467749953269958,8,0
849,-0.664680004119873,-2.4768590927124023,-5.294268131256104,-4.287799835205078,-0.393387496471405,0.3845874965190887,8,0
850,-0.7526689767837524,-2.566131114959717,-3.43721604347229,-4.480712413787842,-0.4714874923229217,0.4090625047683716,8,0
851,-1.1293200254440308,-2.2094500064849854,-2.204287052154541,-4.609000205993652,-0.5852000117301941,0.4175874888896942,8,0
852,-1.3779460191726685,-1.89636504650116,-1.2223780155181885,-4.6774749755859375,-0.6962999701499939,0.4628250002861023,8,0
853,-1.0718220472335815,-1.9129619598388672,-1.0470119714736938,-4.715287685394287,-0.8540124893188477,0.5190625190734863,8,0
854,-0.6454150080680847,-2.243880033493042,-1.893618941307068,-4.787475109100342,-1.0543500185012815,0.5435374975204468,8,0
855,-0.2032960057258606,-2.6337730884552,-2.759340047836304,-5.00362491607666,-1.1129250526428225,0.5863000154495239,8,0
856,0.1063200011849403,-3.4604930877685547,-0.5378000140190125,-5.289487361907959,-0.861299991607666,0.6534000039100647,8,0
857,-0.3937700092792511,-3.2934999465942383,5.577079772949219,-5.312725067138672,-0.5692499876022339,0.7071624994277954,8,0
858,-0.7851999998092651,-3.034658908843994,12.455696105957031,-4.701950073242188,-0.5424374938011169,0.7939249873161316,8,0
859,-0.2859669923782348,-3.653434038162232,15.295422554016112,-3.463074922561645,-0.7147250175476074,0.865975022315979,8,0
860,1.1793529987335205,-3.809410095214844,13.96200942993164,-2.005574941635132,-0.7073000073432922,0.7902125120162964,8,0
861,2.5078699588775635,-3.344999074935913,10.415971755981444,-0.7471749782562256,-0.4153875112533569,0.5556374788284302,8,0
862,2.8552699089050293,-2.7814669609069824,6.7784929275512695,0.0956999957561492,0.0647625029087066,0.2637250125408172,8,0
863,2.6761600971221924,-2.3095779418945312,4.669591903686523,0.6051374673843384,0.5656750202178955,-0.0087999999523162,8,0
864,1.919412970542908,-1.642385959625244,3.056024074554444,0.9081875085830688,0.8882499933242798,-0.2164250016212463,8,0
865,1.1391069889068604,-1.0104379653930664,1.4039069414138794,0.994949996471405,1.005537509918213,-0.3019500076770782,8,0
866,0.8095870018005371,-0.2709029912948608,0.1941609978675842,0.8691374659538269,0.9933000206947328,-0.2860000133514404,8,0
867,0.6468290090560913,-0.0972189977765083,0.1254789978265762,0.5990874767303467,0.8992499709129333,-0.2176624983549118,8,0
868,0.5708209872245789,-0.3322359919548034,1.0508379936218262,0.3119874894618988,0.6182000041007996,-0.1846625059843063,8,0
869,0.4357030093669891,-0.3776659965515136,1.053333044052124,0.0823625028133392,0.1050499975681305,-0.1883749961853027,8,0
870,0.3059149980545044,-0.1759919971227646,0.1375540047883987,-0.1559250056743621,-0.3664374947547912,-0.2029500007629394,8,0
871,0.0426319986581802,0.3350580036640167,-0.1728589981794357,-0.370974987745285,-0.5692499876022339,-0.2176624983549118,8,0
872,-0.1087419986724853,0.5542920231819153,0.2416989952325821,-0.4527874886989593,-0.5460125207901001,-0.2054249942302703,8,0
873,-0.1884859949350357,0.5859990119934082,0.4050039947032928,-0.395312488079071,-0.3761999905109405,-0.1846625059843063,8,0
874,0.0301070008426904,0.5397329926490784,0.4492869973182678,-0.2524499893188476,-0.0780999958515167,-0.1541374921798706,8,0
875,0.1572059988975525,0.3984889984130859,0.6450620293617249,-0.0851124972105026,0.2663374841213226,-0.1431374996900558,8,0
876,0.1566469967365265,0.2341450005769729,1.0738329887390137,0.0749375000596046,0.5314375162124634,-0.1504250019788742,8,0
877,-0.0793199986219406,0.2407580018043518,1.5859520435333252,0.2056999951601028,0.6023874878883362,-0.1651374995708465,8,0
878,-0.3626039922237396,0.2744520008563995,1.6523070335388184,0.2899875044822693,0.4984374940395355,-0.1676124930381775,8,0
879,-0.4153299927711487,0.2930789887905121,1.2866920232772827,0.3242250084877014,0.3323374986648559,-0.1566125005483627,8,0
880,-0.3949609994888305,0.3110119998455047,0.747518002986908,0.2937000095844269,0.1625249981880188,-0.1358499974012375,8,0
881,-0.4034450054168701,0.2212080061435699,0.2517389953136444,0.2081750035285949,0.0147124994546175,-0.1333750039339065,8,0
882,-0.4955739974975586,0.2628560066223144,-0.1550669968128204,0.1054624989628791,-0.0879999995231628,-0.1333750039339065,8,0
883,-0.5113480091094971,0.3585560023784637,-0.3116610050201416,0.0138875003904104,-0.0977625027298927,-0.1199000030755996,8,0
884,-0.4923900067806244,0.5024030208587646,-0.1904930025339126,-0.0336874984204769,-0.0280499998480081,-0.0941874980926513,8,0
885,-0.4359549880027771,0.4791939854621887,-0.0767899975180625,-0.0239249989390373,0.0904750004410743,-0.0563750006258487,8,0
886,-0.4061320126056671,0.3111959993839264,0.3160490095615387,0.0163624994456768,0.22605000436306,-0.0136124994605779,8,0
887,-0.2883920073509216,0.2219509929418563,0.8626710176467896,0.0774125009775161,0.2883374989032745,0.0279124993830919,8,0
888,-0.0399859994649887,-0.0167040005326271,1.149507999420166,0.1361249983310699,0.255337506532669,0.052387498319149,8,0
889,0.0802220031619072,-0.2217870056629181,1.2521350383758545,0.1836999952793121,0.1722874939441681,0.0339624993503093,8,0
890,0.0785040035843849,-0.2775250077247619,1.0905909538269043,0.2069374918937683,0.0147124994546175,0.004674999974668,8,0
891,0.0614309981465339,-0.1538819968700409,0.5218709707260132,0.1959374994039535,-0.1551000028848648,-0.0196624994277954,8,0
892,0.1260430067777633,0.0214230008423328,-0.0296819992363452,0.1714625060558319,-0.2235749959945678,-0.0356125012040138,8,0
893,0.1908909976482391,0.073522999882698,-0.3864350020885467,0.1604624986648559,-0.1783374994993209,-0.0441375002264976,8,0
894,0.1635060012340545,0.0203779991716146,-0.5660390257835388,0.1604624986648559,-0.0390499979257583,-0.0503249987959861,8,0
895,0.2616150081157684,-0.0472100004553794,-0.3957319855690002,0.1727000027894973,0.1307625025510788,-0.0515624992549419,8,0
896,0.335559993982315,-0.1706680059432983,-0.2938979864120483,0.1909874975681305,0.2615250051021576,-0.0673749968409538,8,0
897,0.3045459985733032,-0.205702006816864,-0.06734000146389,0.1922249943017959,0.340862512588501,-0.0941874980926513,8,0
898,0.1893559992313385,-0.1805700063705444,-0.0278060007840394,0.1849374920129776,0.3115749955177307,-0.116187497973442,8,0
899,0.0063609997741878,-0.1552949994802475,-0.0003180000057909,0.1396999955177307,0.2285249978303909,-0.1394249945878982,8,0
900,0.2485670000314712,-0.0891110002994537,-0.3397150039672851,-0.1229249984025955,0.0097624994814395,0.0401500016450881,9,0
901,0.2224639952182769,-0.0667340010404586,-0.3908880054950714,-0.1619749963283538,0.0037124999798834,0.0181499999016523,9,0
902,0.1222779974341392,-0.0284710004925727,-0.3164219856262207,-0.2084500044584274,-0.0085249999538064,0.0059124999679625,9,0
903,0.1844359934329986,-0.0275079999119043,-0.3193950057029724,-0.2377374917268753,-0.0182875003665685,-0.0038499999791383,9,0
904,0.2432660013437271,-0.0357370004057884,-0.4449310004711151,-0.2585000097751617,0.0061874999664723,-0.0173249989748001,9,0
905,0.3135600090026855,-0.0800390020012855,-0.649429976940155,-0.2879250049591064,0.0452375002205371,-0.0356125012040138,9,0
906,0.5532500147819519,-0.2133810073137283,-1.0691850185394287,-0.3452624976634979,0.0782374963164329,-0.0661375001072883,9,0
907,0.7024499773979187,-0.2902980148792267,-1.3473960161209106,-0.4405499994754791,0.1332374960184097,-0.1236125007271766,9,0
908,0.4994269907474518,-0.2282409965991974,-1.3735510110855105,-0.544362485408783,0.22605000436306,-0.1809500008821487,9,0
909,0.5039730072021484,-0.2073870003223419,-1.166118025779724,-0.6298875212669373,0.3140499889850616,-0.2041874974966049,9,0
910,0.2358209937810897,-0.2220129966735839,-0.8525149822235107,-0.7141749858856201,0.3946250081062317,-0.2249500006437301,9,0
911,-0.090558998286724,0.1687840074300766,0.133211001753807,-0.7643625140190125,0.4886749982833862,-0.2164250016212463,9,0
912,-0.1432210057973861,0.2165420055389404,0.6264659762382507,-0.7325999736785889,0.4972000122070312,-0.1773750036954879,9,0
913,-0.1388529986143112,0.2270649969577789,0.7705489993095398,-0.6763625144958496,0.520437479019165,-0.1601874977350235,9,0
914,-0.2211830019950866,0.2545009851455688,0.8415060043334961,-0.6043124794960022,0.5827249884605408,-0.1541374921798706,9,0
915,-0.2208990007638931,0.0946960002183914,0.698261022567749,-0.5200250148773193,0.65972501039505,-0.1406625062227249,9,0
916,-0.2824989855289459,0.1200930029153823,0.3291040062904358,-0.469837486743927,0.7635374665260315,-0.147949993610382,9,0
917,-0.3044919967651367,0.3323549926280975,0.3432120084762573,-0.4625499844551086,0.8674874901771545,-0.1321374922990799,9,0
918,-0.1398359984159469,0.4117920100688934,0.4070470035076141,-0.4882625043392181,0.9187750220298768,-0.1076624989509582,9,0
919,-0.3202719986438751,0.5774980187416077,2.045443058013916,-0.5383124947547913,1.053112506866455,-0.0648999959230423,9,0
920,-0.3861660063266754,0.569549024105072,5.680582046508789,-0.4417875111103058,1.1863499879837036,0.0120999999344348,9,0
921,-0.2975940108299255,-0.1501110047101974,9.243427276611328,-0.0239249989390373,1.2326874732971191,0.0681999996304512,9,0
922,-0.3287259936332702,-1.07860004901886,11.55819606781006,0.7126625180244446,1.193637490272522,0.0657249987125396,9,0
923,0.0850410014390945,-1.8385109901428225,11.607003211975098,1.6399624347686768,1.1411124467849731,0.0206249989569187,9,0
924,0.1410010010004043,-1.906738042831421,10.824175834655762,2.531787395477295,1.210687518119812,-0.0746624991297721,9,0
925,-0.1467369943857193,-1.8086919784545896,10.535167694091797,3.2832250595092773,1.2999249696731567,-0.1578499972820282,9,0
926,-1.474226951599121,-1.5184370279312134,10.149752616882324,3.933187484741211,1.2461625337600708,-0.1931875050067901,9,0
927,-3.362520933151245,-1.283622980117798,11.474061965942385,4.47314977645874,1.214400053024292,-0.0368499979376792,9,0
928,-3.72216796875,-2.4690499305725098,12.433302879333496,5.129162311553955,0.9322500228881836,0.216012492775917,9,0
929,-4.028102874755859,-3.753245115280152,10.056968688964844,5.758362293243408,0.4129124879837036,0.4285874962806701,9,0
930,-3.06542706489563,-5.037509918212891,8.312540054321289,6.151750087738037,0.1307625025510788,0.6106374859809875,9,0
931,-2.038781881332397,-6.266427040100098,5.961582183837891,6.387562274932861,-0.3518624901771545,0.6204000115394592,9,0
932,-1.7946560382843018,-6.221622943878174,1.946923017501831,6.438849925994873,-0.8392999768257141,0.5227749943733215,9,0
933,-1.956670999526977,-5.251657009124756,-1.2657150030136108,6.251987457275391,-1.1081124544143677,0.4823499917984009,9,0
934,-1.762004017829895,-4.785134792327881,-3.5026330947875977,5.887887477874756,-1.3719749450683594,0.5348749756813049,9,0
935,-1.8754969835281368,-4.364177227020264,-6.182098865509033,5.336925029754639,-1.7018375396728516,0.6106374859809875,9,0
936,-1.295274019241333,-3.720557928085327,-8.165146827697754,4.633200168609619,-1.918125033378601,0.691349983215332,9,0
937,-1.5576080083847046,-3.091491937637329,-8.9234619140625,3.88423752784729,-1.915650010108948,0.7731624841690063,9,0
938,-1.3397560119628906,-2.130254983901977,-7.263869762420654,3.2294623851776123,-1.6785999536514282,0.9589250087738036,9,0
939,0.0728690028190612,-2.6293210983276367,-5.6290202140808105,2.8091249465942383,-1.547837495803833,1.0785499811172483,9,0
940,0.9452829957008362,-3.4685800075531006,-6.035990238189697,2.454925060272217,-1.5845500230789185,1.0345499515533447,9,0
941,1.882830023765564,-3.6457560062408447,-5.970768928527832,2.0162999629974365,-1.622362494468689,0.9136874675750732,9,0
942,2.0231618881225586,-3.537326097488404,-5.641329765319824,1.5789124965667725,-1.7360750436782837,0.718162477016449,9,0
943,1.5834050178527832,-3.21213698387146,-6.957061767578125,1.1732875108718872,-1.797124981880188,0.5422999858856201,9,0
944,1.7470170259475708,-2.616424083709717,-8.548815727233887,0.7273749709129333,-1.5673625469207764,0.4725874960422516,9,0
945,2.146769046783448,-2.1709089279174805,-9.36882209777832,0.2582249939441681,-1.1691625118255615,0.3993000090122223,9,0
946,2.54314398765564,-2.005697011947632,-10.532690048217772,-0.243925005197525,-0.7818250060081482,0.3199625015258789,9,0
947,3.005743980407715,-2.1816210746765137,-11.894264221191406,-0.8327000141143799,-0.32133749127388,0.2184875011444091,9,0
948,2.9430270195007324,-2.162307024002075,-12.378580093383787,-1.4851374626159668,0.2675749957561493,0.0449624992907047,9,0
949,1.8552000522613523,-2.304680109024048,-11.849764823913574,-2.1228625774383545,0.8784874677658081,-0.1321374922990799,9,0
950,0.6337270140647888,-2.669847011566162,-9.839208602905272,-2.7385873794555664,1.3243999481201172,-0.2359499931335449,9,0
951,0.2933180034160614,-3.071674108505249,-7.312619209289551,-3.3397374153137207,1.3536875247955322,-0.3177624940872192,9,0
952,0.2118339985609054,-3.3877429962158203,-5.779831886291504,-3.957937479019165,1.0078749656677246,-0.416762501001358,9,0
953,0.3202309906482696,-3.7936160564422607,-4.883650779724121,-4.643237590789795,0.5046250224113464,-0.5120499730110168,9,0
954,0.6309900283813477,-4.109610080718994,-5.091594219207764,-5.370200157165527,-0.107524998486042,-0.607337474822998,9,0
955,0.1600569933652877,-4.2367987632751465,-5.12025785446167,-6.094687461853027,-0.5119125247001648,-0.6648125052452087,9,0
956,-1.2356189489364624,-5.428430080413818,-4.148591995239258,-6.751937389373779,-0.6877750158309937,-0.6330500245094299,9,0
957,-4.537590026855469,-5.946609020233154,-0.6651530265808105,-7.279662609100342,-0.6315374970436096,-0.4070000052452087,9,0
958,-5.853443145751953,-4.475016117095947,6.5921831130981445,-7.442187309265137,-0.547249972820282,0.1501500010490417,9,0
959,-4.510217189788818,-4.319814205169678,13.53389835357666,-6.9485626220703125,-0.778249979019165,0.7474499940872192,9,0
960,-2.3955070972442627,-4.921834945678711,16.861492156982422,-5.863687515258789,-1.0041625499725342,1.045549988746643,9,0
961,-1.5707440376281738,-4.680476188659668,17.478164672851562,-4.45761251449585,-0.8893499970436096,1.111549973487854,9,0
962,-0.2886649966239929,-4.120328903198242,16.69617462158203,-2.975637435913086,-0.4519625008106231,1.120074987411499,9,0
963,0.9847059845924376,-3.8103649616241455,14.204919815063477,-1.6402374505996704,0.183287501335144,1.002787470817566,9,0
964,1.2466520071029663,-3.551124095916748,11.683294296264648,-0.6275500059127808,0.8344874978065491,0.7841625213623047,9,0
965,1.0213910341262815,-2.8083629608154297,9.365304946899414,0.0493624992668628,1.251112461090088,0.5838249921798706,9,0
966,0.8891940116882324,-2.3314919471740723,7.056289196014404,0.3937999904155731,1.4257375001907349,0.4701125025749206,9,0
967,0.7846770286560059,-2.161578893661499,5.540316104888916,0.4427500069141388,1.3914999961853027,0.4152500033378601,9,0
968,0.7682139873504639,-2.315036058425904,4.576388835906982,0.2949374914169311,1.1130625009536743,0.3907749950885772,9,0
969,0.8545950055122375,-2.3262178897857666,3.9208250045776367,0.0493624992668628,0.6951999664306641,0.3662999868392944,9,0
970,1.1089379787445068,-2.1893320083618164,3.692917108535767,-0.2096875011920929,0.2187625020742416,0.3284874856472015,9,0
971,1.2305699586868286,-2.012017011642456,3.168942928314209,-0.4197874963283539,-0.246812492609024,0.2527250051498413,9,0
