,acc_x,acc_y,acc_z,gyr_x,gyr_y,gyr_z,sample,label
0,-0.068231001496315,0.0357469990849494,0.6284549832344055,0.0101749999448657,0.0085249999538064,0.0204875003546476,0,1
1,-0.0083959996700286,0.0219880007207393,0.7283989787101746,0.0688875019550323,-0.0769999995827674,0.0217249989509582,0,1
2,0.091109000146389,-0.025365000590682,0.7796239852905273,0.1409374922513961,-0.135574996471405,0.0169124994426965,0,1
3,0.0908539965748786,-0.0525939986109733,0.7692130208015442,0.2142249941825866,-0.1722874939441681,0.004674999974668,0,1
4,0.1364910006523132,-0.0134439999237656,0.7604029774665833,0.2912249863147735,-0.1857624948024749,-0.0002749999985098,0,1
5,0.2003570050001144,-0.0386370010673999,0.7622799873352051,0.3669874966144562,-0.2088624984025955,-0.0075624999590218,0,1
6,0.1118749976158142,0.0473380014300346,0.6632120013237,0.4500375092029571,-0.2285249978303909,-0.0283249989151954,0,1
7,0.0117929996922612,0.1784999966621399,0.867842972278595,0.5075125098228455,-0.2968625128269195,-0.0356125012040138,0,1
8,0.0834880024194717,0.1622399985790252,1.0471839904785156,0.5880874991416931,-0.3518624901771545,-0.038087498396635,0,1
9,0.0998139977455139,0.128044992685318,1.767071008682251,0.7028999924659729,-0.3983374834060669,-0.0625625029206276,0,1
10,0.1333950012922287,-0.0187780000269413,2.07917594909668,0.8556625247001648,-0.4422000050544739,-0.091849997639656,0,1
11,0.3004280030727386,-0.251444011926651,2.4187920093536377,1.0718125104904177,-0.3860999941825866,-0.1126125007867813,0,1
12,0.2747850120067596,-0.231465995311737,2.3139350414276123,1.3040499687194824,-0.3445749878883362,-0.1541374921798706,0,1
13,0.1784390062093734,-0.1839469969272613,1.3915209770202637,1.5031499862670898,-0.2480500042438507,-0.1993750035762787,0,1
14,-0.0143969999626278,-0.1336379945278167,0.1897650063037872,1.5789124965667725,-0.1160499975085258,-0.2213750034570694,0,1
15,0.0193819999694824,-0.004222999792546,-0.9077079892158508,1.52020001411438,0.0439999997615814,-0.2006125003099441,0,1
16,0.0313040018081665,0.1116160005331039,-2.015626907348633,1.362625002861023,0.2578125,-0.1968999952077865,0,1
17,0.0442110002040863,0.2205320000648498,-3.328810930252075,1.1158125400543213,0.4899125099182129,-0.1968999952077865,0,1
18,0.3668949902057647,0.4769020080566406,-4.79748010635376,0.74566251039505,0.7012500166893005,-0.2164250016212463,0,1
19,0.4860109984874725,0.6768860220909119,-6.144986152648926,0.2179374992847442,0.8258249759674072,-0.2641375064849853,0,1
20,0.4509409964084625,0.5942130088806152,-6.525746822357178,-0.4197874963283539,0.9077749848365784,-0.3471874892711639,0,1
21,0.3158569931983948,0.4660120010375976,-6.03490686416626,-1.0111750364303589,0.9065374732017516,-0.4254249930381775,0,1
22,0.2135329991579055,0.2837119996547699,-5.779032230377197,-1.4888499975204468,0.5363875031471252,-0.4852375090122223,0,1
23,0.8474779725074768,-0.3030500113964081,-7.201010227203369,-1.97504997253418,-0.1820500046014785,-0.5964750051498413,0,1
24,1.002668023109436,-0.5326520204544067,-9.77083969116211,-2.645775079727173,-0.8905875086784363,-0.7723374962806702,0,1
25,-0.1514710038900375,-0.9144229888916016,-13.060517311096191,-3.537600040435791,-1.1423499584197998,-0.8285750150680542,0,1
26,-1.1886390447616575,-2.0735950469970703,-15.15004539489746,-4.664000034332275,-0.8833000063896179,-0.677049994468689,0,1
27,-1.8448059558868408,-4.665501117706299,-14.04861068725586,-5.849112510681152,-0.3518624901771545,-0.3191374838352203,0,1
28,-2.3929429054260254,-7.1543731689453125,-12.79533576965332,-6.976749897003174,-0.1453374922275543,0.0584375001490116,0,1
29,-2.271328926086426,-9.203736305236816,-10.880626678466797,-7.989574909210205,-0.2602874934673309,0.3797749876976013,0,1
30,-2.814115047454834,-10.401169776916504,-5.130177974700928,-8.815400123596191,-0.6524375081062317,0.6448749899864197,0,1
31,-3.9654579162597656,-9.074798583984377,4.429288864135742,-9.191737174987791,-1.385450005531311,0.8892124891281128,0,1
32,-4.237709999084473,-6.400637149810791,13.250555992126465,-8.646824836730957,-1.9327000379562376,1.2740750312805176,0,1
33,-1.3209830522537231,-4.035200119018555,21.248289108276367,-6.999987602233887,-1.815412521362305,1.5794625282287598,0,1
34,1.535835027694702,-0.6817730069160461,25.197359085083008,-4.4686126708984375,-0.9933000206947328,1.4816999435424805,0,1
35,3.3348350524902344,-0.3977940082550049,23.47533416748047,-1.74171245098114,-0.0622874982655048,1.081025004386902,0,1
36,4.198709011077881,-0.8643749952316284,18.03493309020996,0.4720374941825866,0.103812500834465,0.5226374864578247,0,1
37,3.726254940032959,-1.3778510093688965,10.901942253112791,1.9441125392913816,-0.5571500062942505,0.0254375003278255,0,1
38,2.8663198947906494,-1.8331279754638672,3.959117889404297,2.6588375568389893,-1.527074933052063,-0.333712488412857,0,1
39,1.3177039623260498,-0.9473429918289183,-1.763288974761963,2.654025077819824,-2.190512418746948,-0.5120499730110168,0,1
40,0.2372059971094131,0.470986008644104,-5.1108717918396,2.082162380218506,-2.169749975204468,-0.4364250004291534,0,1
41,0.1363990008831024,1.258512020111084,-5.815721035003662,1.2355749607086182,-1.4355000257492063,-0.2238499969244003,0,1
42,0.4417330026626587,1.5612670183181765,-3.400279998779297,0.4475624859333038,-0.3078624904155731,-0.0210375003516674,0,1
43,0.6665340065956116,1.729617953300476,0.9415559768676758,0.0346499979496002,0.681725025177002,0.1011999994516372,0,1
44,0.3742510080337524,1.6706479787826538,4.31525182723999,0.1372250020503997,1.3756874799728394,0.1451999992132187,0,1
45,0.4548569917678833,1.2153069972991943,6.030538082122803,0.5856124758720398,1.6065499782562256,0.1695374995470047,0,1
46,0.784500002861023,0.6263949871063232,5.599689960479736,1.1378124952316284,1.3352625370025637,0.1512500047683715,0,1
47,1.5722919702529907,-0.0235489998012781,4.286541938781738,1.611912488937378,0.7037249803543091,0.0644875019788742,0,1
48,2.201067924499512,-0.2214570045471191,2.728912115097046,1.9478249549865725,-0.0109999999403953,-0.1088999956846237,0,1
49,2.365902900695801,-0.3572529852390289,1.439579963684082,2.184875011444092,-0.4923875033855438,-0.3141874969005584,0,1
50,2.425403118133545,-0.0567100010812282,1.3574399948120115,2.3082125186920166,-0.8185374736785889,-0.5340499877929688,0,1
51,1.4940919876098633,0.2148510068655014,0.5741469860076904,2.40473747253418,-0.8332499861717224,-0.7625749707221985,0,1
52,0.5302550196647644,0.0901319980621337,0.1683290004730224,2.4670250415802,-0.5704874992370605,-0.877387523651123,0,1
53,-0.620881974697113,0.1251959949731826,-0.1948589980602264,2.4804999828338623,-0.2065249979496002,-0.8541499972343445,0,1
54,-1.423470973968506,0.1708240061998367,-0.1851319968700409,2.4817373752593994,0.2345750033855438,-0.7088124752044678,0,1
55,-1.5065220594406128,0.2306459993124008,-0.2133350074291229,2.478024959564209,0.6646749973297119,-0.5035250186920166,0,1
56,-1.2023149728775024,-0.0453010015189647,-0.6359310150146484,2.5000250339508057,1.1031625270843506,-0.3191374838352203,0,1
57,-1.0566530227661133,-0.9490600228309632,-1.057453989982605,2.542787551879883,1.351212501525879,-0.1553750038146972,0,1
58,-0.7554559707641602,-1.6301419734954834,-2.0514559745788574,2.508549928665161,1.1141624450683594,0.0131999999284744,0,1
59,-0.3371399939060211,-1.7275429964065552,-3.8011651039123535,2.294874906539917,0.4496249854564667,0.1390125006437301,0,1
60,0.3056469857692718,-1.2723400592803955,-4.968112945556641,1.8647749423980715,-0.2358125001192093,0.1464374959468841,0,1
61,0.3919700086116791,-0.7490730285644531,-4.198872089385986,1.3271499872207642,-0.6157249808311462,0.0437249988317489,0,1
62,0.4873499870300293,-0.5533310174942017,-0.9834250211715698,0.9374749660491944,-0.5999125242233276,-0.0698499977588653,0,1
63,-0.2286159992218017,-0.3716129958629608,2.544433116912842,0.9436625242233276,-0.2296250015497207,-0.1370874941349029,0,1
64,-1.037317991256714,-0.6407020092010498,3.890072107315064,1.362625002861023,0.3188624978065491,-0.0833249986171722,0,1
65,-1.909011960029602,-0.7801470160484314,2.284543991088867,1.8097749948501587,0.742775022983551,0.0754875019192695,0,1
66,-1.488394021987915,-1.2297619581222534,-0.735683023929596,2.000349998474121,0.6755374670028687,0.3247750103473663,0,1
67,0.1712989956140518,-1.3502570390701294,-3.589263916015625,1.791487455368042,0.1991000026464462,0.4921124875545501,0,1
68,1.5613009929656982,-0.6027269959449768,-4.635441780090332,1.3028124570846558,-0.310337483882904,0.4151124954223633,0,1
69,2.0844480991363525,-0.2854019999504089,-4.467520236968994,0.7713750004768372,-0.5912500023841858,0.1647250056266784,0,1
70,1.5037970542907717,-0.394665002822876,-3.037177085876465,0.3315125107765198,-0.598675012588501,-0.0893749967217445,0,1
71,0.5814120173454285,-0.0537040010094642,-0.7535920143127441,0.0884125009179115,-0.4386250078678131,-0.2433750033378601,0,1
72,-0.6062059998512268,0.0177190005779266,0.596776008605957,0.113987497985363,-0.0940499976277351,-0.2739000022411346,0,1
73,-1.4099080562591553,-0.1898140013217926,0.6856669783592224,0.2557500004768371,0.2431000024080276,-0.1736624985933303,0,1
74,-1.6927030086517334,-0.1955399960279464,-0.1185010001063346,0.3485625088214874,0.46543750166893,0.0204875003546476,0,1
75,-0.9794279932975768,-0.3034079968929291,-1.256991982460022,0.3375625014305115,0.4422000050544739,0.2282499969005584,0,1
76,0.2455590069293975,-0.162320002913475,-2.3093650341033936,0.1689874976873397,0.2235749959945678,0.3052499890327453,0,1
77,0.8384659886360168,0.0722019970417022,-2.2687559127807617,-0.0618750005960464,0.0574750006198883,0.2392500042915344,0,1
78,0.773796021938324,0.0228429995477199,-1.1986490488052368,-0.2524499893188476,-0.058712501078844,0.1207249984145164,0,1
79,0.2521300017833709,0.0254820007830858,0.3523280024528503,-0.3172124922275543,-0.1430000066757202,0.0364375002682209,0,1
80,-0.1181290000677108,0.0230299998074769,1.3508169651031494,-0.20363749563694,-0.167337492108345,0.0351999998092651,0,1
81,-0.3173750042915344,0.1409679949283599,1.0640679597854614,0.0053624999709427,-0.1172875016927719,0.0694374963641166,0,1
82,-0.2385150045156479,0.2589769959449768,-0.074203997850418,0.1446499973535537,-0.0452375002205371,0.1269125044345855,0,1
83,0.3235799968242645,0.2538560032844543,-1.3244409561157229,0.1238875016570091,0.0257124993950128,0.1732500046491623,0,1
84,1.044638991355896,0.19963900744915,-2.077471971511841,-0.0240624994039535,0.1282874941825866,0.1549624949693679,0,1
85,1.2036819458007812,0.1092789992690086,-1.7638219594955444,-0.2194499969482422,0.246812492609024,0.077962502837181,0,1
86,0.72297602891922,0.1131760030984878,-0.6564990282058716,-0.3587374985218048,0.2968625128269195,0.0059124999679625,0,1
87,0.2165530025959015,0.0896020010113716,0.4806379973888397,-0.3782624900341034,0.2480500042438507,-0.0210375003516674,0,1
88,-0.1596039980649948,0.1336719989776611,1.1536979675292969,-0.2952125072479248,0.1368124932050705,-0.010037500411272,0,1
89,-0.1186299994587898,0.1097090020775795,1.0262140035629272,-0.160874992609024,0.0695749968290329,0.0461999997496604,0,1
90,0.1721130013465881,0.1411020010709762,0.5399860143661499,-0.054587498307228,0.1002374961972236,0.1072499975562095,0,1
91,0.4015350043773651,0.1870560050010681,0.1420879960060119,-0.0056374999694526,0.1893374919891357,0.1390125006437301,0,1
92,0.6542879939079285,0.1167669966816902,-0.0692929998040199,-0.0020624999888241,0.2272875010967254,0.1451999992132187,0,1
93,1.038043975830078,0.0488389991223812,-0.1560180038213729,-0.0228249989449977,0.2028124928474426,0.1097249984741211,0,1
94,1.1235690116882324,0.0622389987111091,0.0078980000689625,-0.0361624993383884,0.1478125005960464,0.022962499409914,0,1
95,0.9584929943084716,0.0987709984183311,0.1308320015668869,-0.0325874984264373,0.0562375001609325,-0.0759000033140182,0,1
96,0.441440999507904,0.1013149991631507,0.1318089962005615,-0.011824999935925,-0.0147124994546175,-0.1480875015258789,0,1
97,-0.0190489999949932,0.2185849994421005,0.0611720010638237,0.0016499999910593,-0.0525249987840652,-0.1553750038146972,0,1
98,-0.1417389959096908,0.2199960052967071,-0.2381999939680099,-0.0081124994903802,-0.0292875003069639,-0.1175625026226043,0,1
99,-0.1603579968214035,0.1486729979515075,-0.3621569871902466,-0.0411125011742115,0.0622874982655048,-0.0625625029206276,0,1
100,0.0279259998351335,0.107644997537136,0.2152789980173111,0.0151249999180436,-0.0928125008940696,-0.0320375002920627,1,1
101,-0.034170001745224,0.1249750033020973,0.2070299983024597,0.0444125011563301,-0.0452375002205371,-0.0356125012040138,1,1
102,-0.2131160050630569,0.1522459983825683,0.2291190028190612,0.0713625028729438,0.0085249999538064,-0.0233750008046627,1,1
103,-0.3113340139389038,0.1713439971208572,0.1939730048179626,0.0981749966740608,0.0342375002801418,0.0071499999612569,1,1
104,-0.1796839982271194,0.1599179953336715,0.094881996512413,0.115225002169609,0.0367125011980533,0.0461999997496604,1,1
105,0.0776380002498626,0.0209020003676414,-0.0756909996271133,0.1214125007390976,0.0415249988436698,0.0706750005483627,1,1
106,0.4036940038204193,0.0115250004455447,-0.189872995018959,0.1042250022292137,0.0390499979257583,0.0596750006079673,1,1
107,0.3559240102767944,0.0362889990210533,-0.0931529998779296,0.0713625028729438,-0.0012374999932944,0.0169124994426965,1,1
108,0.2407030016183853,0.07880300283432,0.1477990001440048,0.0603624992072582,-0.0439999997615814,-0.0173249989748001,1,1
109,0.2103060036897659,0.0909819975495338,0.3367210030555725,0.0736999958753585,-0.0720499977469444,-0.0405624993145465,1,1
110,-0.1415169984102249,0.0592780001461505,0.6567980051040649,0.1458874940872192,0.0195249989628791,-0.0538999997079372,1,1
111,-0.3242740035057068,0.0428700000047683,1.0199769735336304,0.2179374992847442,0.0500499978661537,-0.0246124994009733,1,1
112,-0.0983679965138435,-0.0355719998478889,1.0160620212554932,0.3267000019550323,0.0464750006794929,0.0071499999612569,1,1
113,0.3866469860076904,-0.0226799994707107,0.7375270128250122,0.4243249893188476,0.015812499448657,0.0009624999947845,1,1
114,0.6895909905433655,0.0295340009033679,0.2355799973011016,0.4855124950408935,-0.0072874999605119,-0.0613249987363815,1,1
115,0.6194149851799011,0.0562729984521865,-0.0283359996974468,0.5013250112533569,-0.0122375003993511,-0.1431374996900558,1,1
116,0.4155490100383758,0.1016900017857551,-0.2159779965877533,0.4768500030040741,-0.0072874999605119,-0.2201374918222427,1,1
117,0.1234330013394355,0.0749540030956268,-0.405936986207962,0.4365625083446502,0.0818125009536743,-0.2666124999523163,1,1
118,-0.1317220032215118,0.0910359993577003,-0.525763988494873,0.3889875113964081,0.2540999948978424,-0.281187504529953,1,1
119,-0.2822700142860412,0.0908470004796981,-1.0683540105819702,0.3217499852180481,0.476437509059906,-0.2739000022411346,1,1
120,-0.2727639973163605,0.0117159998044371,-1.7506059408187866,0.1984124928712844,0.6927250027656555,-0.2481874972581863,1,1
121,0.05579299852252,0.0106330001726746,-2.6224489212036133,-0.0020624999888241,0.8197749853134155,-0.2408999949693679,1,1
122,0.3607740104198456,-0.0166689995676279,-3.386784076690674,-0.2804999947547912,0.8845375180244446,-0.2884750068187713,1,1
123,0.3814199864864349,0.0755150020122528,-3.6445000171661377,-0.6055499911308289,0.9297749996185304,-0.3630000054836273,1,1
124,0.5166419744491577,0.0258130002766847,-4.454672813415527,-0.9464125037193298,0.9297749996185304,-0.466949999332428,1,1
125,0.8302500247955322,-0.2093890011310577,-5.529873847961426,-1.3508000373840332,0.8673499822616577,-0.5902875065803528,1,1
126,1.5688740015029907,-0.2774820029735565,-7.577855110168457,-1.8919999599456787,0.6914874911308289,-0.7808625102043152,1,1
127,1.839890956878662,-0.5452539920806885,-9.06107234954834,-2.62996244430542,0.4056249856948852,-1.01419997215271,1,1
128,1.1259119510650637,-1.1681090593338013,-10.178443908691406,-3.449737548828125,0.2492875009775161,-1.1694375276565552,1,1
129,-0.2338490039110183,-2.1144940853118896,-10.128217697143556,-4.219325065612793,0.3323374986648559,-1.1204874515533447,1,1
130,-0.8573639988899231,-3.395750045776367,-9.126347541809082,-4.907237529754639,0.3653374910354614,-0.9250999689102172,1,1
131,-0.6592879891395569,-4.310009002685547,-8.218109130859375,-5.546062469482422,0.0769999995827674,-0.7308124899864197,1,1
132,0.6130430102348328,-5.257820129394531,-7.163756847381592,-6.132500171661377,-0.4641999900341034,-0.602524995803833,1,1
133,1.2263669967651367,-6.003744125366211,-4.518901824951172,-6.589412689208984,-0.9933000206947328,-0.5927624702453613,1,1
134,0.2563120126724243,-5.985899925231934,0.7509840130805969,-6.808175086975098,-1.6615500450134275,-0.6562874913215637,1,1
135,-2.290903091430664,-4.339591026306152,8.683952331542969,-6.665174961090088,-2.61442494392395,-0.6830999851226807,1,1
136,-3.171303033828736,-2.092829942703247,15.870268821716309,-5.757537364959717,-3.1886250972747803,-0.4364250004291534,1,1
137,-2.218914031982422,-0.700842022895813,20.289817810058597,-3.917649984359741,-2.828237533569336,-0.2018499970436096,1,1
138,-1.858070015907288,-0.2432200014591217,19.79694366455078,-1.6219500303268433,-1.8496500253677368,-0.106562502682209,1,1
139,-1.9262449741363523,-0.1669889986515045,15.10729694366455,0.2827000021934509,-1.0396374464035034,-0.0038499999791383,1,1
140,-0.7457510232925415,-1.056378960609436,9.682331085205078,1.467674970626831,-0.7367249727249146,0.1170125007629394,1,1
141,-0.6352300047874451,-1.716377019882202,4.989025115966797,2.126162528991699,-0.7660124897956848,0.1867250055074691,1,1
142,-0.6393120288848877,-1.6693309545516968,0.0608239993453025,2.353450059890747,-0.8967750072479248,0.3394874930381775,1,1
143,-0.1234200000762939,-1.089624047279358,-4.020382881164551,2.0700623989105225,-0.9615374803543092,0.5068249702453613,1,1
144,0.4346800148487091,-0.2098059952259063,-6.473261833190918,1.3333375453948977,-0.808775007724762,0.6033499836921692,1,1
145,0.91703599691391,0.2477120012044906,-5.999217033386231,0.3950375020503998,-0.3506250083446502,0.6461125016212463,1,1
146,1.1144360303878784,0.5164470076560974,-2.3322970867156982,-0.3587374985218048,0.2675749957561493,0.6301624774932861,1,1
147,1.0299030542373655,0.7266309857368469,3.2335739135742188,-0.595787525177002,0.7525374889373779,0.5543999671936035,1,1
148,0.7152130007743835,1.2065249681472778,8.110228538513184,-0.243925005197525,0.9015874862670898,0.4285874962806701,1,1
149,0.9160919785499572,1.123218059539795,10.280285835266112,0.606374979019165,0.8405374884605408,0.2930124998092651,1,1
150,1.3136850595474243,0.8143770098686218,9.32020378112793,1.5861999988555908,0.5619624853134155,0.1024374961853027,1,1
151,1.0357539653778076,0.7981500029563904,6.478616237640381,2.3619749546051025,0.2540999948978424,-0.1138499975204467,1,1
152,0.4531649947166443,0.7297009825706482,3.36023497581482,2.827412366867065,0.1880999952554702,-0.2213750034570694,1,1
153,0.1921799927949905,0.6144959926605225,1.3072999715805054,3.033937454223633,0.4116750061511993,-0.2041874974966049,1,1
154,-0.0904579982161521,0.3229869902133941,0.0101560000330209,3.0816500186920166,0.7207750082015991,-0.1248499974608421,1,1
155,-0.0557890012860298,0.2734780013561249,-0.627357006072998,3.010699987411499,0.7917249798774719,-0.010037500411272,1,1
156,0.4700919985771179,0.2717570066452026,-0.5464730262756348,2.910599946975708,0.5779125094413757,0.0864875018596649,1,1
157,1.0166419744491575,0.0790110006928443,0.5379449725151062,2.886125087738037,0.3469125032424927,0.0571999996900558,1,1
158,0.4125359952449798,-0.0787819996476173,1.8172119855880735,3.063225030899048,0.40191251039505,-0.0270875003188848,1,1
159,-0.1801529973745346,-0.6661999821662903,2.8306329250335693,3.391849994659424,0.5106750130653381,-0.0453750006854534,1,1
160,0.2180339992046356,-1.3987690210342407,0.2311490029096603,3.7156624794006343,0.5571500062942505,-0.0210375003516674,1,1
161,0.9074990153312684,-2.3339710235595703,-3.668643951416016,3.7364249229431152,0.5974375009536743,-0.0087999999523162,1,1
162,0.9080299735069276,-2.4103949069976807,-6.426568984985352,3.333275079727173,0.4311999976634979,-0.0185624994337558,1,1
163,0.1365409940481186,-1.6650149822235107,-7.250117778778076,2.6503124237060547,-0.0439999997615814,-0.0393249988555908,1,1
164,-0.0349990017712116,-1.1086130142211914,-6.477541923522949,1.9062999486923216,-0.6022499799728394,-0.0515624992549419,1,1
165,0.2447869926691055,-0.8278489708900452,-5.8083271980285645,1.2685749530792236,-0.7990124821662903,-0.086899995803833,1,1
166,0.2907139956951141,-0.882053017616272,-4.802082061767578,0.7493749856948853,-0.5827249884605408,-0.1248499974608421,1,1
167,-0.1369059979915619,-0.6304219961166382,-3.146462917327881,0.3290374875068664,-0.210099995136261,-0.166374996304512,1,1
168,-0.8383730053901672,-0.5656700134277344,-1.251871943473816,0.1091749966144561,0.2186249941587448,-0.1358499974012375,1,1
169,-1.2669899463653564,-0.6235740184783936,0.2146860063076019,0.0736999958753585,0.4728625118732452,-0.0563750006258487,1,1
170,-1.3342020511627195,-0.6025890111923218,0.0358220003545284,0.1434125006198883,0.5216749906539917,0.0424874983727932,1,1
171,-0.6633750200271606,-0.7723119854927063,-0.8377209901809692,0.1531749963760376,0.3518624901771545,0.1121999993920326,1,1
172,-0.0883670002222061,-0.6250020265579224,-1.764955997467041,0.0383624993264675,0.0708125010132789,0.1011999994516372,1,1
173,0.0953700020909309,-0.5195580124855042,-2.1292850971221924,-0.1424500048160553,-0.135574996471405,0.0437249988317489,1,1
174,-0.1027889996767044,-0.383538007736206,-1.889309048652649,-0.3539249897003174,-0.2223374992609024,-0.0136124994605779,1,1
175,-0.4829199910163879,-0.4531979858875274,-0.9095110297203064,-0.5237374901771545,-0.2186249941587448,-0.0233750008046627,1,1
176,-0.669206976890564,-0.2318889945745468,1.054157018661499,-0.5725499987602234,-0.2003374993801117,-0.0038499999791383,1,1
177,-0.7514330148696899,-0.1891829967498779,2.3932199478149414,-0.390500009059906,-0.0684750005602836,0.0449624992907047,1,1
178,-0.6049529910087585,-0.3472689986228943,2.5339949131011963,-0.0703999996185302,0.0940499976277351,0.0926750004291534,1,1
179,-0.5121489763259888,-0.2428770065307617,1.2743580341339111,0.1849374920129776,0.1710499972105026,0.1194875016808509,1,1
180,-0.2681030035018921,-0.1450079977512359,-0.1982869952917099,0.2484624981880188,0.1625249981880188,0.1366750001907348,1,1
181,0.0223580002784729,-0.1959159970283508,-1.117514967918396,0.1567499935626983,0.0818125009536743,0.1366750001907348,1,1
182,0.0728830024600029,-0.0961560010910034,-1.0822930335998535,0.0004124999977648,-0.0134749999269843,0.1060125008225441,1,1
183,-0.0828019976615905,-0.0010440000332891,-0.332718014717102,-0.1143999993801117,-0.0818125009536743,0.0829124972224235,1,1
184,-0.1133740022778511,-0.0213229991495609,0.4286800026893616,-0.1278750002384185,-0.1245749965310096,0.0852499976754188,1,1
185,-0.0112829999998211,0.0747869983315467,0.6678810119628906,-0.0703999996185302,-0.1563374996185302,0.081675000488758,1,1
186,-0.0498920008540153,0.2225860059261322,0.3321239948272705,0.0028874999843537,-0.0977625027298927,0.0791999995708465,1,1
187,-0.0811820030212402,0.2617110013961792,-0.1834820061922073,0.0285999998450279,-0.0072874999605119,0.0926750004291534,1,1
188,0.0340779982507228,0.2522329986095428,-0.6332889795303345,-0.0166375003755092,0.0378125011920928,0.1060125008225441,1,1
189,0.197061002254486,0.2138179987668991,-0.5953580141067505,-0.0996875017881393,0.0402874983847141,0.0999625027179718,1,1
190,0.1421999931335449,0.2399840056896209,-0.1469659954309463,-0.1632124930620193,0.0317624993622303,0.0754875019192695,1,1
191,-0.0342289991676807,0.2029799968004226,0.3582159876823425,-0.1656875014305114,0.032999999821186,0.0681999996304512,1,1
192,-0.0910340026021003,0.1679040044546127,0.7066540122032166,-0.1193500012159347,-0.0085249999538064,0.0731500014662742,1,1
193,-0.129949003458023,0.2030750066041946,0.5780360102653503,-0.0496375001966953,-0.0488125011324882,0.0914374962449073,1,1
194,0.1252779960632324,0.1946360021829605,0.2538529932498932,-0.0020624999888241,-0.0402874983847141,0.113437496125698,1,1
195,0.3420479893684387,0.147035002708435,-0.0077390000224113,0.0175999999046325,0.0342375002801418,0.1170125007629394,1,1
196,0.5634559988975525,0.1188580021262168,-0.1003199964761734,0.0126499999314546,0.1197625026106834,0.1011999994516372,1,1
197,0.4948129951953888,0.0784789994359016,-0.1008090004324913,-0.0081124994903802,0.167337492108345,0.0632499977946281,1,1
198,0.2289689928293228,0.0817589983344078,0.173907995223999,-0.0215875003486871,0.1258125007152557,0.0291499998420476,1,1
199,0.0484649986028671,0.1597090065479278,0.5098699927330017,-0.0081124994903802,-0.0049499999731779,0.0156750008463859,1,1
200,0.1504340022802353,-0.0376259982585907,0.1447629928588867,0.0541750006377697,-0.0305249989032745,-0.0661375001072883,2,1
201,-0.1386779993772506,0.0104289995506405,0.0889339968562126,0.0664125010371208,0.0072874999605119,-0.0747999995946884,2,1
202,-0.3970620036125183,0.0294610001146793,0.0376590006053447,0.0676499977707862,0.0427624993026256,-0.0490874983370304,2,1
203,-0.2809860110282898,0.0005109999910928,-0.1307930052280426,0.0627000033855438,0.0585750006139278,-0.0075624999590218,2,1
204,-0.1624969989061355,0.0158200003206729,-0.1938640028238296,0.0516999997198581,0.0672374963760376,0.0241999998688697,2,1
205,0.0180159993469715,0.0037889999803155,-0.2660950124263763,0.0419375002384185,0.0659999996423721,0.048675000667572,2,1
206,0.3101750016212463,-0.0550360009074211,-0.2334399968385696,0.02364999987185,0.0439999997615814,0.0547249987721443,2,1
207,0.4174459874629974,-0.0694850012660026,-0.1724089980125427,0.0016499999910593,0.0244750007987022,0.0461999997496604,2,1
208,0.2043139934539795,-0.032320000231266,0.0905719995498657,-0.0141624994575977,0.032999999821186,0.0107249999418854,2,1
209,-0.0548390001058578,0.0017010000301524,0.2114779949188232,-0.0166375003755092,0.0415249988436698,-0.0307999998331069,2,1
210,-0.1477849930524826,0.0150769995525479,0.2425650060176849,0.0053624999709427,0.0292875003069639,-0.0405624993145465,2,1
211,-0.139614000916481,0.0346510000526905,0.1100360006093978,0.0346499979496002,0.0012374999932944,-0.0283249989151954,2,1
212,-0.1107309982180595,-0.0031000000890344,0.156917005777359,0.0614624992012977,-0.0097624994814395,-0.0087999999523162,2,1
213,-0.131520003080368,0.0147959999740123,0.3980790078639984,0.0761749967932701,-0.0109999999403953,0.0059124999679625,2,1
214,0.0884409993886947,-0.0729219987988472,0.4316059947013855,0.0956999957561492,-0.0122375003993511,0.0241999998688697,2,1
215,0.2473150044679641,-0.0942780002951622,0.3257229924201965,0.1372250020503997,-0.0268124993890523,0.0413874983787536,2,1
216,0.2717939913272857,-0.1219210028648376,0.1044870018959045,0.1714625060558319,-0.0464750006794929,0.0303875003010034,2,1
217,0.3040579855442047,-0.137264996767044,-0.0441330000758171,0.1984124928712844,-0.0488125011324882,0.0083875004202127,2,1
218,0.1294700056314468,-0.0631470009684562,0.0335960015654563,0.1934625059366226,-0.0354750007390975,-0.0148499999195337,2,1
219,0.0135559998452663,-0.0154339997097849,0.3962340056896209,0.1836999952793121,0.0060499999672174,-0.038087498396635,2,1
220,-0.1036290004849433,0.0308469999581575,0.8267620205879211,0.1861750036478042,0.0219999998807907,-0.0478499978780746,2,1
221,-0.0766270011663436,0.0623410008847713,1.1462080478668213,0.2312749922275543,0.0109999999403953,-0.0466125011444091,2,1
222,0.0232120007276535,0.050025999546051,0.9407190084457396,0.3229874968528747,-0.0427624993026256,-0.0453750006854534,2,1
223,0.0671179965138435,0.0870229974389076,0.1805620044469833,0.4390375018119812,-0.1185249984264373,-0.0563750006258487,2,1
224,0.01386300008744,0.1925960034132003,-0.9041039943695068,0.5282750129699707,-0.1343374997377395,-0.0735625028610229,2,1
225,-0.0540199987590312,0.1270759999752044,-1.9611860513687132,0.5306124687194824,-0.0525249987840652,-0.0820875018835067,2,1
226,0.0370500013232231,0.1550959944725036,-2.877588987350464,0.4170374870300293,0.1405249983072281,-0.0796125009655952,2,1
227,0.3465589880943298,0.0864389985799789,-3.8398470878601074,0.2032250016927719,0.3469125032424927,-0.0648999959230423,2,1
228,0.7028030157089233,-0.0220689997076988,-5.398557186126709,-0.0851124972105026,0.4911499917507171,-0.0796125009655952,2,1
229,0.8013020157814026,-0.0570590011775493,-6.466689109802246,-0.4675000011920929,0.5253875255584717,-0.1566125005483627,2,1
230,0.5013759732246399,0.126920998096466,-6.560834884643555,-0.9916499853134156,0.4276250004768371,-0.270187497138977,2,1
231,0.6827489733695984,-0.2326740026473999,-6.866675853729248,-1.5951374769210815,0.2883374989032745,-0.403425008058548,2,1
232,0.8562589883804321,-0.7572709918022156,-8.390731811523438,-2.177862405776977,0.1430000066757202,-0.5207124948501587,2,1
233,1.4247020483016968,-1.8479779958724976,-10.825983047485352,-2.752062559127808,0.1551000028848648,-0.5744749903678894,2,1
234,1.34450101852417,-3.2859580516815186,-11.86777114868164,-3.449737548828125,0.3128125071525574,-0.6000499725341797,2,1
235,-0.0958250015974044,-4.304093837738037,-10.8423433303833,-4.39766263961792,0.273624986410141,-0.6538124680519104,2,1
236,-1.1044069528579712,-5.072114944458008,-8.161846160888672,-5.416675090789795,0.1722874939441681,-0.7210500240325928,2,1
237,-1.6128569841384888,-5.663559913635254,-4.395902156829834,-6.276737689971924,-0.0659999996423721,-0.6367624998092651,2,1
238,-2.1189489364624023,-5.290853977203369,-0.2248149961233139,-6.8362250328063965,-0.3763374984264374,-0.4399999976158142,2,1
239,-1.5008089542388916,-4.141965866088867,3.4730300903320312,-6.970699787139893,-0.6987749934196472,-0.2054249942302703,2,1
240,-0.6810709834098816,-2.853389024734497,6.759667873382568,-6.683599948883057,-1.088587522506714,0.0096249999478459,2,1
241,-0.2231269925832748,-1.4193459749221802,10.719098091125488,-6.089737415313721,-1.2546875476837158,0.1182499974966049,2,1
242,-1.097064971923828,0.3543330132961273,15.40984344482422,-5.233387470245361,-1.0653499364852903,0.0657249987125396,2,1
243,-1.6191869974136353,0.8997290134429932,18.286773681640625,-4.047037601470947,-0.6206749677658081,-0.0673749968409538,2,1
244,-0.6050480008125305,0.3336769938468933,17.112258911132812,-2.444200038909912,-0.3836250007152557,-0.0735625028610229,2,1
245,0.2753730118274688,0.056292999535799,12.152142524719238,-0.6628875136375427,-0.7477250099182129,-0.0283249989151954,2,1
246,0.6652309894561768,-0.1378899961709976,6.264854907989502,0.8531875014305115,-1.4587374925613403,-0.0723249986767768,2,1
247,0.5266479849815369,-0.2595610022544861,2.4675710201263428,1.7632999420166016,-1.997462511062622,-0.1308999955654144,2,1
248,0.4446659982204437,0.0946680009365081,0.0882780030369758,2.0700623989105225,-2.142937421798706,-0.1566125005483627,2,1
249,0.6851459741592407,0.0953750014305114,0.2104649990797042,2.024825096130371,-1.7824125289916992,-0.1003749966621398,2,1
250,0.9536290168762208,0.2870779931545257,1.3088730573654177,1.8232499361038208,-1.056825041770935,0.0254375003278255,2,1
251,0.9597769975662231,0.7265380024909973,3.0629870891571045,1.6277250051498413,-0.3763374984264374,0.1049124971032142,2,1
252,0.9785580039024352,0.8714789748191833,4.872076988220215,1.620437502861023,0.2870999872684479,0.1402499973773956,2,1
253,1.2481859922409058,0.7706239819526672,5.666192054748535,1.7927249670028689,0.7110124826431274,0.1366750001907348,2,1
254,2.1674280166625977,0.4254409968852997,6.300384044647217,2.132349967956543,0.8760125041007996,0.1049124971032142,2,1
255,2.309597969055176,0.3673950135707855,5.708826065063477,2.557499885559082,0.7892500162124634,-0.0197999998927116,2,1
256,2.205375909805298,0.1113959997892379,3.962240934371948,3.0717499256134038,0.6841999888420105,-0.2336124926805496,2,1
257,1.7191309928894043,0.028261000290513,1.9233759641647337,3.56784987449646,0.6951999664306641,-0.4327124953269958,2,1
258,1.19678795337677,-0.3158619999885559,0.3294329941272735,3.870762586593628,0.7537750005722046,-0.5744749903678894,2,1
259,0.4074519872665405,-0.5684890151023865,0.0373749993741512,3.977050065994263,0.9150624871253968,-0.6355249881744385,2,1
260,-0.042578000575304,-1.013550043106079,0.282719999551773,3.9489998817443848,0.9944000244140624,-0.6380000114440918,2,1
261,-0.3003759980201721,-1.6205229759216309,-1.0068960189819336,3.9452874660491934,0.8662499785423279,-0.5450500249862671,2,1
262,-0.0812119990587234,-2.0521960258483887,-3.7623159885406494,3.991762399673462,0.7147250175476074,-0.4241875112056732,2,1
263,0.0981789976358413,-1.9730349779129028,-6.281734943389893,3.897712469100952,0.6634374856948853,-0.2897124886512756,2,1
264,-0.1707019954919815,-1.3792359828948977,-7.091182231903076,3.47008752822876,0.4581499993801117,-0.1724250018596649,2,1
265,-0.3956060111522674,-0.7979459762573242,-4.859911918640137,2.754124879837036,0.1135749965906143,-0.134612500667572,2,1
266,-0.8266400098800659,-0.6564710140228271,-1.7002170085906982,1.9967750310897827,-0.2980999946594238,-0.1566125005483627,2,1
267,-0.8271700143814087,-0.8719300031661987,0.4563409984111786,1.555675029754639,-0.5119125247001648,-0.1736624985933303,2,1
268,-0.8755599856376648,-0.8898569941520691,-0.4597989916801452,1.5446749925613403,-0.5669124722480774,-0.1528999954462051,2,1
269,-1.4456809759140017,-0.6345250010490417,-2.99810004234314,1.682724952697754,-0.5693874955177307,-0.1480875015258789,2,1
270,-1.413620948791504,-0.532194972038269,-4.900903224945068,1.6644375324249268,-0.2870999872684479,-0.0955625027418136,2,1
271,-1.0050979852676392,-0.4942089915275574,-5.272393226623535,1.3210999965667725,0.0708125010132789,0.0389125011861324,2,1
272,-0.6150360107421875,-0.4334549903869629,-3.9542179107666016,0.7749499678611755,0.3983374834060669,0.1574375033378601,2,1
273,-0.4758780002593994,-0.43818199634552,-2.095798969268799,0.2630375027656555,0.5961999893188477,0.2135374993085861,2,1
274,-0.6355209946632385,-0.3171550035476684,-0.3696010112762451,-0.0753500014543533,0.5424374938011169,0.2001999914646148,2,1
275,-0.5049819946289062,-0.2907989919185638,1.0758709907531738,-0.1949750036001205,0.3225750029087066,0.1610125005245208,2,1
276,-0.5271689891815186,-0.3060309886932373,1.3760149478912354,-0.1461624950170517,0.0012374999932944,0.1304875016212463,2,1
277,-0.4160569906234741,-0.318132996559143,0.8502370119094849,0.0285999998450279,-0.2723875045776367,0.0962499976158142,2,1
278,-0.3129410147666931,-0.133990004658699,-0.1412750035524368,0.2276999950408935,-0.3713875114917755,0.076724998652935,2,1
279,-0.4262380003929138,-0.0414349995553493,-0.8887280225753784,0.332749992609024,-0.3225750029087066,0.0632499977946281,2,1
280,-0.6050909757614136,-0.007224999833852,-1.2354990243911743,0.3375625014305115,-0.1417624950408935,0.0609125010669231,2,1
281,-0.4072839915752411,0.0414890013635158,-1.8656569719314573,0.2619374990463257,0.0049499999731779,0.080437496304512,2,1
282,0.019540000706911,0.1368390023708343,-2.2412590980529785,0.1359875053167343,0.0769999995827674,0.1207249984145164,2,1
283,0.0983370020985603,0.2695580124855041,-1.823022961616516,-0.0483999997377395,0.1013374999165535,0.1329624950885772,2,1
284,-0.1429010033607483,0.27674600481987,-0.622393012046814,-0.2487374991178512,0.1025749966502189,0.1036750003695488,2,1
285,-0.5524590015411377,0.216618999838829,0.5227910280227661,-0.3770250082015991,0.075762502849102,0.0719124972820282,2,1
286,-0.6742129921913147,0.2315900027751922,1.0662879943847656,-0.3734500110149383,0.0549999997019767,0.0852499976754188,2,1
287,-0.4582929909229278,0.301391988992691,0.8961700201034546,-0.2451625019311905,0.0415249988436698,0.1500124931335449,2,1
288,-0.067221999168396,0.3521060049533844,0.3897570073604584,-0.0801625028252601,0.0147124994546175,0.2147749960422516,2,1
289,0.4568069875240326,0.2954129874706268,-0.268528014421463,0.0444125011563301,0.0049499999731779,0.2514874935150146,2,1
290,0.6613079905509949,0.3028819859027862,-0.8681809902191162,0.1042250022292137,0.0317624993622303,0.2477750033140182,2,1
291,0.6945930123329163,0.3902589976787567,-1.0806260108947754,0.0944624990224838,0.0855249986052513,0.2062499970197677,2,1
292,0.5766239762306213,0.3628489971160888,-0.9375060200691224,0.0211750008165836,0.0952875018119812,0.1487749963998794,2,1
293,0.2995100021362304,0.3329750001430511,-0.5317299962043762,-0.0753500014543533,0.0549999997019767,0.0852499976754188,2,1
294,0.0445149987936019,0.4043349921703338,-0.1800210028886795,-0.1412124931812286,0.0195249989628791,0.0401500016450881,2,1
295,-0.1700160056352615,0.4133709967136383,-0.0038840000052005,-0.164450004696846,-0.0232375003397464,0.0169124994426965,2,1
296,-0.2422100007534027,0.3909839987754822,0.0726789981126785,-0.1559250056743621,-0.0305249989032745,0.022962499409914,2,1
297,-0.1681350022554397,0.3592999875545501,0.0501779988408088,-0.1254000067710876,-0.0060499999672174,0.0511500015854835,2,1
298,0.149275004863739,0.2959130108356476,0.1196800023317337,-0.0948750004172325,0.053762499243021,0.0950125008821487,2,1
299,0.4183390140533447,0.2025910019874572,0.2081229984760284,-0.0728750005364418,0.1440999954938888,0.1256749927997589,2,1
300,-0.0239070001989603,-0.0129479998722672,0.4662910103797912,-0.0496375001966953,0.1245749965310096,0.0083875004202127,3,1
301,0.0580530017614364,-0.0004149999876972,0.3233540058135986,-0.0276375003159046,0.0855249986052513,0.0107249999418854,3,1
302,0.2091030031442642,0.0250320006161928,-0.0080080004408955,0.0248875003308057,0.0060499999672174,0.022962499409914,3,1
303,0.2792420089244842,-0.0066639999859035,-0.368490993976593,0.0701249986886978,-0.0842875018715858,0.0193875003606081,3,1
304,0.0764750018715858,0.0328230001032352,-0.4655219912528991,0.0932250022888183,-0.1575749963521957,0.002199999988079,3,1
305,-0.1572020053863525,0.0856690034270286,-0.2316779941320419,0.0786499977111816,-0.1649999916553497,-0.025849999859929,3,1
306,-0.3828079998493194,0.0494779981672763,0.2967230081558227,0.0383624993264675,-0.1062875017523765,-0.0515624992549419,3,1
307,-0.428521990776062,0.0644130036234855,0.8086130023002625,-0.009349999949336,-0.0378125011920928,-0.0466125011444091,3,1
308,-0.1658190041780471,0.1468310058116912,0.941133975982666,-0.0338249988853931,0.0072874999605119,-0.0295624993741512,3,1
309,0.0403980016708374,0.2211389988660812,0.7141799926757812,0.0041249999776482,0.0257124993950128,0.0096249999478459,3,1
310,0.2390010058879852,0.1855079978704452,0.6088640093803406,0.0834624990820884,0.0012374999932944,0.0401500016450881,3,1
311,0.1529809981584549,0.193340003490448,0.9834780097007751,0.1629374921321869,-0.0354750007390975,0.0351999998092651,3,1
312,0.1034080013632774,0.0151899997144937,0.991936981678009,0.2081750035285949,-0.058712501078844,0.0071499999612569,3,1
313,0.2233240008354187,-0.0365209989249706,0.5743899941444397,0.2399374991655349,-0.0672374963760376,-0.0368499979376792,3,1
314,0.2342070043087005,-0.0412929989397525,-0.2112859934568405,0.3217499852180481,-0.0402874983847141,-0.055137500166893,3,1
315,0.3280250132083893,-0.1476330012083053,-1.2915899753570557,0.3815625011920929,0.0024749999865889,-0.0735625028610229,3,1
316,0.2020410001277923,-0.2049739956855774,-2.1968319416046143,0.3840374946594238,0.0684750005602836,-0.1076624989509582,3,1
317,0.1647049933671951,-0.1839569956064224,-2.966924905776977,0.296037495136261,0.2186249941587448,-0.1383250057697296,3,1
318,0.3328050076961517,-0.21076600253582,-3.892976045608521,0.1067000031471252,0.4336749911308288,-0.1566125005483627,3,1
319,0.5706340074539185,-0.4298779964447021,-4.634550094604492,-0.1546874940395355,0.6719624996185303,-0.1724250018596649,3,1
320,1.0308640003204346,-0.6326720118522644,-5.275854110717773,-0.4907374978065491,0.7953000068664551,-0.2139499932527542,3,1
321,1.6444679498672483,-0.8300179839134216,-6.269381999969482,-0.9036499857902528,0.7464874982833862,-0.2836624979972839,3,1
322,2.0968849658966064,-1.304097056388855,-8.773386001586914,-1.370324969291687,0.6267250180244446,-0.3826625049114227,3,1
323,1.723518967628479,-1.717371940612793,-11.679357528686523,-1.896812438964844,0.4300999939441681,-0.5755749940872192,3,1
324,0.7117980122566223,-2.708806037902832,-12.108524322509766,-2.51143741607666,0.3091000020503998,-0.7943375110626221,3,1
325,-1.2298280000686646,-3.8948960304260254,-10.690131187438965,-3.3360249996185303,0.4214375019073486,-0.9836750030517578,3,1
326,-1.8746529817581177,-4.961751937866211,-8.9973726272583,-4.336612701416016,0.7720624804496765,-1.0911999940872192,3,1
327,-1.951177954673767,-5.7994561195373535,-6.592625141143799,-5.328674793243408,0.8392999768257141,-1.03496253490448,3,1
328,-1.5007339715957642,-6.080169200897217,-3.261054039001465,-6.171687602996826,0.4886749982833862,-0.8188124895095825,3,1
329,-1.3248679637908936,-5.555788993835449,1.1385469436645508,-6.837462425231934,-0.0464750006794929,-0.5402374863624573,3,1
330,-2.2435359954833984,-3.752597093582153,6.700448036193848,-7.201562404632568,-0.6242499947547913,-0.2983750104904175,3,1
331,-3.224721908569336,-0.9819329977035522,12.99075412750244,-7.157562255859375,-1.0775874853134155,-0.1528999954462051,3,1
332,-3.339988946914673,0.5559599995613098,17.45972442626953,-6.652937412261963,-1.3561625480651855,-0.0686125010251998,3,1
333,-2.2101809978485107,0.8723919987678528,17.951656341552734,-5.702537536621094,-1.5894999504089355,0.0499125011265277,3,1
334,-0.568244993686676,0.5362079739570618,15.02993869781494,-4.300037384033203,-1.7983624935150146,0.1904374957084655,3,1
335,0.8856469988822937,-0.1245379969477653,9.523818969726562,-2.53220009803772,-1.7115999460220337,0.2782999873161316,3,1
336,1.8408939838409424,-1.043931007385254,3.3236958980560303,-0.7253124713897705,-1.3744499683380127,0.3210625052452087,3,1
337,1.9667340517044067,-1.3060959577560425,-1.3655869960784912,0.6601374745368958,-1.1948750019073486,0.2782999873161316,3,1
338,1.3812600374221802,-0.7878990173339844,-3.627849102020264,1.3480499982833862,-1.2839750051498413,0.1695374995470047,3,1
339,0.77401202917099,-0.155127003788948,-2.932981014251709,1.3943874835968018,-1.393975019454956,0.0669625028967857,3,1
340,0.2898440062999725,0.5359669923782349,0.4103649854660034,0.9875249862670898,-1.2949750423431396,0.0609125010669231,3,1
341,-0.0699750036001205,1.1415669918060305,4.683075904846191,0.3767499923706054,-0.9235875010490416,0.1439625024795532,3,1
342,0.4280059933662414,1.3021670579910278,8.546703338623047,-0.1106875017285347,-0.3493874967098236,0.2490125000476837,3,1
343,0.9003990292549133,1.253054976463318,10.255789756774902,-0.1656875014305114,0.3139125108718872,0.3712500035762787,3,1
344,1.488021969795227,0.7854639887809753,10.967839241027832,0.2191749960184097,0.7269625067710876,0.450587511062622,3,1
345,1.5385489463806152,0.3562589883804321,10.11831283569336,0.9839500188827516,1.0335874557495115,0.453062504529953,3,1
346,1.876935958862305,-0.4112710058689117,8.152806282043457,1.9062999486923216,1.1044000387191772,0.3528249859809875,3,1
347,2.481208086013794,-0.9269620180130004,6.07206392288208,2.7700750827789307,0.7477250099182129,0.1476749926805496,3,1
348,1.963119983673096,-0.6407240033149719,3.566041946411133,3.539662599563598,0.3066250085830688,-0.0466125011444091,3,1
349,1.3611489534378052,-0.4685089886188507,2.659359931945801,4.137099742889404,-0.0695749968290329,-0.2371875047683715,3,1
350,0.5869899988174438,-0.271820992231369,2.446805953979492,4.585487365722656,-0.0622874982655048,-0.4314749836921692,3,1
351,0.0851019993424415,-1.4655189514160156,2.828087091445923,4.842062473297119,0.215049996972084,-0.5402374863624573,3,1
352,-0.8911970257759094,-2.442720890045166,3.415724039077759,4.97763729095459,0.5484874844551086,-0.5414749979972839,3,1
353,-0.2320709973573684,-3.6249499320983887,1.8649940490722656,5.163400173187256,0.944350004196167,-0.4510000050067901,3,1
354,1.422677993774414,-4.838092803955078,-0.9914720058441162,5.427262306213379,1.17645001411438,-0.2849000096321106,3,1
355,1.9473789930343628,-4.799657821655273,-4.321670055389404,5.758362293243408,1.255924940109253,0.0009624999947845,3,1
356,1.743548035621643,-3.6949989795684814,-7.2626261711120605,5.922124862670898,1.081162452697754,0.2087250053882599,3,1
357,1.2619249820709229,-2.2821290493011475,-9.132275581359863,5.744887351989746,0.6327750086784363,0.2087250053882599,3,1
358,0.668287992477417,-1.1137700080871582,-10.473358154296877,5.202449798583984,-0.107524998486042,0.0901999995112419,3,1
359,-0.4037869870662689,-0.5942090153694153,-9.07486629486084,4.321624755859375,-1.136162519454956,-0.0991374999284744,3,1
360,-1.7457950115203855,-0.0639149993658065,-6.5440168380737305,3.294224977493286,-1.8789374828338623,-0.3471874892711639,3,1
361,-2.350713968276977,-0.4408619999885559,-4.497186183929443,2.233687400817871,-2.008462429046631,-0.550000011920929,3,1
362,-2.6998369693756104,-0.7420269846916199,-4.18894100189209,1.366337537765503,-1.5442625284194946,-0.554812490940094,3,1
363,-2.7312099933624268,-0.5546240210533142,-4.3249688148498535,0.8702374696731567,-0.5289624929428101,-0.3704249858856201,3,1
364,-1.918647050857544,-0.4638949930667877,-3.8539888858795166,0.5953750014305115,0.65972501039505,-0.091849997639656,3,1
365,-0.6115739941596985,-0.5544779896736145,-2.3138349056243896,0.271699994802475,1.5455000400543213,0.2123000025749206,3,1
366,0.7711510062217712,-0.5783349871635437,-0.7008190155029297,-0.1376374959945678,1.814175009727478,0.4151124954223633,3,1
367,1.159749984741211,-0.1895979940891266,0.3367080092430115,-0.454025000333786,1.5455000400543213,0.4738250076770782,3,1
368,0.640425980091095,-0.073801003396511,0.487430989742279,-0.5665000081062317,0.9235875010490416,0.3602499961853027,3,1
369,-0.6476770043373108,-0.256072998046875,0.5995320081710815,-0.4845499992370605,0.2040500044822693,0.1060125008225441,3,1
370,-1.6521450281143188,-0.1086150035262107,0.4695090055465698,-0.3111625015735626,-0.3726249933242798,-0.1504250019788742,3,1
371,-1.9154930114746092,-0.1343570053577423,-0.245615005493164,-0.1583999991416931,-0.6890124678611755,-0.2946625053882599,3,1
372,-1.4385709762573242,-0.152660995721817,-1.2648040056228638,-0.0056374999694526,-0.742775022983551,-0.2531374990940094,3,1
373,-0.8837249875068665,-0.033645998686552,-2.024394989013672,0.1287000030279159,-0.5094375014305115,-0.088137499988079,3,1
374,-0.2831909954547882,-0.0298089999705553,-2.053049087524414,0.1592250019311905,-0.1270499974489212,0.0877249985933303,3,1
375,0.1479520052671432,-0.1369149982929229,-1.7093420028686523,0.0701249986886978,0.2798124849796295,0.2209624946117401,3,1
376,0.0999220013618469,0.0199079997837543,-0.9265289902687072,-0.1143999993801117,0.5264874696731567,0.2747249901294708,3,1
377,-0.1875880062580108,0.2510679960250854,-0.3117110133171081,-0.2939749956130981,0.5924875140190125,0.2637250125408172,3,1
378,-0.4432410001754761,0.2509349882602691,0.1145529970526695,-0.4185499846935272,0.4641999900341034,0.2172500044107437,3,1
379,-0.4518589973449707,0.3789629936218261,0.4938830137252807,-0.4602124989032745,0.1600500047206878,0.1695374995470047,3,1
380,-0.1057519987225532,0.3217079937458038,0.508188009262085,-0.427212506532669,-0.1783374994993209,0.1574375033378601,3,1
381,0.3042060136795044,0.256864994764328,0.14130899310112,-0.3489750027656555,-0.4178625047206878,0.1707749962806701,3,1
382,0.5890880227088928,0.2944389879703522,-0.2833040058612823,-0.2304500043392181,-0.4300999939441681,0.1989624947309494,3,1
383,0.5845280289649963,0.33924600481987,-0.6937119960784912,-0.1181124970316886,-0.2358125001192093,0.2087250053882599,3,1
384,0.3722389936447143,0.3124170005321502,-0.6624090075492859,-0.0593999996781349,0.0109999999403953,0.1817750036716461,3,1
385,0.175365000963211,0.2935220003128052,-0.6083109974861145,-0.0716374963521957,0.1868624985218048,0.1329624950885772,3,1
386,0.0472539998590946,0.2956719994544983,-0.511601984500885,-0.1339250057935714,0.2492875009775161,0.081675000488758,3,1
387,-0.02785399928689,0.2906689941883087,-0.6300119757652283,-0.1913999915122985,0.2003374993801117,0.0461999997496604,3,1
388,0.0367279984056949,0.2526029944419861,-0.4823459982872009,-0.2414499968290329,0.1062875017523765,0.0254375003278255,3,1
389,0.0633239969611167,0.2723020017147064,0.2842899858951568,-0.2854500114917755,0.0012374999932944,0.0204875003546476,3,1
390,0.0338689982891082,0.1733150035142898,1.114446043968201,-0.3392125070095062,-0.0477125011384487,0.0193875003606081,3,1
391,-0.1568930000066757,0.1375990062952041,1.385537028312683,-0.3722124993801117,-0.0268124993890523,0.0181499999016523,3,1
392,-0.4701519906520843,0.2634460031986236,1.1459590196609497,-0.3086875081062317,0.0647625029087066,0.0156750008463859,3,1
393,-0.3302859961986542,0.2544459998607635,0.474833995103836,-0.1596374958753585,0.1893374919891357,0.0254375003278255,3,1
394,0.0376919992268085,0.1939270049333572,-0.0819339975714683,-0.0203499998897314,0.2590500116348266,0.0694374963641166,3,1
395,0.4591889977455139,0.2125220000743866,-0.4263190031051636,0.0627000033855438,0.2761000096797943,0.1304875016212463,3,1
396,0.8039860129356384,0.248211994767189,-0.5112109780311584,0.0749375000596046,0.2528625130653381,0.1707749962806701,3,1
397,0.7779859900474548,0.2350820004940033,-0.3443430066108703,0.0334125012159347,0.1478125005960464,0.1659625023603439,3,1
398,0.4301390051841736,0.2407770007848739,-0.0258659999817609,-0.0338249988853931,0.0182875003665685,0.1072499975562095,3,1
399,-0.1292880028486251,0.2709349989891052,0.2654300034046173,-0.0875874981284141,-0.0659999996423721,0.022962499409914,3,1
400,-0.0973450019955635,-0.0087130004540085,0.4443089962005615,0.0186999998986721,-0.0452375002205371,-0.0320375002920627,4,1
401,0.0644629970192909,-0.0687260031700134,0.3139339983463287,0.0358874984085559,0.0415249988436698,0.0119624994695186,4,1
402,0.0739929974079132,-0.0209529995918273,0.2421939969062805,0.0688875019550323,0.0940499976277351,0.0413874983787536,4,1
403,-0.0222420003265142,0.0061090001836419,0.3972170054912567,0.0969374999403953,0.1220999956130981,0.0461999997496604,4,1
404,-0.2141450047492981,0.0489600002765655,0.5320990085601807,0.1116499975323677,0.0892374962568283,0.0364375002682209,4,1
405,-0.2945170104503631,0.0571379996836185,0.5667930245399475,0.122649997472763,0.0072874999605119,0.0193875003606081,4,1
406,-0.2497970014810562,0.0817449986934661,0.502236008644104,0.1604624986648559,-0.0928125008940696,0.0169124994426965,4,1
407,-0.0267619993537664,0.0737349987030029,0.2596639990806579,0.2129874974489212,-0.1857624948024749,0.0291499998420476,4,1
408,0.017740000039339,0.1908250004053115,0.242808997631073,0.2557500004768371,-0.2418625056743621,0.0474375002086162,4,1
409,0.0644820034503936,0.1335330009460449,0.0233999993652105,0.2947999835014343,-0.1991000026464462,0.0632499977946281,4,1
410,0.1429940015077591,0.1225470006465911,-0.1687040030956268,0.3167999982833862,-0.1270499974489212,0.0644875019788742,4,1
411,0.1971510052680969,0.225160002708435,-0.2163480073213577,0.3278000056743622,-0.0647625029087066,0.0719124972820282,4,1
412,0.3320060074329376,0.2205580025911331,-0.1012559980154037,0.3205125033855438,-0.0354750007390975,0.0694374963641166,4,1
413,0.4719519913196563,0.1573300063610077,-0.0850400030612945,0.2947999835014343,-0.0500499978661537,0.0571999996900558,4,1
414,0.5709429979324341,0.2025080025196075,-0.2012600004673004,0.2777499854564667,-0.0855249986052513,0.0351999998092651,4,1
415,0.5834500193595886,0.065210998058319,-0.8883730173110962,0.2729375064373016,-0.1233374997973442,-0.0075624999590218,4,1
416,0.476419985294342,0.0869899988174438,-1.6553970575332642,0.2789874970912933,-0.135574996471405,-0.0673749968409538,4,1
417,0.2943420112133026,0.1833759993314743,-2.287900924682617,0.2642749845981598,-0.075762502849102,-0.1260875016450882,4,1
418,0.3966880142688751,0.044319998472929,-2.9697999954223637,0.1799875050783157,0.0427624993026256,-0.1871374994516372,4,1
419,0.4272310137748718,-0.001101000001654,-3.392327070236206,0.0211750008165836,0.1918125003576278,-0.2213750034570694,4,1
420,0.3307119905948639,-0.0479490011930465,-3.816107988357544,-0.1754499971866607,0.4190999865531921,-0.2421374917030334,4,1
421,0.3325810134410858,-0.2656149864196777,-4.183308124542236,-0.4247374832630157,0.65972501039505,-0.2751374840736389,4,1
422,0.424358993768692,-0.5212739706039429,-4.922207832336426,-0.7081249952316284,0.8368250131607056,-0.317900002002716,4,1
423,0.7713040113449097,-0.7435029745101929,-6.189977169036865,-1.0282249450683594,0.8575875163078308,-0.3630000054836273,4,1
424,0.7816449999809265,-1.0415430068969729,-8.233154296875,-1.3935624361038208,0.817300021648407,-0.4265249967575073,4,1
425,0.6093019843101501,-1.8301420211791992,-10.239580154418944,-1.8492374420166016,0.7317749857902527,-0.5010499954223633,4,1
426,-0.326880007982254,-2.395373106002808,-11.151100158691406,-2.435674905776977,0.7917249798774719,-0.5902875065803528,4,1
427,-1.8217769861221316,-3.457037925720215,-10.559860229492188,-3.185737371444702,0.9725375175476074,-0.6465250253677368,4,1
428,-1.4530960321426392,-5.10790491104126,-9.600364685058594,-4.115512371063232,0.9688249826431274,-0.6868125200271606,4,1
429,-0.6201050281524658,-6.549004077911377,-7.914415836334228,-5.080625057220459,0.5692499876022339,-0.6208124756813049,4,1
430,-0.0737060010433197,-7.4462690353393555,-6.0105881690979,-5.994450092315674,-0.2895750105381012,-0.4204750061035156,4,1
431,0.4166449904441833,-8.158285140991211,-3.772653102874756,-6.777649879455566,-1.1301125288009644,-0.2556124925613403,4,1
432,-0.0170750003308057,-7.373631954193115,0.3995819985866546,-7.311562538146973,-1.7213624715805054,-0.0943249985575676,4,1
433,-1.3541029691696167,-4.705366134643555,7.557154178619385,-7.591237545013428,-1.9999375343322756,0.0474375002086162,4,1
434,-3.949770927429199,0.1351049989461898,24.30659294128418,-7.581474781036377,-1.9071249961853027,0.1084875017404556,4,1
435,-3.787786960601807,0.863976001739502,27.371686935424805,-7.152612686157227,-1.6945500373840332,0.1207249984145164,4,1
436,-3.3152849674224854,0.4708169996738434,24.232311248779297,-6.199737548828125,-1.644362449645996,0.1244374960660934,4,1
437,-2.4250359535217285,-0.4078019857406616,16.030044555664062,-4.503950119018555,-1.6468374729156494,0.1671999990940094,4,1
438,-0.2620590031147003,-1.9127960205078125,6.564781188964844,-1.987287521362305,-1.4294500350952148,0.295487493276596,4,1
439,1.5180059671401978,-2.40254807472229,-1.6325759887695312,0.7273749709129333,-1.43426251411438,0.4860624969005584,4,1
440,2.658400058746338,-1.6503230333328247,-6.14182710647583,2.8250749111175537,-1.883887529373169,0.67044997215271,4,1
441,3.9642701148986816,-0.686564028263092,-6.219003200531006,3.935524940490722,-2.379849910736084,0.7975000143051147,4,1
442,4.807570934295654,-0.1647769957780838,-3.1496388912200928,4.123762607574463,-2.3578500747680664,0.8109750151634216,4,1
443,4.803585052490234,0.407368004322052,1.888463020324707,3.514087438583374,-1.9351749420166016,0.7767375111579895,4,1
444,3.5933570861816406,0.5812640190124512,5.920291900634766,2.441449880599976,-1.3829749822616575,0.699874997138977,4,1
445,2.162184000015259,0.5780389904975891,8.508989334106445,1.488437533378601,-0.6059625148773193,0.4921124875545501,4,1
446,1.0468469858169556,0.2776910066604614,9.383186340332031,1.055999994277954,0.2480500042438507,0.1451999992132187,4,1
447,0.7019870281219482,-0.4938110113143921,8.599152565002441,1.1683374643325806,0.8124874830245972,-0.2103749960660934,4,1
448,1.767683029174805,-0.7667359709739685,6.271144866943359,1.6521999835968018,0.9248250126838684,-0.4620000123977661,4,1
449,2.579447031021118,-0.8719069957733154,2.7388250827789307,2.337500095367432,0.6829624772071838,-0.593999981880188,4,1
450,2.491156101226806,-0.8273109793663025,-0.5753499865531921,3.1096999645233154,0.2333374917507171,-0.6220499873161316,4,1
451,1.8311400413513184,-0.5425029993057251,-2.9365429878234863,3.7669498920440674,-0.441100001335144,-0.6843374967575073,4,1
452,0.9247999787330629,-0.4438610076904297,-3.6711740493774414,4.204337596893311,-0.8454874753952026,-0.8725749850273132,4,1
453,-0.1734080016613006,-0.4246380031108856,-2.5333080291748047,4.342387676239014,-0.8417750000953674,-1.119249939918518,4,1
454,-1.6154899597167969,-0.5048980116844177,-0.8120459914207458,4.148099899291992,-0.6450124979019165,-1.3172500133514404,4,1
455,-2.692702054977417,-0.9004359841346741,-0.2781209945678711,3.7669498920440674,-0.3458124995231628,-1.4137749671936035,4,1
456,-2.7543389797210693,-0.9610729813575744,-1.506443977355957,3.399275064468384,-0.061049997806549,-1.4161125421524048,4,1
457,-1.8133670091629028,-0.9894199967384338,-4.257513999938965,3.2342748641967773,0.2283875048160553,-1.314774990081787,4,1
458,-0.6123560070991516,-1.129878044128418,-5.79015588760376,3.308799982070923,0.310337483882904,-1.0643874406814575,4,1
459,-0.1743119955062866,-0.9021469950675964,-5.598584175109863,3.400512456893921,0.0109999999403953,-0.7430499792098999,4,1
460,-0.2277480065822601,-1.1706089973449707,-3.638572931289673,3.3015124797821045,-0.3383874893188476,-0.4877125024795532,4,1
461,-0.8803319931030273,-1.0873839855194092,-2.070797920227051,2.898362398147583,-0.5057250261306763,-0.3862375020980835,4,1
462,-1.4323489665985107,-1.0099459886550903,-1.8886100053787231,2.3461625576019287,-0.4141499996185303,-0.4204750061035156,4,1
463,-2.0575850009918213,-0.9780139923095704,-2.4797849655151367,1.9148249626159668,-0.1160499975085258,-0.4497624933719635,4,1
464,-2.5586180686950684,-0.8772760033607483,-3.885886907577514,1.6717250347137451,0.0903374999761581,-0.4522374868392944,4,1
465,-2.07778000831604,-0.5250939726829529,-4.89752197265625,1.5751999616622925,0.2345750033855438,-0.3947624862194061,4,1
466,-1.131502985954285,-0.3972750008106231,-5.034922122955322,1.464100003242493,0.2773374915122986,-0.2689499855041504,4,1
467,-0.296983003616333,-0.4341219961643219,-4.077782154083252,1.2856249809265137,0.2480500042438507,-0.0613249987363815,4,1
468,0.4112519919872284,-0.4876309931278229,-2.5516579151153564,0.9326624870300292,0.1209999993443489,0.1586750000715255,4,1
469,0.5120720267295837,-0.5469989776611328,-1.000285029411316,0.4855124950408935,0.0292875003069639,0.295487493276596,4,1
470,0.3512560129165649,-0.4959999918937683,-0.0588440001010894,0.090887501835823,0.0367125011980533,0.3162499964237213,4,1
471,-0.1226209998130798,-0.4326339960098266,-0.5063440203666687,-0.1974499970674514,0.0182875003665685,0.2355374991893768,4,1
472,-0.488770991563797,-0.3487350046634674,-1.141057014465332,-0.3209249973297119,0.0317624993622303,0.1036750003695488,4,1
473,-0.7473229765892029,-0.1295569986104965,-1.4232150316238403,-0.2793999910354614,0.0488125011324882,-0.0123749999329447,4,1
474,-1.125143051147461,-0.0771699994802475,-0.8966360092163086,-0.1766874939203262,0.0879999995231628,-0.0906125009059906,4,1
475,-1.2891709804534912,-0.070431999862194,-0.0357000008225441,-0.1449249982833862,0.167337492108345,-0.1101374998688697,4,1
476,-1.268784999847412,-0.0680449977517128,0.7505080103874207,-0.2219250053167343,0.2358125001192093,-0.0979000031948089,4,1
477,-0.8722559809684753,-0.1109410002827644,0.7761719822883606,-0.3062124848365783,0.3176249861717224,-0.055137500166893,4,1
478,-0.1985429972410202,-0.126470997929573,0.1352770030498504,-0.3379749953746795,0.329862505197525,0.0156750008463859,4,1
479,0.5616250038146973,-0.0566289983689785,-0.5147879719734192,-0.2891624867916107,0.2651000022888183,0.1024374961853027,4,1
480,0.7683910131454468,0.0972800031304359,-0.7418670058250427,-0.171875,0.1551000028848648,0.1867250055074691,4,1
481,0.2965739965438843,0.2094359993934631,-0.5024759769439697,-0.0753500014543533,0.0585750006139278,0.2245374917984008,4,1
482,-0.3328680098056793,0.2685900032520294,0.1006340011954307,-0.0753500014543533,0.0452375002205371,0.195250004529953,4,1
483,-0.6732640266418457,0.2808780074119568,0.877020001411438,-0.1278750002384185,0.1453374922275543,0.1109625026583671,4,1
484,-0.610260009765625,0.3518469929695129,1.0615229606628418,-0.196212500333786,0.2431000024080276,0.0291499998420476,4,1
485,-0.0296829994767904,0.3072080016136169,0.6005110144615173,-0.2499749958515167,0.2503874897956848,0.0071499999612569,4,1
486,0.3996250033378601,0.3823829889297485,0.0183470007032156,-0.2231625020503997,0.1648624986410141,0.0461999997496604,4,1
487,0.6499829888343811,0.3511640131473541,-0.4443300068378448,-0.12168750166893,0.0170499999076128,0.1072499975562095,4,1
488,0.8316789865493774,0.2544150054454803,-0.7331219911575317,-0.0130624994635581,-0.0818125009536743,0.1512500047683715,4,1
489,0.6814410090446472,0.2869839966297149,-0.5451880097389221,0.0444125011563301,-0.075762502849102,0.1414874941110611,4,1
490,0.4472079873085022,0.2700200080871582,-0.2597019970417022,0.0406999997794628,-0.0219999998807907,0.1060125008225441,4,1
491,0.1390479952096939,0.2230550050735473,0.0121130002662539,-0.0228249989449977,0.0402874983847141,0.0449624992907047,4,1
492,-0.1982669979333877,0.2953670024871826,0.0459779985249042,-0.1033999994397163,0.0965249985456466,-0.0331375002861022,4,1
493,-0.4093109965324402,0.2675690054893493,-0.0991830006241798,-0.164450004696846,0.1380500048398971,-0.0966624990105629,4,1
494,-0.2521699965000152,0.2497099936008453,-0.1747879981994629,-0.1864500045776367,0.1698125004768371,-0.1358499974012375,4,1
495,0.3163869976997375,0.2746089994907379,-0.0076290001161396,-0.1839749962091446,0.1710499972105026,-0.1419000029563903,4,1
496,0.5066760182380676,0.1423929929733276,0.1385989934206009,-0.1791625022888183,0.1698125004768371,-0.106562502682209,4,1
497,0.3258469998836517,0.1112990006804466,0.466387003660202,-0.1938749998807907,0.1563374996185302,-0.0563750006258487,4,1
498,-0.0461339987814426,0.1949499994516372,0.7191910147666931,-0.2146375030279159,0.1417624950408935,-0.0430375002324581,4,1
499,-0.1264490038156509,0.1257089972496032,0.7104820013046265,-0.1926375031471252,0.2283875048160553,-0.0747999995946884,4,1
500,-0.047580000013113,-0.0898640006780624,-0.0117210000753402,0.1018875017762184,0.0439999997615814,-0.0050874999724328,5,1
501,-0.0719790011644363,-0.0453029982745647,-0.0283429995179176,0.1042250022292137,0.0,0.0034374999813735,5,1
502,-0.0979230031371116,-0.0926650017499923,-0.1423230022192001,0.090887501835823,-0.0280499998480081,-0.0002749999985098,5,1
503,-0.0967800021171569,-0.024737000465393,-0.3796910047531128,0.0932250022888183,-0.0427624993026256,-0.0026124999858438,5,1
504,-0.0170929990708827,0.0279920008033514,-0.4442130029201507,0.0921249985694885,-0.0720499977469444,-0.010037500411272,5,1
505,0.0462750010192394,-0.0095629999414086,-0.2976720035076141,0.0884125009179115,-0.0818125009536743,-0.0050874999724328,5,1
506,-0.0219470001757144,0.0536380000412464,0.0653610005974769,0.0651749968528747,-0.0549999997019767,0.0059124999679625,5,1
507,-0.075993999838829,0.0468150004744529,0.4085640013217926,0.0199375003576278,0.0049499999731779,0.0193875003606081,5,1
508,-0.0876649990677833,0.0367459990084171,0.5158519744873047,-0.0263999998569488,0.0708125010132789,0.022962499409914,5,1
509,-0.0554470010101795,0.0371959991753101,0.4709259867668152,-0.045924998819828,0.1062875017523765,0.0181499999016523,5,1
510,-0.0266290009021759,-0.0034580000210553,0.2482569962739944,-0.0215875003486871,0.0965249985456466,0.0144375003874301,5,1
511,-0.0296010002493858,-0.0257719997316598,0.0951130017638206,0.0285999998450279,0.0268124993890523,0.0107249999418854,5,1
512,-0.1808989942073822,0.0108230002224445,0.0214019995182752,0.0798875018954277,-0.0549999997019767,0.0034374999813735,5,1
513,-0.1608510017395019,0.0204889997839927,-0.152985006570816,0.1238875016570091,-0.1099999994039535,-0.0038499999791383,5,1
514,-0.0508860014379024,0.0103010004386305,-0.173443004488945,0.1396999955177307,-0.1258125007152557,-0.010037500411272,5,1
515,0.0273129995912313,0.0424249991774559,-0.053677998483181,0.1458874940872192,-0.0965249985456466,-0.0038499999791383,5,1
516,0.0491739995777606,0.0681850016117096,0.1736990064382553,0.1396999955177307,-0.0549999997019767,0.0217249989509582,5,1
517,-0.0056159999221563,0.0310759991407394,0.2896510064601898,0.113987497985363,0.0072874999605119,0.0474375002086162,5,1
518,-0.0584639981389045,0.052335001528263,0.3087350130081177,0.0944624990224838,0.0659999996423721,0.0559624992311,5,1
519,-0.0049910000525414,0.0111859999597072,0.1741880029439926,0.089649997651577,0.0903374999761581,0.052387498319149,5,1
520,0.1641959995031356,0.0056079998612403,-0.3060980141162872,0.1116499975323677,0.0818125009536743,0.0437249988317489,5,1
521,0.2003049999475479,0.0155579997226595,-0.7866880297660828,0.146987497806549,0.0512874983251094,0.0376750007271766,5,1
522,0.1746580004692077,0.0265110004693269,-1.254711031913757,0.1874125003814697,0.0060499999672174,0.0376750007271766,5,1
523,0.1211630031466484,0.0053360001184046,-1.7079540491104126,0.2094125002622604,-0.0060499999672174,0.0254375003278255,5,1
524,-0.0092709995806217,-0.0467559993267059,-1.9474400281906128,0.1874125003814697,0.0402874983847141,0.004674999974668,5,1
525,-0.0404799990355968,-0.0681520029902458,-2.460598945617676,0.1128875017166137,0.108762502670288,-0.0148499999195337,5,1
526,-0.0655490010976791,-0.2144609987735748,-2.885251045227051,-0.0031624999828636,0.2406249940395355,-0.0295624993741512,5,1
527,-0.0933620035648346,-0.138047993183136,-3.1586029529571533,-0.1498750001192093,0.4031499922275543,-0.0368499979376792,5,1
528,0.094881996512413,-0.2291329950094223,-3.8947579860687256,-0.3209249973297119,0.5999125242233276,-0.038087498396635,5,1
529,0.4504249989986419,-0.5408939719200134,-4.6888427734375,-0.5285499691963196,0.8258249759674072,-0.0356125012040138,5,1
530,0.7165240049362183,-0.7019839882850647,-6.01658296585083,-0.7728874683380127,1.0005874633789062,-0.0478499978780746,5,1
531,1.2238390445709229,-0.9642009735107422,-7.401576995849609,-1.046512484550476,1.1654499769210815,-0.0563750006258487,5,1
532,1.0832200050354004,-1.2758870124816897,-8.494624137878418,-1.383800029754639,1.3462624549865725,-0.1186624988913536,5,1
533,0.9345059990882874,-1.793084979057312,-9.310138702392578,-1.8137625455856323,1.473312497138977,-0.1920875012874603,5,1
534,0.3966409862041473,-2.492892026901245,-9.57402229309082,-2.358675003051758,1.4086874723434448,-0.3056625127792358,5,1
535,0.5852879881858826,-3.644046068191528,-9.595438957214355,-3.0074000358581543,1.1508749723434448,-0.4474250078201294,5,1
536,0.7341820001602173,-5.094560146331787,-8.441732406616211,-3.740412473678589,0.6719624996185303,-0.5768125057220459,5,1
537,-0.415008008480072,-5.512610912322998,-5.623679161071777,-4.518662452697754,0.1612875014543533,-0.6660500168800354,5,1
538,-1.6533689498901367,-5.536468982696533,-2.7404088973999023,-5.300624847412109,-0.3958624899387359,-0.6599999666213989,5,1
539,-1.5385160446166992,-5.361396789550781,-0.0135260000824928,-6.061687469482422,-0.7794874906539917,-0.6391000151634216,5,1
540,-1.339005947113037,-4.906033039093018,3.738558053970337,-6.627362251281738,-0.8075374960899353,-0.5572875142097473,5,1
541,-1.4542490243911743,-3.599273920059204,9.101305961608888,-6.870462417602539,-0.6572499871253967,-0.3276624977588653,5,1
542,-1.612144947052002,-1.8104660511016848,14.648004531860352,-6.8667497634887695,-0.6340125203132629,-0.055137500166893,5,1
543,-2.2031259536743164,-0.1993809938430786,19.47694206237793,-6.630937576293945,-0.8038250207901001,0.1194875016808509,5,1
544,-1.971497058868408,0.1603550016880035,21.180072784423828,-6.03487491607666,-1.005537509918213,0.1867250055074691,5,1
545,-1.4467099905014038,-0.2611100077629089,18.90644073486328,-4.9902873039245605,-1.1251624822616575,0.2074874937534332,5,1
546,-1.0442659854888916,-0.7881730198860168,13.439452171325684,-3.4997875690460205,-1.0873500108718872,0.1732500046491623,5,1
547,-0.289328008890152,-1.66436505317688,6.481295108795166,-1.6049000024795532,-0.8515374660491943,0.1977249979972839,5,1
548,1.1593140363693235,-2.332237958908081,-0.1901890039443969,0.3815625011920929,-0.717199981212616,0.267300009727478,5,1
549,2.248461961746216,-1.9776630401611328,-4.946359157562256,1.9551124572753904,-0.9663500189781188,0.3235374987125397,5,1
550,3.0354321002960205,-1.2396440505981443,-7.328042030334473,2.849412441253662,-1.2949750423431396,0.4140124917030334,5,1
551,3.359116077423096,-0.6572880148887634,-6.177900791168213,3.032700061798096,-1.3989249467849731,0.4896374940872192,5,1
552,2.978182077407837,-0.1716379970312118,-1.5308409929275513,2.5660250186920166,-1.1863499879837036,0.5055875182151794,5,1
553,2.0766940116882324,0.4549739956855774,4.697220802307129,1.65948748588562,-0.6524375081062317,0.4591124951839447,5,1
554,1.0180670022964478,0.7868899703025818,10.365312576293944,0.5905625224113464,-0.0232375003397464,0.3515875041484833,5,1
555,0.2432370036840438,0.5354480147361755,14.063802719116213,-0.2389750033617019,0.5436750054359436,0.1684374958276748,5,1
556,0.2263469994068145,-0.3016279935836792,14.336827278137209,-0.5077875256538391,0.8710625171661377,-0.0405624993145465,5,1
557,0.5704910159111023,-1.024737000465393,10.785907745361328,-0.1486375033855438,0.8820624947547913,-0.2261874973773956,5,1
558,1.2243709564208984,-1.2805650234222412,6.430842876434326,0.8349000215530396,0.6767749786376953,-0.3324750065803528,5,1
559,2.139689922332764,-1.3496079444885254,2.572962999343872,2.1689250469207764,0.273624986410141,-0.392425000667572,5,1
560,2.4243900775909424,-1.3438639640808103,0.4149439930915832,3.387037515640259,-0.1930499970912933,-0.4767124950885772,5,1
561,1.6597110033035278,-0.9276260137557985,-0.0684809982776641,4.157862663269043,-0.6206749677658081,-0.593999981880188,5,1
562,0.2710919976234436,-0.6447089910507202,1.008502960205078,4.507387638092041,-0.8100125193595886,-0.7368624806404114,5,1
563,-0.8070619702339172,-0.8208299875259399,2.500828981399536,4.574487686157227,-0.7195374965667725,-0.9176750183105468,5,1
564,-1.0879260301589966,-1.46596097946167,2.2421329021453857,4.499962329864502,-0.5069624781608582,-1.1022000312805176,5,1
565,-1.5013580322265625,-2.344153881072998,-0.1409599930047989,4.464624881744385,-0.3261500000953674,-1.1852500438690186,5,1
566,-2.07448410987854,-2.700068950653076,-4.353616237640381,4.590437412261963,-0.3848625123500824,-1.1571999788284302,5,1
567,-2.5884459018707275,-2.4921770095825195,-8.592947006225586,4.934875011444092,-0.5069624781608582,-1.0289125442504885,5,1
568,-2.622469902038574,-1.97333300113678,-11.265008926391602,5.278212547302246,-0.5216749906539917,-0.8725749850273132,5,1
569,-1.8518129587173464,-1.5469310283660889,-11.902774810791016,5.32221269607544,-0.4728625118732452,-0.668524980545044,5,1
570,-1.0265979766845703,-1.2163610458374023,-9.945666313171388,4.876299858093262,-0.3115749955177307,-0.4070000052452087,5,1
571,-0.3634339869022369,-0.983223021030426,-6.744389057159424,3.9782874584198,-0.0292875003069639,-0.1088999956846237,5,1
572,-0.2420489937067031,-0.9581369757652284,-3.651578903198242,2.8286499977111816,0.2186249941587448,0.1487749963998794,5,1
573,-0.7287439703941345,-0.6525269746780396,-1.3967000246047974,1.712012529373169,0.3506250083446502,0.2685374915599823,5,1
574,-0.9954040050506592,-0.5633929967880249,-0.8210139870643616,0.8861874938011169,0.4434374868869781,0.267300009727478,5,1
575,-0.8641319870948792,-0.713949978351593,-1.2436310052871704,0.4427500069141388,0.3909125030040741,0.2050125002861023,5,1
576,-0.5485590100288391,-0.6052700281143188,-2.071338891983032,0.3046999871730804,0.1918125003576278,0.1256749927997589,5,1
577,-0.4152140021324157,-0.4071539938449859,-2.70292592048645,0.3669874966144562,-0.0049499999731779,0.0962499976158142,5,1
578,-0.5870490074157715,-0.3776290118694305,-2.7962119579315186,0.4598000049591064,-0.1135749965906143,0.0939124971628189,5,1
579,-0.7799990177154541,-0.3445259928703308,-2.577975034713745,0.4585624933242798,-0.1270499974489212,0.0877249985933303,5,1
580,-1.048151969909668,-0.2514649927616119,-1.941683053970337,0.3547500073909759,-0.0659999996423721,0.0609125010669231,5,1
581,-1.1288820505142212,-0.2298559993505478,-1.16572904586792,0.1849374920129776,-0.0170499999076128,0.0339624993503093,5,1
582,-0.933452010154724,-0.2535440027713775,-0.9947460293769836,-0.0043999999761581,-0.0232375003397464,0.0449624992907047,5,1
583,-0.5659570097923279,-0.1963649988174438,-0.9490579962730408,-0.1632124930620193,-0.0464750006794929,0.0791999995708465,5,1
584,-0.0354820005595684,-0.1237929984927177,-0.7655689716339111,-0.2463999986648559,-0.0574750006198883,0.1329624950885772,5,1
585,0.2204760015010833,-0.1498810052871704,-0.1647199988365173,-0.2634499967098236,-0.0195249989628791,0.1805374920368194,5,1
586,0.0624339990317821,-0.0177619997411966,0.64615797996521,-0.2684000134468078,0.0805749967694282,0.2135374993085861,5,1
587,-0.1648689955472946,0.0127609996125102,1.0894960165023804,-0.2964499890804291,0.1392875015735626,0.2050125002861023,5,1
588,-0.3581100106239319,0.167395994067192,0.5702270269393921,-0.3122625052928924,0.1771000027656555,0.1402499973773956,5,1
589,-0.4352129995822906,0.2951500117778778,-0.3556860089302063,-0.2671625018119812,0.1563374996185302,0.077962502837181,5,1
590,-0.3069030046463012,0.4066869914531708,-0.930076003074646,-0.1376374959945678,0.0805749967694282,0.0449624992907047,5,1
591,0.0127320000901818,0.4165459871292114,-1.0279710292816162,0.0053624999709427,-0.0500499978661537,0.0351999998092651,5,1
592,0.2664540112018585,0.3942829966545105,-0.7869759798049927,0.0736999958753585,-0.1430000066757202,0.0547249987721443,5,1
593,0.5185199975967407,0.3814339935779571,-0.1095179989933967,0.0248875003308057,-0.2015749961137771,0.0889625027775764,5,1
594,0.4856579899787903,0.3146060109138489,0.4943250119686126,-0.0691625028848648,-0.1905750036239624,0.1231999993324279,5,1
595,0.2097270041704177,0.2757880091667175,0.9838420152664183,-0.1583999991416931,-0.0977625027298927,0.1280124932527542,5,1
596,-0.1170400008559227,0.2973330020904541,0.8604509830474854,-0.2084500044584274,0.0367125011980533,0.1024374961853027,5,1
597,-0.1908770054578781,0.3155829906463623,0.1868010014295578,-0.1938749998807907,0.1527625024318695,0.0534874983131885,5,1
598,-0.096510000526905,0.3008860051631927,-0.4677479863166809,-0.1193500012159347,0.1978625059127807,0.0071499999612569,5,1
599,-0.094370998442173,0.318574994802475,-0.7695890069007874,-0.0141624994575977,0.1710499972105026,-0.010037500411272,5,1
600,-0.0901639983057975,0.0325319990515708,0.2312700003385543,0.0101749999448657,0.2186249941587448,-0.0026124999858438,6,1
601,-0.0673130005598068,0.0558689981698989,0.4004360139369964,-0.0313500016927719,0.2320999950170517,0.002199999988079,6,1
602,-0.0377699993550777,-0.0001219999976456,0.5439069867134094,-0.0361624993383884,0.1930499970912933,0.0096249999478459,6,1
603,-0.0046230000443756,0.2584510147571563,0.3380720019340515,-0.0240624994039535,0.111237496137619,0.0119624994695186,6,1
604,0.106173999607563,0.1345060020685196,0.1138930022716522,0.0004124999977648,0.0037124999798834,0.0131999999284744,6,1
605,-0.0591749995946884,0.2053409963846206,0.0032639999408274,0.039462499320507,-0.0672374963760376,0.0107249999418854,6,1
606,-0.0714320018887519,0.1315969973802566,0.0708699971437454,0.090887501835823,-0.0965249985456466,0.0034374999813735,6,1
607,-0.0813139975070953,0.1326680034399032,0.3398750126361847,0.113987497985363,-0.0427624993026256,-0.0075624999590218,6,1
608,-4.9999998736e-06,0.1363379955291748,0.5541880130767822,0.1104125007987022,0.0244750007987022,-0.010037500411272,6,1
609,0.1413269937038421,0.1111470013856887,0.629817008972168,0.1006499975919723,0.0745249986648559,0.0107249999418854,6,1
610,0.2066580057144165,0.0743760019540786,0.2444290071725845,0.0956999957561492,0.0830499976873397,0.0279124993830919,6,1
611,0.3985260128974914,0.0145730003714561,-0.2292950004339218,0.1311749964952469,0.075762502849102,0.0437249988317489,6,1
612,0.443334013223648,-0.0114449998363852,-0.5794270038604736,0.1812250018119812,0.0415249988436698,0.0389125011861324,6,1
613,0.3616569936275482,-0.0313040018081665,-0.4731580018997192,0.2325125038623809,0.0060499999672174,0.0204875003546476,6,1
614,0.1137899979948997,-0.0254820007830858,-0.1738979965448379,0.2422749996185302,-0.0024749999865889,-0.0038499999791383,6,1
615,-0.2237470000982284,-0.0072059999220073,0.0076629999093711,0.2007499933242797,0.0182875003665685,-0.0453750006854534,6,1
616,-0.3527530133724212,0.0318249985575675,-0.1383689939975738,0.1494625061750412,0.075762502849102,-0.0845625028014183,6,1
617,-0.2185519933700561,-0.0190830007195472,-0.5588600039482117,0.1249874979257583,0.135574996471405,-0.1163249984383583,6,1
618,0.0992479994893074,-0.1031379997730255,-1.5659739971160889,0.1482249945402145,0.1795749962329864,-0.1186624988913536,6,1
619,0.3359949886798858,-0.1520610004663467,-2.360048055648804,0.178749993443489,0.167337492108345,-0.0955625027418136,6,1
620,0.3123799860477447,-0.1653890013694763,-2.8415589332580566,0.1874125003814697,0.135574996471405,-0.0673749968409538,6,1
621,0.2449209988117218,-0.257777988910675,-3.244966983795166,0.1482249945402145,0.1637624949216842,-0.063799999654293,6,1
622,-0.1331930011510849,-0.3554620146751404,-3.420638084411621,0.0076999999582767,0.2651000022888183,-0.0833249986171722,6,1
623,-0.4161910116672516,-0.268220990896225,-3.964761018753052,-0.2121624946594238,0.3786749839782715,-0.1296624988317489,6,1
624,-0.3342880010604858,-0.3185620009899139,-5.082030773162842,-0.4589749872684479,0.5106750130653381,-0.1590874940156936,6,1
625,-0.1035099998116493,-0.536890983581543,-6.106483936309815,-0.731362521648407,0.6841999888420105,-0.1786125004291534,6,1
626,0.0964860022068023,-0.6157360076904297,-6.297492027282715,-1.0099375247955322,0.9053000211715698,-0.1541374921798706,6,1
627,1.1647230386734009,-1.1240400075912476,-7.391678810119629,-1.3446124792099,1.2461625337600708,-0.1138499975204467,6,1
628,1.6019190549850464,-1.835860013961792,-8.251460075378418,-1.789425015449524,1.5833125114440918,-0.1028499975800514,6,1
629,0.6266419887542725,-2.620896100997925,-9.229812622070312,-2.3171498775482178,1.6883624792099,-0.1088999956846237,6,1
630,0.0993380025029182,-3.498655080795288,-9.271034240722656,-2.852299928665161,1.29868745803833,-0.1528999954462051,6,1
631,-0.9424790143966676,-4.371942043304443,-7.955962181091309,-3.476549863815308,0.5081999897956848,-0.2971374988555908,6,1
632,-2.0903360843658447,-4.727597236633301,-5.252775192260742,-4.146037578582764,-0.3348124921321869,-0.4229499995708465,6,1
633,-1.9363839626312256,-5.015789031982422,-3.137248039245605,-4.879049777984619,-0.992062509059906,-0.4070000052452087,6,1
634,-0.388586014509201,-5.179757118225098,-1.3771040439605713,-5.612062454223633,-1.2486374378204346,-0.2774749994277954,6,1
635,1.0758479833602903,-4.465964794158936,1.455739974975586,-6.119162559509277,-1.2216874361038208,-0.0368499979376792,6,1
636,1.1477819681167605,-2.5449259281158447,6.808631896972656,-6.35126256942749,-1.272974967956543,0.3198249936103821,6,1
637,0.2813369929790497,-0.7262840270996094,13.093450546264648,-6.374499797821045,-1.459975004196167,0.6301624774932861,6,1
638,-0.8078770041465759,-0.225501999258995,17.971729278564453,-6.244975090026856,-1.5785000324249268,0.6484500169754028,6,1
639,-0.9035729765892028,-0.7365840077400208,18.76322555541992,-5.869874954223633,-1.4635499715805054,0.4163500070571899,6,1
640,-0.6763669848442078,-1.3618680238723757,14.450729370117188,-5.083099842071533,-1.127637505531311,0.1439625024795532,6,1
641,-0.2463479936122894,-1.8467930555343628,6.90244722366333,-3.713599920272827,-0.6792500019073486,-0.0075624999590218,6,1
642,0.1927859932184219,-2.126621961593628,-0.1135689988732338,-1.8552874326705933,-0.4959625005722046,-0.0136124994605779,6,1
643,0.3342730104923248,-1.7338279485702517,-3.88314700126648,-0.0923999994993209,-0.9003499746322632,0.0156750008463859,6,1
644,-0.1058349981904029,-1.001101016998291,-3.2695329189300537,0.9619500041007996,-1.5039750337600708,0.0096249999478459,6,1
645,-0.4366779923439026,-0.3778710067272186,0.9840540289878844,1.1622874736785889,-1.6860250234603882,0.0669625028967857,6,1
646,-0.2031410038471222,-0.1404249966144561,6.238551139831543,0.7114250063896179,-1.1741124391555786,0.1891999989748001,6,1
647,0.3513149917125702,0.3568019866943359,10.32695484161377,-0.0386375002562999,-0.3115749955177307,0.3577750027179718,6,1
648,1.020357966423035,0.5555149912834167,12.299809455871582,-0.6433625221252441,0.4288625121116638,0.5348749756813049,6,1
649,1.82068395614624,0.5052189826965332,12.43521785736084,-0.7325999736785889,0.7892500162124634,0.6546375155448914,6,1
650,2.42232608795166,0.2872909903526306,10.896977424621582,-0.2829749882221222,0.7842999696731567,0.6631624698638916,6,1
651,2.8369040489196777,-0.2102099955081939,8.63283634185791,0.5820375084877014,0.681725025177002,0.5874000191688538,6,1
652,3.2943549156188965,-0.7134289741516113,5.901028156280518,1.5824874639511108,0.4288625121116638,0.4188250005245209,6,1
653,3.177562952041626,-0.8023290038108826,3.4456980228424072,2.555025100708008,0.2125750035047531,0.184249997138977,6,1
654,2.7437551021575928,-0.5730419754981995,2.022618055343628,3.394325017929077,0.0232375003397464,-0.1088999956846237,6,1
655,1.7525579929351809,-0.2281839996576309,1.4234219789505005,3.974712371826172,-0.2895750105381012,-0.4204750061035156,6,1
656,0.9797019958496094,-0.0819170027971267,1.9627939462661743,4.314337253570557,-0.5704874992370605,-0.7356249690055847,6,1
657,0.9420679807662964,-0.3192870020866394,1.7019660472869873,4.4791998863220215,-0.6499624848365784,-0.9849125146865844,6,1
658,1.125643014907837,-1.2709629535675049,-0.0800210013985633,4.540249824523926,-0.5009124875068665,-1.1486749649047852,6,1
659,0.8567969799041748,-2.4638659954071045,-2.9937610626220703,4.601437568664551,-0.2052875012159347,-1.2072499990463257,6,1
660,-0.1244089975953102,-2.65956711769104,-5.705362796783447,4.771249771118164,0.1209999993443489,-1.199962496757507,6,1
661,-0.6986629962921143,-2.431080102920532,-7.323635101318359,4.989874839782715,0.4129124879837036,-1.193774938583374,6,1
662,-0.7827119827270508,-1.9129730463027956,-7.815921783447266,5.029062271118164,0.4116750061511993,-1.1694375276565552,6,1
663,-0.9127100110054016,-1.3653039932250977,-7.613213062286377,4.750487327575684,0.032999999821186,-1.0789624452590942,6,1
664,-1.7732239961624146,-1.0617660284042358,-6.333333969116211,4.150575160980225,-0.5704874992370605,-0.9494374990463256,6,1
665,-2.558698892593384,-1.078601956367493,-4.308685779571533,3.3797500133514404,-1.001824975013733,-0.8468624949455261,6,1
666,-2.7332839965820312,-1.0611799955368042,-3.3216800689697266,2.611262559890747,-0.9725375175476074,-0.7748125195503235,6,1
667,-2.1945838928222656,-1.0493210554122925,-3.562122106552124,1.9283000230789185,-0.5876749753952026,-0.6782875061035156,6,1
668,-1.4338929653167725,-0.9511529803276062,-3.979501962661743,1.4359124898910522,-0.0855249986052513,-0.4522374868392944,6,1
669,-0.6968269944190979,-1.0175909996032717,-3.4012200832366943,1.1537624597549438,0.3531000018119812,-0.1431374996900558,6,1
670,-0.2125460058450698,-0.9050049781799316,-2.4065170288085938,0.9301875233650208,0.5827249884605408,0.1194875016808509,6,1
671,-0.1253750026226043,-0.8788689970970154,-1.553104043006897,0.6246625185012817,0.607200026512146,0.2575374841690063,6,1
672,-0.3570030033588409,-0.7868170142173767,-0.8919810056686401,0.2887499928474426,0.4984374940395355,0.2905375063419342,6,1
673,-0.8178449869155884,-0.6851829886436462,-0.4949690103530884,0.0175999999046325,0.3018124997615814,0.2294874936342239,6,1
674,-1.2674920558929443,-0.6116610169410706,-0.5474849939346313,-0.1143999993801117,0.1880999952554702,0.1280124932527542,6,1
675,-1.3537310361862185,-0.5044140219688416,-1.1201080083847046,-0.1486375033855438,0.1600500047206878,0.048675000667572,6,1
676,-0.7621579766273499,-0.3396410048007965,-1.7381030321121216,-0.1278750002384185,0.1698125004768371,0.0181499999016523,6,1
677,0.0384120009839534,-0.3861860036849975,-1.8798129558563232,-0.0753500014543533,0.1747625023126602,0.0499125011265277,6,1
678,0.1861550062894821,-0.299795001745224,-1.0006769895553589,-0.0668250024318695,0.1245749965310096,0.1292500048875808,6,1
679,-0.2778190076351166,-0.1920640021562576,0.2337300032377243,-0.1461624950170517,0.0745249986648559,0.1927749961614608,6,1
680,-0.6472330093383789,-0.1188199967145919,1.2147350311279297,-0.2781625092029571,0.1220999956130981,0.1817750036716461,6,1
681,-0.7206040024757385,-0.0881090015172958,1.4736829996109009,-0.3856875002384186,0.2455749958753585,0.1060125008225441,6,1
682,-0.6322349905967712,0.0768520012497901,0.8719670176506042,-0.4014999866485595,0.2883374989032745,0.0376750007271766,6,1
683,-0.2745639979839325,0.1891549974679947,-0.2085970044136047,-0.2989250123500824,0.1966249942779541,0.0413874983787536,6,1
684,-0.1034799963235855,0.1002330034971237,-1.2062089443206787,-0.1046374961733818,0.0219999998807907,0.081675000488758,6,1
685,0.1300110071897506,0.1268830001354217,-1.6233550310134888,0.090887501835823,-0.1502874940633773,0.1366750001907348,6,1
686,0.5397909879684448,0.196613997220993,-1.5355730056762695,0.1824624985456466,-0.2798124849796295,0.1782000064849853,6,1
687,0.9356210231781006,0.094820998609066,-0.7090700268745422,0.1531749963760376,-0.3041499853134155,0.195250004529953,6,1
688,0.9212949872016908,0.1753820031881332,0.4204260110855102,0.0296999998390674,-0.2602874934673309,0.2123000025749206,6,1
689,0.389299988746643,0.2495169937610626,1.2340329885482788,-0.1314499974250793,-0.1575749963521957,0.2037750035524368,6,1
690,-0.1296200007200241,0.2368240058422088,1.177556037902832,-0.2512125074863434,0.0207624994218349,0.1439625024795532,6,1
691,-0.5038930177688599,0.2567879855632782,0.4076830148696899,-0.2817375063896179,0.210099995136261,0.0437249988317489,6,1
692,-0.4052369892597198,0.2288359999656677,-0.2796649932861328,-0.1913999915122985,0.3188624978065491,-0.0233750008046627,6,1
693,-0.120788000524044,0.1583199948072433,-0.5825390219688416,-0.0569249987602233,0.2833875119686126,-0.0490874983370304,6,1
694,0.109093002974987,0.1148120015859603,-0.3228220045566559,0.0383624993264675,0.2088624984025955,-0.0210375003516674,6,1
695,0.2513560056686401,0.1110830008983612,0.2144850045442581,0.039462499320507,0.1331000030040741,0.0449624992907047,6,1
696,0.2120690047740936,0.2097450047731399,0.7378799915313721,-0.0288750007748603,0.0782374963164329,0.0877249985933303,6,1
697,0.2695670127868652,0.1603859961032867,1.0178370475769043,-0.1071124970912933,0.0280499998480081,0.0950125008821487,6,1
698,0.1307460069656372,0.2454199939966201,0.5562030076980591,-0.1388749927282333,-0.0244750007987022,0.077962502837181,6,1
699,0.05112000182271,0.3004190027713775,-0.120169997215271,-0.1083500012755394,-0.0745249986648559,0.0474375002086162,6,1
700,0.1817719936370849,0.0494929999113082,-0.1386349946260452,0.02364999987185,-0.0525249987840652,0.0303875003010034,7,1
701,-0.0014819999923929,0.084135003387928,0.0323700010776519,0.0151249999180436,-0.0672374963760376,0.022962499409914,7,1
702,-0.0557809993624687,0.0908169969916343,0.308665007352829,0.0004124999977648,-0.0342375002801418,0.0131999999284744,7,1
703,-0.0290430001914501,0.0785470008850097,0.4559299945831299,-0.0203499998897314,0.0232375003397464,0.002199999988079,7,1
704,0.0195879992097616,-0.1258929967880249,0.3141480088233948,-0.0153999999165534,0.0940499976277351,-0.0013749999925494,7,1
705,0.1334969997406005,0.0564990006387233,-0.0174950007349252,0.0016499999910593,0.1025749966502189,0.0096249999478459,7,1
706,0.1307200044393539,-0.0128300003707408,-0.3912419974803924,0.0419375002384185,0.0659999996423721,0.0156750008463859,7,1
707,0.0642049983143806,0.0648809969425201,-0.6402639746665955,0.1042250022292137,0.0085249999538064,0.0144375003874301,7,1
708,-0.0384670011699199,0.0947009995579719,-0.4840129911899566,0.1384624987840652,-0.0805749967694282,0.0083875004202127,7,1
709,0.0386650003492832,0.0552849993109703,-0.0167769994586706,0.133650004863739,-0.1233374997973442,-0.0002749999985098,7,1
710,-0.1075149998068809,0.0603340007364749,0.6141660213470459,0.0871749967336654,-0.111237496137619,-0.0075624999590218,7,1
711,-0.2043839991092682,-0.0080040004104375,0.9774540066719056,0.0186999998986721,-0.0549999997019767,0.002199999988079,7,1
712,-0.1514679938554763,-0.0052089998498559,0.9242380261421204,-0.0215875003486871,0.0122375003993511,0.0071499999612569,7,1
713,-0.0382529981434345,-0.0312489997595548,0.7142930030822754,-0.0166375003755092,0.0635249987244606,-0.0002749999985098,7,1
714,0.0326879993081092,-0.1048659980297088,0.2674359977245331,0.0516999997198581,0.0659999996423721,0.0131999999284744,7,1
715,0.0896240025758743,-0.0762569978833198,-0.1109469980001449,0.1434125006198883,0.0378125011920928,0.0291499998420476,7,1
716,0.3822030127048492,-0.0992069989442825,-0.3327960073947906,0.2239875048398971,0.0085249999538064,0.0364375002682209,7,1
717,0.7866629958152771,-0.1218999996781349,-0.3692249953746795,0.285037487745285,-0.0147124994546175,0.0424874983727932,7,1
718,0.6952679753303528,-0.0108340000733733,-0.2851429879665375,0.2887499928474426,-0.0562375001609325,0.0401500016450881,7,1
719,0.2828939855098724,-0.0309200007468462,-0.4903259873390198,0.2569875121116638,-0.0965249985456466,0.0241999998688697,7,1
720,-0.1084749996662139,-0.073692001402378,-0.8640959858894348,0.2129874974489212,-0.1025749966502189,-0.0307999998331069,7,1
721,-0.295302003622055,-0.0806920006871223,-1.2436469793319702,0.1836999952793121,-0.0488125011324882,-0.1186624988913536,7,1
722,-0.2330670058727264,-0.1960480064153671,-1.636536955833435,0.1689874976873397,0.0598125010728836,-0.1859000027179718,7,1
723,-0.2143560051918029,-0.1773370057344436,-2.018738031387329,0.1287000030279159,0.167337492108345,-0.2054249942302703,7,1
724,-0.0198599994182586,-0.2575210034847259,-2.5808000564575195,0.0481249988079071,0.2503874897956848,-0.1871374994516372,7,1
725,0.1321319937705993,-0.3469530045986175,-3.572154998779297,-0.0643500015139579,0.3005749881267547,-0.1676124930381775,7,1
726,0.5925869941711426,-0.3466919958591461,-5.621729850769043,-0.2048749923706054,0.3310999870300293,-0.1676124930381775,7,1
727,1.2170050144195557,-0.5247399806976318,-8.06066608428955,-0.370974987745285,0.3726249933242798,-0.1798499971628189,7,1
728,1.3593660593032837,-0.8737940192222595,-9.401167869567873,-0.5945500135421753,0.4214375019073486,-0.2201374918222427,7,1
729,0.5243070125579834,-1.0632989406585691,-10.48550796508789,-0.9476500153541564,0.4789125025272369,-0.317900002002716,7,1
730,-0.6667640209197998,-1.556298017501831,-10.79482364654541,-1.5144250392913818,0.4996750056743622,-0.4179999828338623,7,1
731,-1.2978219985961914,-2.7861669063568115,-10.396100044250488,-2.275624990463257,0.5461499691009521,-0.5744749903678894,7,1
732,-0.1105580031871795,-4.524105072021484,-10.519115447998049,-3.100212574005127,0.6841999888420105,-0.7050999999046326,7,1
733,1.0100829601287842,-6.184722900390625,-10.320884704589844,-3.951750040054321,0.970062494277954,-0.6648125052452087,7,1
734,1.3420100212097168,-7.216662883758545,-8.362655639648438,-4.803287506103516,1.088587522506714,-0.5047624707221985,7,1
735,1.4124970436096191,-8.094594955444336,-4.887756824493408,-5.646299839019775,0.6707249879837036,-0.3557125031948089,7,1
736,0.2950989902019501,-7.562633991241455,0.4293729960918426,-6.5333123207092285,0.0268124993890523,-0.3129499852657318,7,1
737,-2.674405097961426,-2.37105393409729,15.528416633605955,-7.320087432861328,-0.3958624899387359,-0.3374249935150146,7,1
738,-3.8622560501098633,0.2232279926538467,20.54059600830078,-7.866099834442139,-0.8430125117301941,-0.4192374944686889,7,1
739,-4.382461071014404,0.9971460103988647,22.54459381103516,-8.006625175476074,-1.1911624670028689,-0.4620000123977661,7,1
740,-3.797261953353882,0.8591089844703674,21.162399291992188,-7.557000160217285,-1.3304499387741089,-0.4437125027179718,7,1
741,-2.3787178993225098,0.384319007396698,16.124309539794922,-6.4783124923706055,-1.3695000410079956,-0.3569499850273132,7,1
742,-1.4084279537200928,-0.5347930192947388,9.67843532562256,-4.838762283325195,-1.1251624822616575,-0.2628999948501587,7,1
743,-0.3827050030231476,-1.2911659479141235,3.4199368953704834,-2.78258752822876,-0.5802500247955322,-0.1236125007271766,7,1
744,0.8224220275878906,-1.362326979637146,-1.7499920129776,-0.6495500206947327,-0.2761000096797943,0.1011999994516372,7,1
745,1.669772028923035,-0.9982749819755554,-4.1132588386535645,1.2075250148773191,-0.5937250256538391,0.3077250123023987,7,1
746,1.981197953224182,-0.6372089982032776,-3.822669982910156,2.4634499549865723,-1.2619750499725342,0.4248749911785126,7,1
747,1.671049952507019,-0.2943969964981079,-1.2561869621276855,3.0449373722076416,-1.867937445640564,0.54339998960495,7,1
748,1.7201039791107178,-0.1103449985384941,3.076608896255493,3.0082249641418457,-2.0366499423980717,0.6155874729156494,7,1
749,1.6114239692687988,-0.0383989997208118,6.545578002929688,2.502500057220459,-1.6761250495910645,0.6301624774932861,7,1
750,1.474269986152649,-0.1138399988412857,8.692092895507812,1.808537483215332,-0.8991125226020813,0.6033499836921692,7,1
751,1.0602999925613403,-0.2661199867725372,9.883428573608398,1.2502875328063965,0.0695749968290329,0.5605875253677368,7,1
752,0.2927330136299133,-0.4745120108127594,9.40595817565918,0.9912375211715698,0.7660124897956848,0.5178250074386597,7,1
753,0.4240620136260986,-0.9442949891090392,8.261038780212402,1.1317625045776367,1.136162519454956,0.4115374982357025,7,1
754,0.3374580144882202,-1.1342569589614868,5.87986421585083,1.654675006866455,1.3352625370025637,0.2660624980926513,7,1
755,0.4004319906234741,-1.0333759784698486,3.8603649139404297,2.347399950027466,1.1325875520706177,0.1097249984741211,7,1
756,1.0658140182495115,-0.8389040231704712,1.3145849704742432,3.0926499366760254,0.5559124946594238,-0.0013749999925494,7,1
757,1.9545880556106567,-1.3798229694366455,-2.008549928665161,3.799949884414673,-0.1270499974489212,-0.038087498396635,7,1
758,2.521951913833618,-2.0339889526367188,-4.4872918128967285,4.419387340545654,-0.4641999900341034,-0.0759000033140182,7,1
759,1.349073052406311,-1.6394530534744265,-6.035420894622803,4.895824909210205,-0.3493874967098236,-0.0735625028610229,7,1
760,0.1539430022239685,-1.180987000465393,-5.311613082885742,5.125450134277344,-0.2920500040054321,-0.0833249986171722,7,1
761,-0.5370619893074036,-1.0440030097961426,-4.65438985824585,5.146212577819824,-0.1747625023126602,-0.1406625062227249,7,1
762,-0.8925110101699829,-1.1990070343017578,-5.009297847747803,4.865300178527832,-0.0488125011324882,-0.2579500079154968,7,1
763,-1.45340895652771,-0.73956698179245,-4.970249176025391,4.342387676239014,0.1600500047206878,-0.3899500072002411,7,1
764,-1.459483981132507,-0.2665010094642639,-4.035194873809815,3.721712589263916,0.2455749958753585,-0.427762508392334,7,1
765,-1.0305320024490356,-0.4320079982280731,-3.188318014144897,3.143937587738037,0.1135749965906143,-0.403425008058548,7,1
766,-0.982030987739563,-0.4892959892749786,-2.960669040679932,2.7248375415802,0.1380500048398971,-0.3141874969005584,7,1
767,-0.6896799802780151,-0.4327209889888763,-2.650641918182373,2.2776875495910645,0.0855249986052513,-0.2006125003099441,7,1
768,-0.6224470138549805,-0.513355016708374,-2.116107940673828,1.839062452316284,-0.0280499998480081,-0.0796125009655952,7,1
769,-0.5260559916496277,-0.7778720259666443,-1.9388970136642456,1.545912504196167,-0.0378125011920928,-0.0063249999657273,7,1
770,-0.5128610134124756,-0.791795015335083,-2.627716064453125,1.3491499423980713,0.0439999997615814,0.0217249989509582,7,1
771,-0.3903979957103729,-0.6501049995422363,-3.0358119010925293,1.1452374458312988,0.107524998486042,0.0291499998420476,7,1
772,-0.188971996307373,-0.3068650066852569,-2.4236369132995605,0.9827125072479248,0.1612875014543533,0.0144375003874301,7,1
773,-0.2844710052013397,-0.2896549999713897,-1.278033971786499,0.8996624946594238,0.1368124932050705,0.0096249999478459,7,1
774,-0.9142299890518188,-0.4211570024490356,-1.0012919902801514,0.8079500198364258,0.0268124993890523,0.0071499999612569,7,1
775,-1.7038819789886477,-0.3030869960784912,-1.4003870487213137,0.6148999929428101,-0.1332374960184097,0.0071499999612569,7,1
776,-1.6252260208129885,-0.3568949997425079,-2.0028600692749023,0.3693250119686126,-0.2761000096797943,-0.025849999859929,7,1
777,-0.6704170107841492,-0.5085489749908447,-2.238537073135376,0.2399374991655349,-0.2846249938011169,-0.0710875019431114,7,1
778,0.0362100005149841,-0.3810549974441528,-1.680503010749817,0.2325125038623809,-0.2320999950170517,-0.0845625028014183,7,1
779,0.1625259965658188,-0.4006159901618957,-0.8366889953613281,0.2191749960184097,-0.1440999954938888,-0.0185624994337558,7,1
780,-0.19998399913311,-0.3562079966068268,0.2914960086345672,0.133650004863739,-0.0427624993026256,0.1146750003099441,7,1
781,-0.5168280005455017,-0.2961969971656799,0.9262380003929138,-0.0130624994635581,0.0952875018119812,0.2012999951839447,7,1
782,-0.8298559784889221,-0.2629269957542419,0.645576000213623,-0.1656875014305114,0.2480500042438507,0.1805374920368194,7,1
783,-1.036492943763733,-0.1727290004491806,-0.4316320121288299,-0.2574000060558319,0.2993375062942505,0.0901999995112419,7,1
784,-0.8180029988288879,-0.0508599989116191,-1.4391729831695557,-0.2634499967098236,0.210099995136261,0.0083875004202127,7,1
785,-0.3808459937572479,0.02025300078094,-1.7039350271224976,-0.1656875014305114,0.0195249989628791,-0.025849999859929,7,1
786,0.2979390025138855,0.0707580000162124,-1.1539640426635742,-0.0191124994307756,-0.17586250603199,-0.0197999998927116,7,1
787,0.4458839893341064,0.0817819982767105,-0.4823850095272064,0.0701249986886978,-0.2993375062942505,0.0303875003010034,7,1
788,0.3115450143814087,0.0861919969320297,-0.0429489985108375,0.0211750008165836,-0.3359124958515167,0.1049124971032142,7,1
789,0.0346760004758834,0.1571169942617416,0.0173489991575479,-0.1204499974846839,-0.2663374841213226,0.1586750000715255,7,1
790,-0.0291959997266531,0.2041980028152465,0.0578569993376731,-0.259737491607666,-0.1123374998569488,0.1597750037908554,7,1
791,-0.0733819976449012,0.2953920066356659,0.1617110073566436,-0.3257375061511993,0.079475000500679,0.1036750003695488,7,1
792,-0.1580079942941665,0.2664380073547363,0.2179879993200302,-0.3355000019073486,0.1978625059127807,0.0401500016450881,7,1
793,-0.3060419857501983,0.3235189914703369,0.1392000019550323,-0.3269749879837036,0.2113374918699264,0.0034374999813735,7,1
794,-0.3204039931297302,0.3282169997692108,0.0860870033502578,-0.31597501039505,0.1795749962329864,-0.0173249989748001,7,1
795,-0.314422994852066,0.2933340072631836,0.3810139894485473,-0.2989250123500824,0.1502874940633773,-0.0246124994009733,7,1
796,0.0012610000558197,0.1814769953489303,0.4172700047492981,-0.2646875083446502,0.1600500047206878,-0.0283249989151954,7,1
797,0.4588949978351593,0.1557430028915405,0.6042860150337219,-0.2341624945402145,0.1453374922275543,-0.0148499999195337,7,1
798,0.722350001335144,0.1813900023698806,0.7212640047073364,-0.2304500043392181,0.0647625029087066,0.0083875004202127,7,1
799,0.2275470048189163,0.0771889984607696,0.4421780109405517,-0.227974995970726,-0.0549999997019767,0.0279124993830919,7,1
800,-0.1507569998502731,-0.0232580006122589,0.284276008605957,0.0248875003308057,0.0024749999865889,-0.0087999999523162,8,1
801,-0.0994390025734901,-0.0812299996614456,0.4206289947032928,-0.017875000834465,0.0452375002205371,-0.0050874999724328,8,1
802,0.0912929996848106,-0.0805639997124672,0.2681789994239807,-0.045924998819828,0.0915749967098236,-0.0038499999791383,8,1
803,0.1203079968690872,-0.0235590003430843,0.0412169992923736,-0.0448249988257885,0.1160499975085258,0.002199999988079,8,1
804,0.0714489966630935,0.0255810003727674,-0.2655220031738281,-0.0288750007748603,0.0940499976277351,0.0083875004202127,8,1
805,0.0660580024123191,0.1387840062379837,-0.402756005525589,0.0004124999977648,0.0415249988436698,0.0204875003546476,8,1
806,0.0542390011250972,0.1321740001440048,-0.2591150104999542,0.0419375002384185,-0.0072874999605119,0.0217249989509582,8,1
807,0.1803729981184005,0.0664199963212013,0.115677997469902,0.0639375001192092,-0.0257124993950128,0.0059124999679625,8,1
808,0.084146000444889,0.0167190004140138,0.3486210107803345,0.0664125010371208,0.0060499999672174,-0.0013749999925494,8,1
809,-0.0921579971909523,-0.0191600006073713,0.5131840109825134,0.0321750007569789,0.0452375002205371,-0.0026124999858438,8,1
810,-0.3036749958992004,-0.0416169986128807,0.5492780208587646,-0.0203499998897314,0.0745249986648559,-0.0075624999590218,8,1
811,-0.2140879929065704,-0.0272840000689029,0.4065690040588379,-0.0471624992787838,0.0952875018119812,-0.0173249989748001,8,1
812,0.0379890017211437,-0.0080949999392032,0.159630000591278,-0.0301124993711709,0.1123374998569488,-0.0331375002861022,8,1
813,0.1110540032386779,-0.0033519999124109,-0.0091620003804564,0.0089375004172325,0.1025749966502189,-0.0417999997735023,8,1
814,0.0530639998614788,0.0335769988596439,-0.0670159980654716,0.0566499978303909,0.0292875003069639,-0.0331375002861022,8,1
815,0.0951230004429817,0.0149259995669126,-0.1052640005946159,0.1018875017762184,-0.061049997806549,-0.0038499999791383,8,1
816,0.1955749988555908,-0.0844610035419464,-0.3071750104427337,0.133650004863739,-0.103812500834465,0.0131999999284744,8,1
817,0.3528349995613098,-0.1465329974889755,-0.6379849910736084,0.146987497806549,-0.0695749968290329,0.0059124999679625,8,1
818,0.4616059958934784,-0.1648879945278167,-0.9290249943733216,0.1458874940872192,-0.0037124999798834,0.002199999988079,8,1
819,0.8588849902153015,-0.2851380109786987,-1.5653430223464966,0.1384624987840652,0.0720499977469444,0.0034374999813735,8,1
820,1.1015520095825195,-0.2883880138397217,-2.3893818855285645,0.1348875015974044,0.151525005698204,-0.0013749999925494,8,1
821,0.7983149886131287,-0.2345370054244995,-2.696453094482422,0.1018875017762184,0.1942874938249588,-0.0233750008046627,8,1
822,0.2473820000886917,-0.2156919986009597,-2.690794944763184,0.0358874984085559,0.1893374919891357,-0.0613249987363815,8,1
823,-0.1355839967727661,-0.2522580027580261,-2.938220977783203,-0.0521125011146068,0.1771000027656555,-0.1163249984383583,8,1
824,-0.2427829951047897,-0.3023410141468048,-3.95627498626709,-0.201162502169609,0.1978625059127807,-0.206662505865097,8,1
825,0.7425969839096069,-0.6796249747276306,-6.753197193145752,-0.4100250005722046,0.2492875009775161,-0.3068999946117401,8,1
826,1.6777329444885254,-1.0784000158309937,-10.256921768188477,-0.6165499687194824,0.3139125108718872,-0.3642374873161316,8,1
827,1.600216031074524,-1.9296350479125977,-12.314119338989258,-0.8058875203132629,0.3873375058174133,-0.4009499847888946,8,1
828,1.4015580415725708,-2.9042789936065674,-12.50798511505127,-1.0172250270843506,0.456912487745285,-0.3887124955654144,8,1
829,0.7406100034713745,-3.741460084915161,-11.089856147766112,-1.356850028038025,0.5191999673843384,-0.4217124879360199,8,1
830,-0.614084005355835,-4.38990592956543,-8.63077163696289,-2.0092875957489014,0.4959625005722046,-0.5865749716758728,8,1
831,-1.7546119689941406,-5.071409225463867,-5.810701847076416,-2.9609251022338867,0.4838624894618988,-0.7710999846458435,8,1
832,-3.791106939315796,-5.416214942932129,-1.7671810388565063,-4.005512714385986,0.5791500210762024,-0.921387493610382,8,1
833,-5.6205878257751465,-4.238397121429443,2.4713308811187744,-5.012287616729736,0.5754374861717224,-1.0154374837875366,8,1
834,-5.420680999755859,-2.9799399375915527,5.331386089324951,-5.86011266708374,0.2333374917507171,-1.0509124994277954,8,1
835,-3.736649990081787,-2.435547113418579,6.513037204742432,-6.416025161743164,-0.3518624901771545,-0.9372000098228456,8,1
836,-1.09517502784729,-2.177056074142456,5.714326858520508,-6.6946001052856445,-0.9798250198364258,-0.7063375115394592,8,1
837,1.2036999464035034,-2.0297529697418213,5.769264221191406,-6.615125179290772,-1.43426251411438,-0.278712511062622,8,1
838,2.586323976516724,-1.903095006942749,7.246604919433594,-6.101974964141846,-1.513737440109253,0.3772999942302704,8,1
839,3.030869960784912,-1.7365219593048096,9.631589889526367,-5.307912349700928,-1.3121625185012815,0.9124500155448914,8,1
840,2.5144848823547363,-1.3863979578018188,11.837564468383787,-4.53695011138916,-0.9321125149726868,1.1360249519348145,8,1
841,1.2722140550613403,-0.9130849838256836,12.45727252960205,-3.968937397003174,-0.4728625118732452,1.081025004386902,8,1
842,0.1763650029897689,-0.7058929800987244,11.04090404510498,-3.438737392425537,-0.0574750006198883,0.8194999694824219,8,1
843,-0.7931650280952454,-0.3483889997005462,8.678226470947266,-2.764299869537353,0.0915749967098236,0.4457750022411346,8,1
844,-1.0044549703598022,0.1578370034694671,6.686487197875977,-1.885949969291687,-0.1795749962329864,0.0681999996304512,8,1
845,-0.7825899720191956,0.3838450014591217,4.487123012542725,-0.8449375033378601,-0.7293000221252441,-0.1871374994516372,8,1
846,0.1310909986495971,0.3637579977512359,2.6732449531555176,0.1776500046253204,-1.2694000005722046,-0.2763749957084656,8,1
847,1.2866859436035156,0.3077470064163208,2.038393974304199,0.9497125148773192,-1.551550030708313,-0.2116124927997589,8,1
848,2.313304901123047,-0.0232710000127553,1.6449899673461914,1.4421000480651855,-1.4330250024795532,-0.038087498396635,8,1
849,2.99429702758789,-0.4796960055828094,2.341927051544189,1.7047250270843506,-0.9211124777793884,0.1574375033378601,8,1
850,2.5793240070343018,-0.5376420021057129,4.226296901702881,1.7645374536514282,-0.151525005698204,0.3284874856472015,8,1
851,1.721567988395691,-0.6332030296325684,7.593145847320557,1.6607249975204468,0.4251500070095062,0.4005374908447265,8,1
852,0.8880460262298584,-0.7356470227241516,11.45030689239502,1.532437443733215,0.7024874687194824,0.3613499999046325,8,1
853,0.2974649965763092,-1.1751370429992676,13.842453002929688,1.4421000480651855,0.7562500238418579,0.2307250052690506,8,1
854,-0.0783590003848075,-1.9936089515686035,13.003893852233888,1.424912452697754,0.5912500023841858,-0.0013749999925494,8,1
855,-0.4152989983558655,-2.870121955871582,8.708495140075684,1.6669124364852903,0.3383874893188476,-0.1834249943494796,8,1
856,0.1175699979066848,-3.5863349437713623,3.5024189949035645,2.275212526321411,-0.0488125011324882,-0.333712488412857,8,1
857,0.7751359939575195,-3.724639892578125,-1.2717399597167969,3.31003737449646,-0.3310999870300293,-0.4387624859809875,8,1
858,1.9144400358200075,-3.976006984710693,-4.383439064025879,4.569674968719482,-0.3176249861717224,-0.5022875070571899,8,1
859,2.0134921073913574,-3.703314065933228,-6.2224321365356445,5.663074970245361,-0.0085249999538064,-0.4901874959468841,8,1
860,1.899467945098877,-2.965837001800537,-5.562404155731201,6.23122501373291,0.3555749952793121,-0.4119499921798706,8,1
861,1.7419639825820925,-2.340475082397461,-4.558868885040283,6.264087677001953,0.5302000045776367,-0.317900002002716,8,1
862,0.870481014251709,-1.701997995376587,-5.349583148956299,5.934225082397461,0.4923875033855438,-0.2506625056266784,8,1
863,-0.1392949968576431,-1.496997952461243,-6.249312877655029,5.362500190734863,0.2565749883651733,-0.2994749844074249,8,1
864,-1.781705021858215,-1.170225977897644,-6.543153762817383,4.705249786376953,-0.103812500834465,-0.3972375094890594,8,1
865,-3.0577468872070312,-0.9491659998893738,-5.935404777526856,4.137099742889404,-0.5216749906539917,-0.5744749903678894,8,1
866,-3.249664068222046,-0.7665640115737915,-5.583511829376221,3.738899946212769,-0.5314375162124634,-0.729574978351593,8,1
867,-2.569330930709839,-0.6737719774246216,-5.511648178100586,3.256274938583374,-0.2931500077247619,-0.7710999846458435,8,1
868,-1.670932054519653,-0.6089169979095459,-5.206996917724609,2.629549980163574,-0.0402874983847141,-0.7112874984741211,8,1
869,-1.000646948814392,-0.6689329743385315,-4.602889060974121,2.0504000186920166,0.1868624985218048,-0.4779500067234039,8,1
870,-0.5833669900894165,-0.6145340204238892,-3.563637018203736,1.5727249383926392,0.3249124884605407,-0.1566125005483627,8,1
871,-0.0630009993910789,-0.6121469736099243,-2.474108934402466,1.1402875185012815,0.4324375092983246,0.1256749927997589,8,1
872,0.1735769957304,-0.7231349945068359,-1.6540700197219849,0.7309499979019165,0.4972000122070312,0.2857249975204468,8,1
873,-0.174576997756958,-0.8031150102615356,-0.9681379795074464,0.3693250119686126,0.4263874888420105,0.3455374836921692,8,1
874,-0.7977970242500305,-0.6705030202865601,-0.638638973236084,0.0859375,0.2406249940395355,0.3235374987125397,8,1
875,-1.2328859567642212,-0.582813024520874,-0.6275709867477417,-0.0631124973297119,0.0585750006139278,0.2563000023365021,8,1
876,-1.0586329698562622,-0.5942500233650208,-1.140401005744934,-0.0936374962329864,0.0635249987244606,0.1427250057458877,8,1
877,-0.4683879911899566,-0.6154469847679138,-1.6850340366363523,-0.0373999997973442,0.1893374919891357,0.0474375002086162,8,1
878,-0.1450839936733245,-0.4556129872798919,-1.8670510053634644,0.0639375001192092,0.273624986410141,0.0266750007867813,8,1
879,-0.0491769984364509,-0.4404500126838684,-1.757997989654541,0.1507000029087066,0.2418625056743621,0.076724998652935,8,1
880,-0.0089689996093511,-0.4433040022850036,-1.2211110591888428,0.1885125041007995,0.1380500048398971,0.1684374958276748,8,1
881,0.3432460129261017,-0.4305070042610168,-0.721297025680542,0.1507000029087066,0.0268124993890523,0.2380124926567077,8,1
882,0.4585759937763214,-0.3674699962139129,-0.1031550019979476,0.0444125011563301,-0.0708125010132789,0.2429624944925308,8,1
883,0.1058840006589889,-0.1951449960470199,0.2530460059642792,-0.0838750004768371,-0.1637624949216842,0.2135374993085861,8,1
884,-0.2405720055103302,0.015871999785304,0.1867830008268356,-0.1974499970674514,-0.2663374841213226,0.195250004529953,8,1
885,-0.2685570120811462,0.1681710034608841,0.0203869994729757,-0.2622124850749969,-0.282150000333786,0.1707749962806701,8,1
886,-0.0602619983255863,0.1825979948043823,-0.0947280004620552,-0.2634499967098236,-0.151525005698204,0.113437496125698,8,1
887,0.1672320067882537,0.2838850021362304,-0.0382939986884593,-0.1901624947786331,0.0488125011324882,0.0791999995708465,8,1
888,0.3132489919662475,0.3338249921798706,0.1224230006337165,-0.12168750166893,0.1795749962329864,0.0852499976754188,8,1
889,0.4850150048732757,0.1911370009183883,0.047614000737667,-0.0863500013947486,0.2248124927282333,0.1194875016808509,8,1
890,0.5363410115242004,0.2356899976730346,-0.0995249971747398,-0.0765874981880188,0.1955250054597854,0.1537249982357025,8,1
891,0.5720530152320862,0.1836459934711456,-0.2697919905185699,-0.0875874981284141,0.1050499975681305,0.1574375033378601,8,1
892,0.4024899899959564,0.2508440017700195,-0.2507329881191253,-0.0985874980688095,-0.0207624994218349,0.1377750039100647,8,1
893,0.089148998260498,0.3031730055809021,-0.0303390007466077,-0.0996875017881393,-0.1233374997973442,0.1036750003695488,8,1
894,-0.0348739996552467,0.2506580054759979,0.2138960063457489,-0.1046374961733818,-0.1270499974489212,0.0644875019788742,8,1
895,-0.1883479952812194,0.196491003036499,0.3907429873943329,-0.1229249984025955,-0.0147124994546175,0.0241999998688697,8,1
896,-0.356683999300003,0.2275889962911605,0.753607988357544,-0.1498750001192093,0.1417624950408935,-0.0173249989748001,8,1
897,-0.401883989572525,0.2093410044908523,0.847823977470398,-0.1803999990224838,0.2626250088214874,-0.0430375002324581,8,1
898,-0.332491010427475,0.2265609949827194,0.8488669991493225,-0.1876875013113021,0.3396250009536743,-0.0515624992549419,8,1
899,-0.2409179955720901,0.227632001042366,0.2347429990768432,-0.1669249981641769,0.3616249859333038,-0.0503249987959861,8,1
900,-0.1186510026454925,0.026970999315381,-0.3627429902553558,0.2117500007152557,-0.1245749965310096,-0.1553750038146972,9,1
901,-0.1116909980773925,0.0068589998409152,0.1415989995002746,0.1934625059366226,-0.1307625025510788,-0.086899995803833,9,1
902,-0.037941999733448,-0.1113059967756271,0.7294129729270935,0.1287000030279159,-0.0928125008940696,-0.0320375002920627,9,1
903,0.3191690146923065,-0.1294839978218078,1.0337979793548584,0.0554125010967254,0.0122375003993511,0.0144375003874301,9,1
904,0.469292014837265,-0.1403699964284896,0.6901900172233582,-0.0166375003755092,0.1282874941825866,0.0474375002086162,9,1
905,0.5797790288925171,-0.0737499967217445,0.4614210128784179,-0.0679249987006187,0.1698125004768371,0.0596750006079673,9,1
906,0.3535450100898742,0.0131059996783733,0.2347880005836486,-0.050875000655651,0.1465750038623809,0.0632499977946281,9,1
907,0.0118829999119043,0.1781730055809021,0.6174079775810242,0.0138875003904104,0.0367125011980533,0.0437249988317489,9,1
908,-0.4479449987411499,0.2396900057792663,0.8190180063247681,0.1054624989628791,-0.0232375003397464,-0.0038499999791383,9,1
909,-0.735846996307373,0.1972900032997131,0.7724800109863281,0.1714625060558319,-0.0170499999076128,-0.0686125010251998,9,1
910,-0.292616993188858,0.0672859996557235,0.2805419862270355,0.194700002670288,0.0195249989628791,-0.1163249984383583,9,1
911,0.1665699928998947,-0.0512490011751651,-0.0326140001416206,0.2117500007152557,0.0585750006139278,-0.1406625062227249,9,1
912,0.3518680036067962,-0.0511769987642765,-0.0260540004819631,0.2557500004768371,0.0378125011920928,-0.1211374998092651,9,1
913,0.3803679943084717,-0.1013600006699562,-0.1725199967622757,0.3242250084877014,-0.0049499999731779,-0.0613249987363815,9,1
914,0.2373300045728683,-0.1759860068559646,-0.4597389996051788,0.3620375096797943,-0.0574750006198883,0.0096249999478459,9,1
915,0.1274960041046142,-0.1514839977025985,-0.8371599912643433,0.3535124957561493,-0.053762499243021,0.022962499409914,9,1
916,0.0308110006153583,-0.1120299994945526,-1.4007999897003174,0.3315125107765198,-0.0024749999865889,-0.0050874999724328,9,1
917,0.1659169942140579,-0.1491840034723281,-1.8808560371398928,0.3180375099182129,0.0720499977469444,-0.0393249988555908,9,1
918,0.1157919988036155,-0.1617839932441711,-2.513772964477539,0.3009875118732452,0.1392875015735626,-0.0723249986767768,9,1
919,0.0731460005044937,-0.2625260055065155,-3.1889541149139404,0.2582249939441681,0.1942874938249588,-0.0991374999284744,9,1
920,-0.0215680003166198,-0.248879000544548,-3.883359909057617,0.1764124929904937,0.2370499968528747,-0.1175625026226043,9,1
921,0.0930859968066215,-0.5407729744911194,-4.9449567794799805,0.0554125010967254,0.2968625128269195,-0.1260875016450882,9,1
922,0.6981819868087769,-0.8444740176200867,-6.9054388999938965,-0.097350001335144,0.3323374986648559,-0.1468500047922134,9,1
923,1.2849910259246826,-1.2487189769744873,-9.53144073486328,-0.2866874933242798,0.3958624899387359,-0.1578499972820282,9,1
924,1.583359956741333,-1.7709929943084717,-12.066058158874512,-0.5310249924659729,0.4190999865531921,-0.166374996304512,9,1
925,1.322746992111206,-2.7211270332336426,-13.952146530151367,-0.8303624987602234,0.3848625123500824,-0.166374996304512,9,1
926,0.1540569961071014,-3.769921064376831,-14.668180465698242,-1.2273249626159668,0.3053874969482422,-0.206662505865097,9,1
927,0.1591649949550628,-5.042162895202637,-14.41690731048584,-1.7929999828338623,0.2675749957561493,-0.3104749917984009,9,1
928,1.1476930379867554,-6.911108016967773,-12.893644332885742,-2.557775020599365,0.3873375058174133,-0.4742375016212463,9,1
929,0.2141769975423813,-7.660510063171387,-9.33592700958252,-3.5290749073028564,0.3946250081062317,-0.6403374671936035,9,1
930,-1.5003299713134766,-7.627836227416992,-4.445775985717773,-4.6909499168396,0.1430000066757202,-0.75638747215271,9,1
931,-3.628273010253906,-6.587092876434326,2.6020278930664062,-5.90892505645752,-0.2638624906539917,-0.7222874760627747,9,1
932,-5.41387414932251,-4.254813194274902,11.35792064666748,-7.0573248863220215,-0.7282000184059143,-0.6660500168800354,9,1
933,-4.82676887512207,-1.50062894821167,19.01875305175781,-7.937049865722656,-0.8760125041007996,-0.6758124828338623,9,1
934,-3.719238996505737,0.2642549872398376,22.886478424072266,-8.417200088500977,-0.7525374889373779,-0.5915250182151794,9,1
935,-2.5256919860839844,0.971314013004303,22.64752960205078,-8.419537544250488,-0.6096749901771545,-0.3704249858856201,9,1
936,-0.7317929863929749,0.6108009815216064,19.360599517822266,-7.778237342834473,-0.594962477684021,-0.0173249989748001,9,1
937,1.0169340372085571,-0.4947850108146667,14.163458824157717,-6.394024848937988,-0.7464874982833862,0.3931125104427337,9,1
938,2.462932109832764,-1.9764150381088257,7.382473945617676,-4.383087635040283,-0.8234875202178955,0.6033499836921692,9,1
939,3.2122950553894043,-2.7388648986816406,0.6027050018310547,-2.168099880218506,-0.805062472820282,0.6716874837875366,9,1
940,3.224807977676392,-2.5201199054718018,-4.614496231079102,-0.1864500045776367,-0.9200124740600586,0.7328749895095825,9,1
941,3.52720308303833,-1.9737329483032229,-5.786713123321533,1.3296250104904177,-1.2339249849319458,0.7022125124931335,9,1
942,3.430263996124268,-1.1765409708023071,-2.4512710571289062,2.283874988555908,-1.485550045967102,0.6131125092506409,9,1
943,2.634084939956665,-0.3452689945697784,4.485494136810303,2.4975500106811523,-1.5162124633789062,0.4908750057220459,9,1
944,0.9323790073394777,0.2593570053577423,11.8514986038208,1.978350043296814,-1.1411124467849731,0.4102999866008758,9,1
945,-0.8299959897994995,0.7003229856491089,17.726205825805664,0.9679999947547911,-0.3896749913692474,0.4065875113010406,9,1
946,-1.4604719877243042,-0.104992002248764,19.540077209472656,-0.0691625028848648,0.5436750054359436,0.341825008392334,9,1
947,-0.4605500102043152,-1.7155870199203491,15.60507869720459,-0.5945500135421753,1.4097875356674194,0.1817750036716461,9,1
948,0.911732017993927,-2.519066095352173,9.190564155578612,-0.3647874891757965,1.9241750240325928,-0.0013749999925494,9,1
949,3.0835509300231934,-2.6796600818634038,2.9511959552764893,0.654087483882904,1.881412506103516,-0.0979000031948089,9,1
950,4.663854122161865,-2.454588890075684,-1.4109859466552734,2.2434499263763428,1.2497375011444092,-0.0307999998331069,9,1
951,4.029170036315918,-1.825126051902771,-3.896656036376953,3.90128755569458,0.2503874897956848,0.0534874983131885,9,1
952,2.3724091053009038,-1.2488640546798706,-4.242485046386719,5.093687534332275,-0.6230124831199646,0.0279124993830919,9,1
953,0.5222070217132568,-1.1284539699554443,-3.100961923599243,5.644787311553955,-0.935824990272522,-0.1101374998688697,9,1
954,-0.6214960217475891,-1.4936740398406982,-3.530632972717285,5.664312362670898,-0.6352499723434448,-0.4144249856472015,9,1
955,-1.385606050491333,-1.7972559928894043,-5.501070976257324,5.360024929046631,0.0549999997019767,-0.8090500235557556,9,1
956,-1.9717589616775515,-1.0561460256576538,-7.897597789764404,4.88730001449585,0.6230124831199646,-1.0752500295639038,9,1
957,-1.7415839433670044,-0.5114690065383911,-9.890007019042969,4.444962501525879,0.681725025177002,-1.1412500143051147,9,1
958,-1.298248052597046,-0.5653280019760132,-10.260164260864258,4.1921000480651855,0.2613874971866607,-1.0423874855041504,9,1
959,-1.428130030632019,-0.460981011390686,-7.911456108093262,3.956287384033203,-0.4226749837398529,-0.8749125003814697,9,1
960,-2.276129007339477,-0.4463750123977661,-4.415731906890869,3.446850061416626,-1.1496374607086182,-0.738099992275238,9,1
961,-3.112071990966797,-0.7420600056648254,-0.9100580215454102,2.669837474822998,-1.4147374629974363,-0.607337474822998,9,1
962,-3.420409917831421,-0.6765999794006348,1.455525040626526,1.7694875001907349,-1.0286375284194946,-0.4839999973773956,9,1
963,-2.608422040939331,-0.8206599950790405,1.7811089754104614,0.9191874861717224,-0.2833875119686126,-0.403425008058548,9,1
964,-0.8471850156784058,-1.198030948638916,-0.5055320262908936,0.3840374946594238,0.5619624853134155,-0.2958999872207641,9,1
965,1.3332829475402832,-1.3072750568389893,-2.949352979660034,0.2569875121116638,1.088587522506714,-0.0930875018239021,9,1
966,2.679898977279663,-0.8321959972381592,-4.156691074371338,0.4402749836444855,1.0042999982833862,0.1574375033378601,9,1
967,2.298103094100952,-0.5462980270385742,-3.842848062515259,0.803137481212616,0.4361499845981598,0.4090625047683716,9,1
968,0.5081809759140015,-0.2324080020189285,-2.7487330436706543,1.1255749464035034,-0.167337492108345,0.5543999671936035,9,1
969,-1.089601993560791,-0.0318429991602897,-2.162623882293701,1.142762541770935,-0.5937250256538391,0.5178250074386597,9,1
970,-1.7542439699172974,0.0621320009231567,-2.1981871128082275,0.8849499821662903,-0.7440124750137329,0.2978250086307525,9,1
971,-1.2899800539016724,0.1150510013103485,-2.5713589191436768,0.5820375084877014,-0.5461499691009521,-0.0173249989748001,9,1
