,acc_x,acc_y,acc_z,gyr_x,gyr_y,gyr_z,sample,label
0,0.0838219970464706,0.0147230001166462,-0.2509520053863525,-0.0534874983131885,-0.1123374998569488,0.0299750007688999,0,2
1,0.1119270026683807,0.0302339997142553,-0.2180130034685135,-0.0681999996304512,-0.0879999995231628,0.0226875003427267,0,2
2,0.1248070001602172,0.0711269974708557,0.0142010003328323,-0.0534874983131885,-0.0085249999538064,0.0189750008285045,0,2
3,0.0019239999819546,0.0658430010080337,0.2225939929485321,0.0015124999918043,0.0684750005602836,0.0189750008285045,0,2
4,-0.1642740070819854,0.1083829998970031,0.2610709965229034,0.056512501090765,0.1172875016927719,0.0397375002503395,0,2
5,-0.0892810001969337,0.0522960014641284,0.1782409995794296,0.0845625028014183,0.103812500834465,0.066550001502037,0,2
6,0.0631330013275146,-0.0334689989686012,-0.1566849946975708,0.0710875019431114,0.0402874983847141,0.073974996805191,0,2
7,0.1578830033540725,-0.0254890006035566,-0.3596819937229156,0.0197999998927116,-0.0060499999672174,0.0677874982357025,0,2
8,0.154229998588562,-0.0048070000484585,-0.3837989866733551,-0.0339624993503093,-0.0317624993622303,0.0555500015616416,0,2
9,0.1102889999747276,0.0455989986658096,-0.3206749856472015,-0.0705375000834465,-0.0292875003069639,0.0507375001907348,0,2
10,0.1317780017852783,0.0087010003626346,-0.1421519964933395,-0.0852499976754188,-0.0109999999403953,0.0507375001907348,0,2
11,0.1361960023641586,-0.0395420007407665,-0.1608839929103851,-0.0864875018596649,-0.0037124999798834,0.0434499979019165,0,2
12,-0.0905840024352073,0.0246140006929636,-0.2249480038881302,-0.0987249985337257,0.0097624994814395,0.0434499979019165,0,2
13,-0.321821004152298,0.1885470002889633,-0.1328539997339248,-0.1317249983549118,0.0060499999672174,0.070262499153614,0,2
14,-0.32601198554039,0.1427710056304931,0.0031510000117123,-0.1585374921560287,-0.0170499999076128,0.1117874979972839,0,2
15,-0.2316550016403198,0.073801003396511,0.0590239986777305,-0.1720124930143356,-0.0305249989032745,0.1447875052690506,0,2
16,-0.075384996831417,0.0875969976186752,0.2426880002021789,-0.1645874977111816,-0.0147124994546175,0.172837495803833,0,2
17,0.0839530006051063,0.048199001699686,0.3525159955024719,-0.1292500048875808,-0.0072874999605119,0.1753125041723251,0,2
18,0.1871400028467178,0.0217899996787309,0.1700610071420669,-0.0827749967575073,0.0170499999076128,0.1717374920845031,0,2
19,0.179526001214981,-0.0479299984872341,0.0314120016992092,-0.0437249988317489,0.0695749968290329,0.1618375033140182,0,2
20,0.1186389997601509,-0.037321001291275,-0.0962179973721504,-0.0167750008404254,0.1148125007748603,0.1508374959230423,0,2
21,-0.8298599720001221,0.254925012588501,-0.3595040142536163,-0.0082499999552965,0.1685750037431717,0.1607374995946884,0,2
22,-2.7180581092834477,1.3038649559020996,-0.1967490017414093,-0.0057749999687075,0.2968625128269195,0.3011249899864197,0,2
23,-4.381476879119873,2.0149450302124023,0.0812940001487732,0.0185624994337558,0.3884375095367431,0.6297500133514404,0,2
24,-6.005794048309326,2.7924699783325195,-0.1062140017747879,0.0369874984025955,0.4531999826431274,1.08308744430542,0,2
25,-6.6005940437316895,3.141021013259888,-0.5889710187911987,0.0197999998927116,0.515625,1.6535749435424805,0,2
26,-6.383360862731934,2.493911027908325,-1.6111170053482056,-0.0717749968171119,0.5411999821662903,2.2167749404907227,0,2
27,-7.11405611038208,2.5990428924560547,-2.3722739219665527,-0.2501125037670135,0.6329125165939331,2.726212501525879,0,2
28,-6.487867832183838,1.8628909587860107,-3.288249015808105,-0.4761624932289123,0.6719624996185303,3.263837575912476,0,2
29,-5.182666778564453,0.0660419985651969,-4.322414875030518,-0.7804499864578247,0.7000125050544739,3.6596999168396,0,2
30,-5.193785190582275,-0.3345479965209961,-4.688783168792725,-1.1138875484466553,0.8967750072479248,3.889324903488159,0,2
31,-6.509214878082275,-0.2564519941806793,-4.05968713760376,-1.4144624471664429,1.2168749570846558,4.153187274932861,0,2
32,-5.944356918334961,-0.9049710035324096,-3.0661981105804443,-1.5879875421524048,1.5405499935150146,4.517287254333496,0,2
33,-4.220465183258057,-2.248823881149292,-2.221101999282837,-1.6990875005722046,1.7531249523162842,4.82886266708374,0,2
34,-1.2357269525527954,-3.32779598236084,-1.6705249547958374,-1.820087432861328,1.841125011444092,4.924149990081787,0,2
35,4.057003021240234,-4.558444023132324,-0.4516099989414215,-1.94837498664856,1.7506500482559204,4.715149879455566,0,2
36,8.607032775878906,-5.362151145935059,1.3484070301055908,-2.0741875171661377,1.4172124862670898,4.035900115966797,0,2
37,10.612380027770996,-5.640389919281006,3.640434980392456,-2.148712396621704,0.8882499933242798,3.057312488555908,0,2
38,10.370384216308594,-5.647605895996094,5.2644147872924805,-2.0559000968933105,0.1649999916553497,2.015199899673462,0,2
39,8.633734703063965,-5.0142130851745605,5.4935407638549805,-1.7602750062942505,-0.5619624853134155,1.1356124877929688,0,2
40,7.345436096191406,-4.04018497467041,4.138566970825195,-1.328937530517578,-0.9858750104904176,0.5039374828338623,0,2
41,6.511773109436035,-3.8522660732269287,2.812721967697144,-0.8867374658584595,-0.8820624947547913,0.0654499977827072,0,2
42,6.131837844848633,-4.500271797180176,3.3419740200042725,-0.4736874997615814,-0.4849624931812286,-0.3096500039100647,0,2
43,5.952890872955322,-4.921106815338135,4.304842948913574,-0.0144375003874301,-0.1942874938249588,-0.7017999887466431,0,2
44,5.971889972686768,-4.994174957275391,4.622348785400391,0.4987125098705292,0.0024749999865889,-1.0451375246047974,0,2
45,6.66845178604126,-5.373586177825928,5.178625106811523,0.9861499667167664,0.1868624985218048,-1.3994749784469604,0,2
46,7.677064895629883,-6.211857795715332,5.616655826568604,1.4174875020980835,0.1172875016927719,-1.8941999673843384,0,2
47,9.13973331451416,-7.083762168884277,5.196792125701904,1.6911125183105469,-0.2846249938011169,-2.5673999786376958,0,2
48,9.041667938232422,-7.143154144287109,3.8835771083831783,1.7595875263214111,-0.7477250099182129,-3.355412483215332,0,2
49,6.221414089202881,-6.52243709564209,2.180143117904663,1.710637450218201,-0.9602999687194824,-4.052949905395508,0,2
50,1.8729209899902344,-5.303317070007324,1.389404058456421,1.642300009727478,-0.8112499713897705,-4.4317626953125,0,2
51,-2.2542200088500977,-3.838273048400879,0.9056000113487244,1.6618249416351318,-0.5326749682426453,-4.40728759765625,0,2
52,-6.585454940795898,-1.278594970703125,0.6113560199737549,1.7656375169754028,-0.1440999954938888,-4.002900123596191,0,2
53,-8.025057792663574,1.515192985534668,-0.0874290019273758,1.8951624631881716,0.2296250015497207,-3.1843624114990234,0,2
54,-5.543529987335205,1.985577940940857,-1.4535720348358154,1.9281624555587769,0.5876749753952026,-2.265587568283081,0,2
55,-1.8223860263824463,1.1070430278778076,-1.6983829736709597,1.7619249820709229,0.8307750225067139,-1.6853375434875488,0,2
56,0.4855619966983795,0.0646860003471374,-1.2650909423828125,1.441825032234192,0.6682500243186951,-1.520337462425232,0,2
57,0.3386909961700439,0.07914499938488,-0.9261429905891418,1.01791250705719,0.1209999993443489,-1.538762450218201,0,2
58,-0.414095014333725,0.5154290199279785,-0.6481750011444092,0.6001874804496765,-0.5669124722480774,-1.527762532234192,0,2
59,-0.9130150079727172,0.933624029159546,-1.0518909692764282,0.2813250124454498,-1.1483999490737915,-1.440999984741211,0,2
60,-1.0398080348968506,1.082859992980957,-1.653607964515686,0.0760374963283538,-1.4207874536514282,-1.305425047874451,0,2
61,-1.1268390417099,1.1162630319595337,-2.211577892303467,-0.0155375003814697,-1.3462624549865725,-1.155137538909912,0,2
62,-1.23205304145813,1.0220810174942017,-2.7084789276123047,-0.0107249999418854,-0.988349974155426,-0.9693750143051147,0,2
63,-1.8295730352401731,1.4231079816818235,-2.45750093460083,0.0345125012099742,-0.4471499919891357,-0.7507500052452087,0,2
64,-2.162108898162842,1.676730036735535,-1.8087830543518064,0.0930875018239021,0.0122375003993511,-0.4636499881744385,0,2
65,-1.6434500217437744,1.356847047805786,-1.4733619689941406,0.110275000333786,0.2528625130653381,-0.188787505030632,0,2
66,-0.57743901014328,0.8424559831619263,-1.2310819625854492,0.0270875003188848,0.310337483882904,-0.0017874999903142,0,2
67,0.4510369896888733,0.274520993232727,-0.4100030064582824,-0.1109625026583671,0.2613874971866607,0.066550001502037,0,2
68,0.9762160181999208,-0.2275909930467605,0.4464820027351379,-0.2147749960422516,0.0915749967098236,0.0347874984145164,0,2
69,1.041638970375061,-0.4472540020942688,0.7895039916038513,-0.2635875046253204,-0.107524998486042,-0.0335500016808509,0,2
70,0.4936769902706146,-0.3102659881114959,0.8818730115890503,-0.2685374915599823,-0.2138125002384185,-0.0860750004649162,0,2
71,-0.0983090028166771,-0.058313999325037,1.1138639450073242,-0.2330625057220459,-0.2443374991416931,-0.0715000033378601,0,2
72,-0.5032539963722229,0.0171649996191263,0.674780011177063,-0.1645874977111816,-0.2320999950170517,0.0030249999836087,0,2
73,-0.6295620203018188,0.2094350010156631,0.2825439870357513,-0.1157749965786933,-0.0672374963760376,0.1252624988555908,0,2
74,-0.3403699994087219,0.0854040011763572,0.6149299740791321,-0.0681999996304512,0.2040500044822693,0.2743124961853027,0,2
75,0.2286159992218017,-0.3155109882354736,1.2756500244140625,-0.0094875004142522,0.3884375095367431,0.3818374872207641,0,2
76,0.9446420073509216,-0.6857849955558777,1.7335519790649414,0.0345125012099742,0.3860999941825866,0.4184125065803528,0,2
77,1.5082809925079346,-0.93026202917099,1.729761004447937,0.03575000166893,0.2065249979496002,0.3818374872207641,0,2
78,1.631129026412964,-0.9306960105895996,1.18149995803833,-0.0217249989509582,-0.0439999997615814,0.3011249899864197,0,2
79,1.2494629621505735,-0.6867079734802246,0.985174000263214,-0.1145374998450279,-0.2235749959945678,0.2278375029563903,0,2
80,0.9540619850158693,-0.4989260137081146,0.9090330004692078,-0.1755875051021576,-0.3786749839782715,0.1935999989509582,0,2
81,1.0741230249404907,-0.5536460280418396,0.5963640213012695,-0.2123000025749206,-0.4789125025272369,0.1838375031948089,0,2
82,1.3586809635162354,-0.5833320021629333,0.3685370087623596,-0.2232999950647354,-0.4581499993801117,0.1595000028610229,0,2
83,1.191540002822876,-0.5426309704780579,0.3300220072269439,-0.1830125004053115,-0.3018124997615814,0.1240250021219253,0,2
84,0.8563479781150818,-0.4104189872741699,0.705269992351532,-0.0987249985337257,-0.103812500834465,0.1142624989151954,0,2
85,0.9615060091018676,-0.4516420066356659,0.7883960008621216,0.0015124999918043,-0.0037124999798834,0.1179749965667724,0,2
86,1.160838007926941,-0.4920569956302643,0.4654049873352051,0.0662750005722045,0.0257124993950128,0.0849749967455864,0,2
87,1.1387410163879397,-0.3425059914588928,0.1770109981298446,0.0820875018835067,0.0390499979257583,0.0372624993324279,0,2
88,1.120195984840393,-0.2740339934825897,0.2052450031042099,0.0723249986767768,0.0402874983847141,-0.0017874999903142,0,2
89,1.325292944908142,-0.5123109817504883,0.5617480278015137,0.0662750005722045,0.032999999821186,-0.0482624992728233,0,2
90,1.0915839672088623,-0.5287690162658691,0.6366739869117737,0.1053249984979629,0.0085249999538064,-0.11302500218153,0,2
91,0.3830060064792633,-0.2303130030632019,0.4918299913406372,0.142037495970726,0.0024749999865889,-0.1398375034332275,0,2
92,-0.2097460031509399,0.079254001379013,0.2583059966564178,0.166374996304512,-0.0122375003993511,-0.1055999994277954,0,2
93,-0.2271900027990341,0.1301629990339279,-0.1564870029687881,0.1530375033617019,-0.0452375002205371,-0.0335500016808509,0,2
94,0.250025987625122,0.0402350015938282,-0.4430299997329712,0.0943249985575676,-0.075762502849102,0.0202124994248151,0,2
95,0.8197870254516602,-0.2192659974098205,-0.5176330208778381,0.0259875003248453,-0.0867625027894973,0.0152624994516372,0,2
96,1.1223419904708862,-0.3287220001220703,-0.4132109880447387,-0.0155375003814697,-0.0635249987244606,-0.0360249988734722,0,2
97,1.057953953742981,-0.2470719963312149,-0.1696829944849014,-0.0217249989509582,-0.0072874999605119,-0.1093124970793724,0,2
98,0.5189779996871948,-0.072562001645565,0.1890030056238174,0.0125124994665384,0.0769999995827674,-0.1570249944925308,0,2
99,0.0091279996559023,0.0704789981245994,0.5328249931335449,0.0906125009059906,0.1502874940633773,-0.1483625024557113,0,2
100,-0.0822120010852813,0.0493590012192726,0.120117999613285,-0.0217249989509582,0.0122375003993511,-0.0262624993920326,1,2
101,-0.05927399918437,0.0358420014381408,0.4534029960632324,-0.0131999999284744,0.0109999999403953,-0.016499999910593,1,2
102,0.0478160008788108,-0.0853200033307075,0.5017920136451721,0.0222750008106231,-0.0170499999076128,-0.0115499999374151,1,2
103,0.149056002497673,-0.1354739964008331,0.2382189929485321,0.05884999781847,-0.0342375002801418,-0.0152624994516372,1,2
104,0.1081480011343956,-0.0518900007009506,-0.1008210033178329,0.0698499977588653,-0.0415249988436698,-0.0262624993920326,1,2
105,0.0156060000881552,0.0154290003702044,-0.3108420073986053,0.0503249987959861,-0.0415249988436698,-0.0250249989330768,1,2
106,0.0515610016882419,0.0297829993069171,-0.3121539950370788,0.0112749999389052,-0.0488125011324882,-0.0189750008285045,1,2
107,0.1504600048065185,0.0213109999895095,-0.285643994808197,-0.022962499409914,-0.0659999996423721,-0.0213124994188547,1,2
108,0.2260729968547821,-0.0213459990918636,-0.1365160048007965,-0.0437249988317489,-0.061049997806549,-0.0360249988734722,1,2
109,0.2001850008964538,-0.0955400019884109,-0.0807249993085861,-0.0364375002682209,-0.0427624993026256,-0.0567874982953071,1,2
110,0.1815859973430633,-0.1593369990587234,0.009630000218749,-0.0217249989509582,-0.0232375003397464,-0.0763124972581863,1,2
111,0.1694850027561187,-0.1221550032496452,-0.0775770023465156,-0.0094875004142522,-0.0439999997615814,-0.1032624989748001,1,2
112,0.0602990016341209,-0.0539159998297691,-0.2340590059757232,-0.0167750008404254,-0.0452375002205371,-0.1165999993681907,1,2
113,0.1015399992465972,-0.0502760000526905,-0.1991830021142959,-0.0217249989509582,-0.0170499999076128,-0.1227874979376792,1,2
114,-0.0364230014383792,0.0052490001544356,-0.1759520024061203,-0.0119624994695186,0.0305249989032745,-0.1263625025749206,1,2
115,-0.2014070004224777,0.072841003537178,0.0209110006690025,0.0197999998927116,0.1233374997973442,-0.11302500218153,1,2
116,-0.6683409810066223,0.1811829954385757,0.3262229859828949,0.0785124972462654,0.2175250053405761,-0.0787874981760978,1,2
117,-0.8681300282478333,0.306335985660553,0.3321579992771148,0.134612500667572,0.2370499968528747,-0.0079749999567866,1,2
118,-0.7045009732246399,0.2921519875526428,-0.0713379979133606,0.134612500667572,0.1857624948024749,0.070262499153614,1,2
119,-0.3797749876976013,0.2599180042743683,-0.3806700110435486,0.0698499977588653,0.1258125007152557,0.116737499833107,1,2
120,-0.5079820156097412,0.2946819961071014,-0.3115800023078918,-0.0204875003546476,0.0842875018715858,0.1387374997138977,1,2
121,-1.4726699590682983,0.7911620140075684,0.5610060095787048,-0.0815375000238418,0.0952875018119812,0.2144999951124191,1,2
122,-2.6632308959960938,1.1786439418792725,1.2008110284805298,-0.0400125011801719,0.1062875017523765,0.3866499960422516,1,2
123,-5.480792999267578,2.125087022781372,1.2204829454421997,0.0808499976992607,0.1978625059127807,0.6786999702453613,1,2
124,-8.58925724029541,3.606712102890015,0.0866599977016449,0.2446125000715255,0.4531999826431274,1.2346124649047852,1,2
125,-9.698195457458496,3.823108911514282,-1.919985055923462,0.3643749952316284,0.9235875010490416,2.0347249507904053,1,2
126,-9.77299690246582,3.390700101852417,-3.070065975189209,0.328900009393692,1.635837435722351,2.9082624912261963,1,2
127,-8.490936279296875,2.257776975631714,-2.1754679679870605,0.2188999950885772,2.338325023651123,3.673037528991699,1,2
128,-6.822608947753906,0.9886339902877808,-1.1145470142364502,0.1028499975800514,2.7379000186920166,4.221662521362305,1,2
129,-4.118416786193848,-0.7233679890632629,-0.4213210046291351,-0.0632499977946281,2.782999992370605,4.538050174713135,1,2
130,-2.1355700492858887,-1.8504680395126345,-0.5934320092201233,-0.2611125111579895,2.577850103378296,4.5245747566223145,1,2
131,-0.5581200122833252,-2.0339479446411133,-1.191851019859314,-0.4383499920368194,2.351799964904785,4.337712287902832,1,2
132,0.2222529947757721,-2.4294240474700928,-1.629480004310608,-0.6117374897003174,2.296799898147583,4.110424995422363,1,2
133,2.3077220916748047,-2.502012014389038,-1.2386000156402588,-0.7327374815940857,2.321274995803833,3.818512439727783,1,2
134,4.689111232757568,-2.885565996170044,-0.0708189979195594,-0.8232125043869019,2.24180006980896,3.4116499423980717,1,2
135,6.785178184509277,-3.337846040725708,2.1672160625457764,-0.9575499892234802,1.9351749420166016,2.822737455368042,1,2
136,7.269476890563965,-3.8471949100494394,4.34549617767334,-0.997837483882904,1.3047374486923218,2.1190125942230225,1,2
137,6.576950073242188,-3.7622249126434326,4.791135787963867,-0.870787501335144,0.4203374981880188,1.4507625102996826,1,2
138,5.215126037597656,-3.222269058227539,3.313401937484741,-0.6912124752998352,-0.3335750102996826,0.9120374917984008,1,2
139,3.441725969314575,-2.4900119304656982,0.887785017490387,-0.5726875066757202,-0.6670125126838684,0.5626500248908997,1,2
140,1.4567869901657104,-1.814311981201172,-0.2478930056095123,-0.5262125134468079,-0.5607249736785889,0.3964124917984009,1,2
141,0.2736980020999908,-1.2820310592651367,-0.2983149886131286,-0.466399997472763,-0.3041499853134155,0.3830749988555908,1,2
142,0.1204359978437423,-1.157701015472412,0.5630970001220703,-0.3601124882698059,0.0085249999538064,0.4648874998092651,1,2
143,0.9876980185508728,-1.3886040449142456,1.46880304813385,-0.1988250017166137,0.1868624985218048,0.5101249814033508,1,2
144,2.356275081634521,-1.730666995048523,1.728389024734497,-0.0302499998360872,0.2198625057935714,0.4331249892711639,1,2
145,3.7944509983062735,-2.17049503326416,1.8652139902114868,0.1028499975800514,0.1563374996185302,0.220550000667572,1,2
146,4.882037162780762,-2.454817056655884,1.8003230094909668,0.2055625021457672,0.0072874999605119,-0.1252624988555908,1,2
147,5.386573791503906,-2.563709020614624,1.45599102973938,0.2678500115871429,-0.1698125004768371,-0.5479375123977661,1,2
148,5.701888084411621,-2.638169050216675,0.9617030024528505,0.2861374914646148,-0.3701499998569488,-0.9938499927520752,1,2
149,5.640330791473389,-2.634036064147949,0.4127509891986847,0.2616625130176544,-0.5339124798774719,-1.440999984741211,1,2
150,4.829217910766602,-2.3320529460906982,0.4807310104370117,0.1958000063896179,-0.6572499871253967,-1.856387495994568,1,2
151,4.356630802154541,-2.7193078994750977,1.270246982574463,0.1040875017642974,-0.9101125001907348,-2.215537548065185,1,2
152,4.535159111022949,-3.285011053085327,1.8707760572433472,0.0027499999850988,-1.4574999809265137,-2.6113998889923096,1,2
153,4.329471111297607,-3.1820309162139893,1.430145025253296,-0.1463000029325485,-2.091512441635132,-3.040262460708618,1,2
154,2.890826940536499,-2.7538540363311768,0.4893450140953064,-0.3405874967575073,-2.5496625900268555,-3.421412467956543,1,2
155,1.258834958076477,-2.509653091430664,-0.3860769867897033,-0.5372124910354614,-2.7231874465942383,-3.668225049972534,1,2
156,-1.9763699769973757,-2.050539016723633,-1.5447319746017456,-0.6654999852180481,-2.5753750801086426,-3.7768499851226807,1,2
157,-5.452741146087647,0.2459149956703186,-2.480233907699585,-0.6887375116348267,-1.9327000379562376,-3.5532748699188232,1,2
158,-6.520932197570801,1.9035160541534424,-1.8699289560317995,-0.5812125205993652,-0.9113500118255616,-2.918025016784668,1,2
159,-5.911965847015381,2.16189193725586,-0.1252959966659546,-0.3443000018596649,0.0574750006198883,-2.207012414932251,1,2
160,-3.8649630546569824,1.393710970878601,2.4201040267944336,-0.0559624992311,0.5766749978065491,-1.6718624830245972,1,2
161,-1.443176031112671,0.2077810019254684,3.672722101211548,0.203087493777275,0.4398624897003174,-1.4275250434875488,1,2
162,0.7418509721755981,-0.5987730026245117,3.476080894470215,0.3533749878406524,-0.032999999821186,-1.4568125009536743,1,2
163,2.004939079284668,-1.1753560304641724,2.6181070804595947,0.3863750100135803,-0.559487521648407,-1.6596249341964722,1,2
164,1.1791690587997437,-1.204118013381958,2.002917051315308,0.3668499886989593,-0.9956374764442444,-1.9223874807357788,1,2
165,-1.2506450414657593,-0.637162983417511,1.0097140073776243,0.3546124994754791,-1.3182125091552734,-2.0616750717163086,1,2
166,-4.2508931159973145,0.9898470044136048,-0.7561249732971191,0.383899986743927,-1.3377374410629272,-1.9406750202178955,1,2
167,-5.8487420082092285,2.6338279247283936,-2.001727104187012,0.4437125027179718,-0.8893499970436096,-1.4825249910354614,1,2
168,-5.2949042320251465,2.8392319679260254,-2.242655038833618,0.5354250073432922,-0.1575749963521957,-0.8863250017166138,1,2
169,-3.422705888748169,1.9482539892196653,-1.232030987739563,0.6050000190734863,0.4373874962329864,-0.4184125065803528,1,2
170,-1.42991304397583,0.978065013885498,-0.7823920249938965,0.5989499688148499,0.5644375085830688,-0.188787505030632,1,2
171,-0.141535997390747,0.4494580030441284,-0.5391479730606079,0.4694249927997589,0.393387496471405,-0.1483625024557113,1,2
172,0.5536149740219116,0.1252380013465881,-0.5075029730796814,0.2470874935388565,-0.0268124993890523,-0.233887493610382,1,2
173,0.6877260208129883,-0.0367420017719268,-0.7914980053901672,-0.0155375003814697,-0.4874374866485595,-0.3793624937534332,1,2
174,0.5532900094985962,0.0475860014557838,-0.8133299946784973,-0.2012999951839447,-0.7220125198364258,-0.5332249999046326,1,2
175,-0.3936229944229126,0.3427770137786865,-0.3136610090732574,-0.2380124926567077,-0.6462500095367432,-0.6272749900817871,1,2
176,-1.6580870151519775,0.6858879923820496,0.5602110028266907,-0.1120624989271164,-0.3873375058174133,-0.5919374823570251,1,2
177,-2.821476936340332,1.053822040557861,0.4740450084209442,0.1273249983787536,-0.1002374961972236,-0.4159374833106994,1,2
178,-2.609419107437134,1.1550229787826538,0.2595359981060028,0.3631374835968017,0.2395250052213668,-0.1570249944925308,1,2
179,-1.2762540578842163,0.536628007888794,-0.2375169992446899,0.510949969291687,0.4190999865531921,0.0347874984145164,1,2
180,-0.2151319980621338,0.1524360030889511,-0.8597829937934875,0.4901874959468841,0.4203374981880188,0.0812624990940094,1,2
181,0.4518109858036041,-0.1030350029468536,-1.0321760177612305,0.3460874855518341,0.3201000094413757,0.0324499979615211,1,2
182,0.4922080039978027,-0.1985750049352646,-0.7974780201911926,0.173799991607666,0.1575749963521957,-0.0677874982357025,1,2
183,0.0524160005152225,0.0202740002423524,-0.5907430052757263,0.0247499998658895,-0.0060499999672174,-0.1508374959230423,1,2
184,-0.4246369898319244,0.0650359988212585,-0.2853800058364868,-0.0681999996304512,-0.0915749967098236,-0.1715999990701675,1,2
185,-0.8441359996795654,0.1767379939556121,0.0693650022149086,-0.0950125008821487,-0.1197625026106834,-0.1337874978780746,1,2
186,-0.8515070080757141,0.2127529978752136,0.3464230000972748,-0.0657249987125396,-0.0989999994635582,-0.0494999997317791,1,2
187,-0.6051250100135803,0.1311170011758804,0.4275240004062652,0.0015124999918043,-0.0585750006139278,0.0372624993324279,1,2
188,-0.1136590018868446,-0.1289480030536651,0.1748159974813461,0.0650374963879585,-0.0305249989032745,0.1007874980568885,1,2
189,0.1182959973812103,-0.0930870026350021,-0.1648489981889724,0.0870374962687492,0.0072874999605119,0.1142624989151954,1,2
190,0.2719889879226684,-0.1424649953842163,-0.4377430081367492,0.0747999995946884,0.0525249987840652,0.1105500012636184,1,2
191,0.1807789951562881,-0.0865740031003952,-0.583076000213623,0.0527999997138977,0.1258125007152557,0.0947374999523162,1,2
192,0.3075309991836548,-0.1711039990186691,-0.2773520052433014,0.0222750008106231,0.2125750035047531,0.0935000032186508,1,2
193,0.5724239945411682,-0.3527030050754547,0.2838050127029419,0.0210375003516674,0.2418625056743621,0.0654499977827072,1,2
194,0.5644950270652771,-0.3997139930725097,0.4153560101985931,0.038087498396635,0.2065249979496002,0.0226875003427267,1,2
195,0.201226994395256,-0.2354689985513687,0.4556170105934143,0.0405624993145465,0.1440999954938888,-0.0103124994784593,1,2
196,-0.2587069869041443,0.0228470005095005,0.5026519894599915,0.0235124994069337,0.0207624994218349,0.0042624999769032,1,2
197,-0.2087280005216598,0.0248719993978738,0.0525650009512901,-0.0144375003874301,-0.1392875015735626,0.0519750006496906,1,2
198,0.0979380011558532,0.0117049999535083,-0.3098280131816864,-0.0705375000834465,-0.1930499970912933,0.0812624990940094,1,2
199,0.4752449989318847,-0.1883170008659362,-0.1456210017204284,-0.1023000031709671,-0.1319999992847442,0.0824999958276748,1,2
200,0.0014469999587163,-0.103081002831459,0.4592460095882416,0.0052249999716877,-0.0024749999865889,0.0017874999903142,2,2
201,0.0452019982039928,-0.0652879998087883,0.2773709893226623,0.0087999999523162,-0.0867625027894973,0.0030249999836087,2,2
202,0.1029329970479011,-0.0756229981780052,-0.1215590015053749,-0.0009624999947845,-0.1430000066757202,0.0006874999962747,2,2
203,0.2459049969911575,-0.1303810030221939,-0.4611389935016632,-0.0204875003546476,-0.1307625025510788,-0.0115499999374151,2,2
204,0.2936750054359436,-0.0830610021948814,-0.4907459914684295,-0.0339624993503093,-0.0488125011324882,-0.0310750007629394,2,2
205,0.2696219980716705,-0.0288779996335506,-0.3071990013122558,-0.0290124993771314,0.0684750005602836,-0.0470249988138675,2,2
206,0.1150360032916069,-0.0197739992290735,0.155129000544548,0.0052249999716877,0.1880999952554702,-0.0555500015616416,2,2
207,-0.0033539999276399,-0.0261220000684261,0.5292699933052063,0.06751249730587,0.2358125001192093,-0.0543125011026859,2,2
208,-0.1066090017557144,-0.042298000305891,0.4153690040111542,0.1053249984979629,0.1771000027656555,-0.0470249988138675,2,2
209,-0.1232680007815361,-0.0392780005931854,0.2515020072460174,0.0808499976992607,0.0622874982655048,-0.0360249988734722,2,2
210,-0.1231390014290809,-0.1084889993071556,-0.1247109994292259,0.0222750008106231,-0.0965249985456466,-0.0397375002503395,2,2
211,-0.1887760013341903,0.1010060012340545,-0.4199360013008117,-0.0510125011205673,-0.1808124929666519,-0.0360249988734722,2,2
212,-0.139382004737854,0.2061150074005127,-0.304282009601593,-0.0950125008821487,-0.1648624986410141,-0.020075000822544,2,2
213,0.0609650015830993,0.1078670024871826,-0.1267700046300888,-0.0864875018596649,-0.0903374999761581,-0.0067374999634921,2,2
214,0.2458840012550354,0.0511670000851154,0.1119360029697418,-0.0302499998360872,0.0500499978661537,-0.0090749999508261,2,2
215,0.1348540037870407,0.048140998929739,0.2751469910144806,0.0552750006318092,0.1942874938249588,-0.020075000822544,2,2
216,-0.1044640019536018,0.1234090030193328,0.4125640094280243,0.1225124970078468,0.2700499892234802,-0.0115499999374151,2,2
217,-0.1668539941310882,0.1307750046253204,0.3451350033283233,0.1370874941349029,0.2235749959945678,0.0127875003963708,2,2
218,0.0159380007535219,0.1254220008850097,0.094478003680706,0.0906125009059906,0.0879999995231628,0.0312124993652105,2,2
219,0.2133229970932006,0.0241500008851289,-0.1174700036644935,0.0015124999918043,-0.0452375002205371,0.0347874984145164,2,2
220,0.2346950024366378,-0.1022719964385032,-0.0101349996402859,-0.0889625027775764,-0.1453374922275543,0.014024999924004,2,2
221,0.1487450003623962,-0.0688309967517852,0.1381140053272247,-0.1352999955415725,-0.2113374918699264,-0.0042624999769032,2,2
222,0.0943119972944259,-0.0655260011553764,0.2398229986429214,-0.1304875016212463,-0.2113374918699264,-0.0152624994516372,2,2
223,0.0082480004057288,-0.0371470004320144,0.3044640123844147,-0.0827749967575073,-0.1465750038623809,-0.0213124994188547,2,2
224,-0.2448920011520385,0.1316969990730285,0.2908320128917694,-0.0107249999418854,-0.0562375001609325,-0.0177375003695487,2,2
225,-0.7134940028190613,0.4428150057792663,0.546459972858429,0.0527999997138977,0.0598125010728836,0.0274999998509883,2,2
226,-1.198009967803955,0.6971349716186523,1.044145941734314,0.1248499974608421,0.1319999992847442,0.1155000030994415,2,2
227,-1.7380039691925049,0.7925930023193359,1.4041249752044678,0.2165624946355819,0.1698125004768371,0.2400749921798706,2,2
228,-2.693960905075073,1.2789549827575684,1.598772048950195,0.3240875005722046,0.2003374993801117,0.4221250116825104,2,2
229,-3.752859115600586,1.449483036994934,1.097301006317139,0.440137505531311,0.2443374991416931,0.6835125088691711,2,2
230,-6.371368885040283,2.371035099029541,-0.3768160045146942,0.5304750204086304,0.4483875036239624,1.046375036239624,2,2
231,-8.195587158203125,3.3893771171569824,-1.7574410438537598,0.567187488079071,0.9113500118255616,1.6610000133514404,2,2
232,-10.373981475830078,3.421804904937744,-2.8981940746307373,0.558662474155426,1.6468374729156494,2.428112506866455,2,2
233,-12.110239028930664,3.92472505569458,-2.4140501022338867,0.5304750204086304,2.6523749828338623,3.3481249809265137,2,2
234,-10.036060333251951,2.1778221130371094,-0.2920979857444763,0.5036625266075134,3.500200033187866,4.362187385559082,2,2
235,-5.515642166137695,-0.3808810114860534,2.116767883300781,0.464475005865097,3.8557748794555664,4.990149974822998,2,2
236,-0.8970419764518738,-2.223242998123169,3.876832008361816,0.4534749984741211,3.582012414932251,5.047487258911133,2,2
237,2.4878640174865723,-3.409550905227661,4.513588905334473,0.4424749910831451,2.8209500312805176,4.672387599945068,2,2
238,5.152379035949707,-3.777579069137573,3.22248911857605,0.3948999941349029,1.7128374576568604,4.027374744415283,2,2
239,7.215419769287109,-3.836030960083008,0.117477998137474,0.2226125001907348,0.6646749973297119,3.256550073623657,2,2
240,7.200932025909424,-3.697312116622925,-2.69519305229187,-0.0877249985933303,0.1245749965310096,2.4563000202178955,2,2
241,4.805574893951416,-2.608146905899048,-4.144877910614014,-0.3796375095844269,0.1575749963521957,1.7342875003814695,2,2
242,2.8888258934021,-0.7142360210418701,-3.6821930408477774,-0.5274500250816345,0.5876749753952026,1.3299000263214111,2,2
243,2.0957999229431152,-0.6806319952011108,-2.211458921432495,-0.5348749756813049,1.0726374387741089,1.2113749980926514,2,2
244,2.162574052810669,-1.450124979019165,-0.9378520250320436,-0.4749250113964081,1.3890249729156494,1.112375020980835,2,2
245,2.519273042678833,-1.9351129531860352,0.4821780025959015,-0.4383499920368194,1.4624500274658203,0.915749967098236,2,2
246,2.739758014678955,-2.019735097885132,1.709136962890625,-0.3845874965190887,1.198449969291687,0.6469374895095825,2,2
247,3.250937938690185,-2.071964979171753,1.9100359678268437,-0.3295874893665313,0.6437749862670898,0.3513124883174896,2,2
248,4.011175155639648,-2.084481954574585,1.502634048461914,-0.3198249936103821,0.0500499978661537,0.0202124994248151,2,2
249,4.594738006591797,-2.2187540531158447,1.4534059762954712,-0.341825008392334,-0.5253875255584717,-0.3756499886512756,2,2
250,4.622859001159668,-2.5386979579925537,0.9931790232658386,-0.3980624973773956,-1.1581624746322632,-0.8167499899864197,2,2
251,4.131820201873779,-2.678175926208496,0.4130930006504059,-0.5164499878883362,-1.734837532043457,-1.2724249362945557,2,2
252,3.881753921508789,-2.867711067199707,0.1556420028209686,-0.6802124977111816,-2.2589874267578125,-1.724387526512146,2,2
253,3.6838090419769287,-2.626336097717285,-0.0614809989929199,-0.8560749888420105,-2.7292375564575195,-2.192300081253052,2,2
254,3.236259937286377,-2.166863918304444,-0.4436700046062469,-1.036887526512146,-3.062812566757202,-2.621162414550781,2,2
255,3.0972790718078613,-2.4032928943634038,-0.7893750071525574,-1.1969374418258667,-3.128812551498413,-3.0230748653411865,2,2
256,1.770400047302246,-2.533469915390014,-0.9950309991836548,-1.3338874578475952,-2.979762554168701,-3.413987398147583,2,2
257,-0.0464189983904361,-2.1045820713043213,-0.6769989728927612,-1.473175048828125,-2.6596624851226807,-3.6522750854492183,2,2
258,-2.2814059257507324,-2.1837849617004395,0.2907019853591919,-1.548799991607666,-2.2320375442504883,-3.730512380599976,2,2
259,-6.377669811248779,-0.7951120138168335,2.0975921154022217,-1.4804625511169434,-1.726312518119812,-3.610749959945679,2,2
260,-8.824101448059082,1.3506120443344116,4.380281925201416,-1.1578874588012695,-1.2094500064849854,-3.080549955368042,2,2
261,-7.639802932739258,1.322659969329834,5.173276901245117,-0.5654000043869019,-0.7745375037193298,-2.3352999687194824,2,2
262,-4.653363227844238,0.2338660061359405,4.259710788726807,0.0760374963283538,-0.3348124921321869,-1.8026249408721924,2,2
263,-2.60208511352539,-0.1897310018539428,3.127814054489136,0.5549499988555908,0.0952875018119812,-1.624287486076355,2,2
264,-2.448296070098877,0.092128999531269,2.6918349266052246,0.8140000104904175,0.3273875117301941,-1.5802874565124512,2,2
265,-2.604896068572998,0.1305889934301376,2.061811923980713,0.8798624873161316,0.1685750037431717,-1.5180000066757202,2,2
266,-2.0373899936676025,-0.0088619999587535,0.8369029760360718,0.7712374925613403,-0.2235749959945678,-1.4788124561309814,2,2
267,-2.16928505897522,0.14580899477005,-0.3674589991569519,0.523187518119812,-0.6340125203132629,-1.506999969482422,2,2
268,-2.9282350540161133,0.8413010239601135,-1.3490229845046997,0.2311374992132187,-0.9028249979019164,-1.4812874794006348,2,2
269,-3.815462112426758,1.3921769857406616,-1.639454960823059,-0.0327249988913536,-0.8918250203132629,-1.3077625036239624,2,2
270,-4.485998153686523,1.9391039609909055,-0.4207780063152313,-0.1927749961614608,-0.6377249956130981,-0.9938499927520752,2,2
271,-4.011735916137695,1.515220046043396,0.9680230021476746,-0.1560624986886978,-0.3946250081062317,-0.644462525844574,2,2
272,-3.112844944000244,0.973380982875824,1.5379860401153564,0.0295624993741512,-0.20762500166893,-0.3781250119209289,2,2
273,-1.9876610040664675,0.573993980884552,1.3939510583877563,0.2421374917030334,-0.0415249988436698,-0.2265999913215637,2,2
274,-0.9967359900474548,0.1405750066041946,0.8518120050430298,0.3973749876022339,0.0512874983251094,-0.2118874937295913,2,2
275,-0.763496994972229,0.0191019997000694,0.3695879876613617,0.4461874961853027,0.0732875019311904,-0.2828375101089477,2,2
276,-0.8498610258102417,0.0120789995416998,0.1464110016822815,0.4314749836921692,0.0427624993026256,-0.3634124994277954,2,2
277,-1.1650869846343994,0.1462910026311874,-0.1067980006337165,0.4021874964237213,-0.0037124999798834,-0.4257000088691711,2,2
278,-1.672008991241455,0.3997060060501098,-0.1850470006465912,0.3679499924182892,-0.0012374999932944,-0.4281750023365021,2,2
279,-2.180147886276245,0.5229809880256653,-0.1438339948654174,0.3386625051498413,-0.0060499999672174,-0.358599990606308,2,2
280,-2.231796979904175,0.567933976650238,-0.580249011516571,0.3020874857902527,-0.0488125011324882,-0.2400749921798706,2,2
281,-1.892259955406189,0.5046690106391907,-0.9610739946365356,0.2396624982357025,-0.0170499999076128,-0.1142624989151954,2,2
282,-1.3081159591674805,0.3047220110893249,-1.0555729866027832,0.166374996304512,0.0452375002205371,-0.0189750008285045,2,2
283,-0.7581909894943237,0.0278120003640651,-0.8834490180015564,0.1005124971270561,0.1258125007152557,0.0226875003427267,2,2
284,-0.3348720073699951,-0.2381020039319992,-0.6170570254325867,0.0442750006914138,0.1649999916553497,0.0152624994516372,2,2
285,-0.1427100002765655,-0.411294013261795,-0.0701809972524643,-0.0094875004142522,0.1930499970912933,-0.0237875003367662,2,2
286,-0.2824980020523071,-0.5042489767074585,0.6743810176849365,-0.0094875004142522,0.1710499972105026,-0.0835999995470047,2,2
287,-0.7133380174636841,-0.3911420106887817,0.8711040019989014,0.0393249988555908,0.0867625027894973,-0.1178374961018562,2,2
288,-1.1686639785766602,-0.0949169993400573,0.7303150296211243,0.091849997639656,0.0122375003993511,-0.0910250023007392,2,2
289,-1.1744290590286257,0.0447730012238025,0.2561250030994415,0.1260875016450882,-0.0427624993026256,-0.016499999910593,2,2
290,-0.8212000131607056,-0.0856639966368675,-0.279556006193161,0.1236125007271766,-0.0367125011980533,0.0580249987542629,2,2
291,-0.3304080069065094,-0.2577979862689972,-0.5561010241508484,0.091849997639656,0.0219999998807907,0.0910250023007392,2,2
292,0.0873410031199455,-0.4610719978809356,-0.7098420262336731,0.0490874983370304,0.1025749966502189,0.0787874981760978,2,2
293,0.1895209997892379,-0.5100470185279846,-0.537647008895874,-0.002199999988079,0.1868624985218048,0.0372624993324279,2,2
294,0.0967999994754791,-0.5171589851379395,-0.101230002939701,-0.0437249988317489,0.2211000025272369,-0.0103124994784593,2,2
295,-0.0247889999300241,-0.484048992395401,0.209195002913475,-0.0607750006020069,0.1808124929666519,-0.0445500016212463,2,2
296,-0.2365400046110153,-0.3584330081939697,0.4049699902534485,-0.0692999958992004,0.1050499975681305,-0.0628374963998794,2,2
297,-0.4611560106277466,-0.1331290006637573,0.465595006942749,-0.0742499977350235,0.0232375003397464,-0.0530750006437301,2,2
298,-0.4830819964408874,-0.1259369999170303,0.5411909818649292,-0.0657249987125396,-0.0049499999731779,-0.0103124994784593,2,2
299,-0.2051820009946823,-0.2325090020895004,0.6541410088539124,-0.0144375003874301,0.0402874983847141,0.0287375003099441,2,2
300,-0.0139870001003146,0.0052680000662803,0.3609099984169006,-0.0254375003278255,0.032999999821186,-0.0079749999567866,3,2
301,-0.0183610003441572,-0.0044729998335242,0.3918370008468628,0.0490874983370304,0.1258125007152557,0.0006874999962747,3,2
302,0.0186129994690418,-0.0023169999476522,0.2867519855499267,0.1212750002741813,0.1820500046014785,0.0054999999701976,3,2
303,0.0179420001804828,0.0298289991915226,-0.0559840016067028,0.1578499972820282,0.1563374996185302,0.0054999999701976,3,2
304,-0.0578459985554218,0.0679839998483657,-0.3920510113239288,0.1383250057697296,0.053762499243021,0.0017874999903142,3,2
305,-0.0306340008974075,0.0572450011968612,-0.4541999995708465,0.06751249730587,-0.0525249987840652,-0.0005499999970197,3,2
306,0.0952230021357536,0.0076020001433789,-0.3249669969081878,-0.022962499409914,-0.1197625026106834,0.0067374999634921,3,2
307,0.1829109936952591,-0.0465620011091232,-0.0579870007932186,-0.0864875018596649,-0.1380500048398971,0.0079749999567866,3,2
308,0.2189549952745437,-0.1368360072374344,0.3638119995594024,-0.0974875018000602,-0.0830499976873397,0.0030249999836087,3,2
309,0.0185330007225275,-0.0715470016002655,0.5796059966087341,-0.0522499978542327,0.0257124993950128,-0.0090749999508261,3,2
310,-0.1411440074443817,0.0386330001056194,0.4089590013027191,0.0345125012099742,0.103812500834465,-0.0177375003695487,3,2
311,-0.0549490004777908,0.0255900006741285,0.0750899985432624,0.1053249984979629,0.107524998486042,-0.0042624999769032,3,2
312,0.1087739989161491,-0.0472560003399848,-0.2917580008506775,0.1163249984383583,0.0525249987840652,0.014024999924004,3,2
313,0.1231769993901252,-0.0009389999904669,-0.4446580111980438,0.0735625028610229,-0.0305249989032745,0.0116875004023313,3,2
314,0.1052049994468689,-0.013400999829173,-0.323743999004364,0.0002749999985098,-0.0842875018715858,-0.0067374999634921,3,2
315,0.1323709934949875,0.0265480000525712,-0.1361110061407089,-0.0595375001430511,-0.0989999994635582,-0.0152624994516372,3,2
316,0.0722500011324882,0.0020890000741928,0.0603919997811317,-0.077962502837181,-0.0745249986648559,-0.0189750008285045,3,2
317,-0.0408039987087249,0.0396110005676746,0.2617039978504181,-0.0522499978542327,-0.0072874999605119,-0.0274999998509883,3,2
318,-0.3180049955844879,0.1503479927778244,0.3445500135421753,0.0027499999850988,0.0769999995827674,-0.0299750007688999,3,2
319,-0.5471850037574768,0.2738089859485626,0.3387280106544494,0.0698499977588653,0.1430000066757202,-0.016499999910593,3,2
320,-0.6880530118942261,0.342054009437561,0.3385739922523498,0.1236125007271766,0.1783374994993209,0.0226875003427267,3,2
321,-1.1174910068511963,0.5361080169677734,0.1349509954452514,0.1566125005483627,0.1918125003576278,0.0824999958276748,3,2
322,-1.9113370180130005,0.9768949747085572,-0.0319989994168281,0.1810874938964843,0.2015749961137771,0.1545500010251999,3,2
323,-3.39266300201416,1.620162010192871,0.214025005698204,0.1860374957323074,0.2613874971866607,0.2938374876976013,3,2
324,-4.619054794311523,2.297624111175537,0.1382939964532852,0.1896124929189682,0.3641000092029571,0.5344625115394592,3,2
325,-6.098010063171387,2.509047031402588,-0.618399977684021,0.214087501168251,0.4300999939441681,0.8875625133514404,3,2
326,-6.967554092407227,2.937273979187012,-1.7928669452667236,0.2287999987602234,0.5399624705314636,1.3481874465942385,3,2
327,-7.304230213165283,2.612186908721924,-2.6182029247283936,0.203087493777275,0.781962513923645,1.9113874435424805,3,2
328,-8.750726699829102,2.3280959129333496,-2.744218111038208,0.1225124970078468,1.2071125507354736,2.5381124019622803,3,2
329,-10.01309585571289,2.2411038875579834,-2.1304659843444824,0.010037500411272,1.794649958610535,3.140362501144409,3,2
330,-8.851335525512695,1.019866943359375,-0.7376459836959839,-0.0742499977350235,2.4556124210357666,3.817275047302246,3,2
331,-6.138539791107178,-0.8334869742393494,1.084089994430542,-0.1219625025987625,3.037237405776977,4.572287559509277,3,2
332,-3.560839891433716,-1.895393967628479,2.046950101852417,-0.1340624988079071,3.345099925994873,5.068250179290772,3,2
333,0.3975859880447387,-3.171583890914917,1.3318109512329102,-0.1157749965786933,3.275387525558472,5.206299781799316,3,2
334,5.135635852813721,-4.336921215057373,0.4975399971008301,-0.1340624988079071,2.8564250469207764,5.106199741363525,3,2
335,7.598334789276123,-5.160016059875488,-0.1585790067911148,-0.2525874972343445,2.393325090408325,4.690812587738037,3,2
336,6.877379894256592,-3.9242429733276367,-0.39027801156044,-0.4151124954223633,1.9621249437332156,3.882037401199341,3,2
337,5.780612945556641,-1.813256025314331,0.4542180001735687,-0.5886374711990356,1.668837547302246,2.949787378311157,3,2
338,4.818583965301514,-1.6311500072479248,1.1472389698028564,-0.6961625218391418,1.4635499715805054,2.273012399673462,3,2
339,4.32896900177002,-2.2170169353485107,1.2602829933166504,-0.6875,1.2216874361038208,1.8441499471664429,3,2
340,4.514860153198242,-2.370974063873291,1.148095965385437,-0.6496874690055847,0.9015874862670898,1.4984749555587769,3,2
341,5.159287929534912,-2.620450973510742,0.8156059980392456,-0.6216375231742859,0.5339124798774719,1.1441375017166138,3,2
342,6.029850959777832,-2.8579769134521484,0.9164689779281616,-0.5874000191688538,0.2015749961137771,0.7702749967575073,3,2
343,6.571522235870361,-2.922293901443481,0.8060839772224426,-0.5226374864578247,-0.0147124994546175,0.340312510728836,3,2
344,6.6413421630859375,-2.9664320945739746,0.3186100125312805,-0.4175874888896942,-0.2162874937057495,-0.1227874979376792,3,2
345,6.586609840393066,-3.03151798248291,0.0368359982967376,-0.3368749916553497,-0.4031499922275543,-0.5882250070571899,3,2
346,6.656233787536621,-3.419745922088623,0.1090750023722648,-0.3258749842643738,-0.5974375009536743,-1.0573749542236328,3,2
347,6.7822771072387695,-3.797899007797241,0.3296639919281006,-0.3686375021934509,-0.9003499746322632,-1.5448124408721924,3,2
348,7.068830966949463,-3.985429048538208,0.3937959969043731,-0.4993999898433685,-1.390262484550476,-2.0726749897003174,3,2
349,6.339945793151856,-4.14425802230835,0.1767069995403289,-0.7046874761581421,-1.988937497138977,-2.618687391281128,3,2
350,2.918787956237793,-3.757374048233032,-0.3757869899272918,-0.9514999985694884,-2.5618999004364014,-3.1708874702453613,3,2
351,-1.691061019897461,-1.96604597568512,-0.2182649970054626,-1.2386000156402588,-2.965049982070923,-3.654749870300293,3,2
352,-4.734035968780518,0.012178000062704,0.4566079974174499,-1.5097500085830688,-3.048099994659424,-3.81232500076294,3,2
353,-5.847504138946533,1.046766996383667,1.4307010173797607,-1.635562539100647,-2.912524938583374,-3.509274959564209,3,2
354,-4.450730800628662,0.6581169962882996,2.2166988849639893,-1.5256999731063845,-2.532612562179565,-2.9094998836517334,3,2
355,-2.574799060821533,0.0545499995350837,2.3693480491638184,-1.1786500215530396,-1.9742250442504885,-2.307112455368042,3,2
356,-1.3377649784088137,-0.1654510051012039,2.6121599674224854,-0.6912124752998352,-1.3341624736785889,-1.9126249551773071,3,2
357,-0.3328559994697571,-0.293065994977951,2.6015329360961914,-0.208587497472763,-0.7147250175476074,-1.715862512588501,3,2
358,-0.0810649991035461,-0.3190430104732513,2.405613899230957,0.1945624947547912,-0.3163875043392181,-1.630337476730347,3,2
359,-0.123380996286869,-0.4931029975414276,2.337908983230591,0.4499000012874603,-0.1430000066757202,-1.6083375215530396,3,2
360,-0.7883780002593994,-0.3081890046596527,1.2829619646072388,0.5512375235557556,-0.2810499966144562,-1.630337476730347,3,2
361,-1.7596100568771362,0.4430170059204101,-0.2021670043468475,0.5024250149726868,-0.7147250175476074,-1.6682875156402588,3,2
362,-2.3505630493164062,1.150352954864502,-1.217371940612793,0.3154250085353851,-1.0799249410629272,-1.6132874488830566,3,2
363,-3.0164709091186523,1.747344970703125,-1.0791629552841189,0.110275000333786,-1.115399956703186,-1.4227124452590942,3,2
364,-2.7766358852386475,1.9913599491119385,-0.2441010028123855,0.0015124999918043,-0.7709624767303467,-1.12090003490448,3,2
365,-1.454231023788452,1.489850997924805,0.5918070077896118,0.0442750006914138,-0.3018124997615814,-0.7422249913215637,3,2
366,0.2527509927749634,0.7283130288124084,1.0622090101242063,0.2165624946355819,0.1295250058174133,-0.430649995803833,3,2
367,1.327836036682129,0.3305059969425201,0.915369987487793,0.4229499995708465,0.3811500072479248,-0.292600005865097,3,2
368,1.5358309745788574,0.330716997385025,0.781719982624054,0.5781875252723694,0.4336749911308288,-0.3401750028133392,3,2
369,1.105172038078308,0.3723739981651306,0.6465489864349365,0.6429499983787537,0.3628624975681305,-0.4782249927520752,3,2
370,0.2577010095119476,0.5198670029640198,-0.1272840052843094,0.6380000114440918,0.1588124930858612,-0.6187499761581421,3,2
371,-0.594980001449585,0.8316059708595276,-0.919022023677826,0.5707625150680542,-0.1453374922275543,-0.7092249989509583,3,2
372,-1.231834053993225,0.990913987159729,-1.2454320192337036,0.4461874961853027,-0.3310999870300293,-0.7177500128746033,3,2
373,-1.3775490522384644,0.947393000125885,-1.418910026550293,0.3154250085353851,-0.3603875041007995,-0.6309875249862671,3,2
374,-0.8242740035057068,0.7796729803085327,-1.3464419841766355,0.2213750034570694,-0.2663374841213226,-0.4856500029563904,3,2
375,0.1111780032515525,0.3393169939517975,-0.3785409927368164,0.1847999989986419,-0.0562375001609325,-0.3304125070571899,3,2
376,-0.032600998878479,0.3686589896678924,0.2282920032739639,0.1883749961853027,0.1857624948024749,-0.2315499931573867,3,2
377,-0.1612289994955063,0.3391439914703369,0.5423189997673035,0.1920875012874603,0.3018124997615814,-0.202124997973442,3,2
378,-0.2069180011749267,0.2196400016546249,0.5921930074691772,0.1761374920606613,0.2798124849796295,-0.1875499933958053,3,2
379,-0.0852259993553161,0.078523002564907,0.3142920136451721,0.1590874940156936,0.1062875017523765,-0.1630750000476837,3,2
380,0.002907000016421,0.0073420000262558,-0.141183003783226,0.1310375034809112,-0.0879999995231628,-0.1423124969005584,3,2
381,-0.0475319996476173,0.1110830008983612,-0.5440329909324646,0.1115124970674514,-0.2370499968528747,-0.1337874978780746,3,2
382,5.19999994139e-05,0.0919170007109642,-0.7135300040245056,0.1187999993562698,-0.2516250014305115,-0.1362625062465667,3,2
383,0.1449410021305084,0.0248949993401765,-0.7485929727554321,0.1443749964237213,-0.135574996471405,-0.130074992775917,3,2
384,0.1605789959430694,-0.0071169999428093,-0.3063719868659973,0.1627999991178512,0.053762499243021,-0.1032624989748001,3,2
385,0.2005970031023025,-0.1113850027322769,0.4299840033054352,0.1700875014066696,0.2198625057935714,-0.0800250023603439,3,2
386,0.2640100121498108,-0.3169899880886078,0.6900150179862976,0.1615625023841858,0.3713875114917755,-0.0592624992132186,3,2
387,0.3679969906806946,-0.2428569942712783,0.4932819902896881,0.1615625023841858,0.3713875114917755,-0.0397375002503395,3,2
388,0.319608986377716,-0.1302590072154998,-0.0047439998015761,0.139562502503395,0.1795749962329864,-0.0323125012218952,3,2
389,0.204585999250412,0.0355000011622905,-0.5337129831314087,0.0980374962091445,-0.0745249986648559,-0.0397375002503395,3,2
390,0.1578049957752227,0.0380359999835491,-0.8965049982070923,0.0515624992549419,-0.2613874971866607,-0.0677874982357025,3,2
391,0.0483920015394687,0.1280779987573623,-0.8222929835319519,0.0125124994665384,-0.3066250085830688,-0.0715000033378601,3,2
392,0.0626989975571632,0.0632790029048919,-0.47393599152565,-0.004674999974668,-0.2065249979496002,-0.0543125011026859,3,2
393,0.2776789963245392,-0.1667270064353943,0.0625789985060691,-0.002199999988079,-0.0060499999672174,-0.0250249989330768,3,2
394,0.4960359930992126,-0.3545419871807098,0.4340890049934387,0.0247499998658895,0.2186249941587448,0.0189750008285045,3,2
395,0.6150680184364319,-0.3677799999713897,0.4419350028038025,0.0650374963879585,0.3713875114917755,0.0457874983549118,3,2
396,0.5404459834098816,-0.2069679945707321,0.278652012348175,0.0955625027418136,0.3701499998569488,0.0384999997913837,3,2
397,0.4185580015182495,-0.1760610044002533,-0.0319629982113838,0.0895124971866607,0.2358125001192093,0.0006874999962747,3,2
398,0.1901959925889969,-0.1321679949760437,-0.1735810041427612,0.056512501090765,0.0708125010132789,-0.0335500016808509,3,2
399,0.0558549985289573,-0.1195849999785423,-0.3413609862327575,0.0162249989807605,-0.0574750006198883,-0.0567874982953071,3,2
400,0.0412370003759861,-0.0734239965677261,-0.6538419723510742,0.0980374962091445,-0.0439999997615814,-0.0457874983549118,4,2
401,-0.1120700016617775,0.0921370014548301,-0.5229660272598267,0.0467500016093254,-0.0292875003069639,-0.0567874982953071,4,2
402,-0.2328139990568161,0.1687500029802322,-0.0720819979906082,0.0087999999523162,0.0085249999538064,-0.0640750005841255,4,2
403,-0.3004739880561828,0.1739760041236877,0.3919120132923126,-0.0180124994367361,0.0805749967694282,-0.0617375001311302,4,2
404,-0.287665992975235,0.1398770064115524,0.3736200034618377,-0.0204875003546476,0.1722874939441681,-0.0470249988138675,4,2
405,-0.215379998087883,0.0805500000715255,0.1612810045480728,0.0125124994665384,0.2003374993801117,-0.0237875003367662,4,2
406,-0.0652960017323494,0.0473899990320205,-0.159740000963211,0.0455125011503696,0.1417624950408935,0.0017874999903142,4,2
407,0.0578280016779899,0.0124390004202723,-0.4898430109024048,0.038087498396635,0.0317624993622303,0.0250249989330768,4,2
408,0.0757300034165382,0.066890001296997,-0.4327020049095154,-0.0107249999418854,-0.0952875018119812,0.0312124993652105,4,2
409,0.1351339966058731,0.0410020016133785,-0.4460029900074005,-0.0803000032901763,-0.1795749962329864,0.0299750007688999,4,2
410,0.131631001830101,-0.0462419986724853,-0.1737679988145828,-0.136537492275238,-0.1490499973297119,0.0287375003099441,4,2
411,-0.0450449995696544,-0.0373850017786026,0.2547000050544739,-0.152487501502037,-0.107524998486042,0.0237875003367662,4,2
412,-0.2309219986200332,-0.0702859982848167,0.6613339781761169,-0.1487749963998794,0.0207624994218349,0.0177375003695487,4,2
413,-0.1827480047941208,-0.0744260028004646,0.74269700050354,-0.1084875017404556,0.1331000030040741,0.0079749999567866,4,2
414,-0.0385189987719059,-0.0817430019378662,0.5195580124855042,-0.0559624992311,0.1747625023126602,0.0152624994516372,4,2
415,0.0809269994497299,-0.0872659981250763,0.3506560027599334,-0.0131999999284744,0.107524998486042,0.0287375003099441,4,2
416,0.0870599970221519,-0.0518449991941452,0.3015030026435852,0.0002749999985098,0.0134749999269843,0.0336874984204769,4,2
417,0.0939949974417686,-0.007842999882996,0.1551859974861145,-0.0034374999813735,-0.0452375002205371,0.0299750007688999,4,2
418,0.1091869994997978,0.010139999911189,0.0085100000724196,0.0015124999918043,-0.0672374963760376,0.014024999924004,4,2
419,-0.0632029995322227,0.1169279962778091,-0.0746299996972084,0.0197999998927116,-0.0598125010728836,0.0042624999769032,4,2
420,-0.1838639974594116,0.1868979930877685,-0.1313599944114685,0.0442750006914138,-0.0060499999672174,-0.0054999999701976,4,2
421,-0.2165160030126571,0.2244340032339096,-0.0193600002676248,0.0662750005722045,0.0732875019311904,-0.0103124994784593,4,2
422,-0.2044930011034011,0.2171580046415329,0.2572160065174103,0.0760374963283538,0.1453374922275543,0.0092124994844198,4,2
423,-0.0696709975600242,0.1289599984884262,0.6485130190849304,0.063799999654293,0.1868624985218048,0.0434499979019165,4,2
424,0.116177000105381,0.0702909976243972,0.8074010014533997,0.0527999997138977,0.2065249979496002,0.0752125009894371,4,2
425,0.1493089944124221,0.07846599817276,0.7225810289382935,0.0650374963879585,0.215049996972084,0.1057374998927116,4,2
426,-0.1880970001220703,0.1620569974184036,0.6597319841384888,0.1200374960899353,0.2113374918699264,0.116737499833107,4,2
427,-1.0593669414520264,0.488211989402771,0.670960009098053,0.1883749961853027,0.2272875010967254,0.1117874979972839,4,2
428,-2.094726085662842,0.8844590187072754,0.7275829911231995,0.2408999949693679,0.2492875009775161,0.1142624989151954,4,2
429,-3.3541839122772217,1.3717199563980105,0.5168880224227905,0.272662490606308,0.2395250052213668,0.1630750000476837,4,2
430,-4.442174911499023,1.973418951034546,0.2071180045604705,0.2861374914646148,0.2052875012159347,0.3060750067234039,4,2
431,-5.477255821228027,2.276793956756592,0.2637650072574615,0.2983750104904175,0.1918125003576278,0.5394124984741211,4,2
432,-5.968011856079102,2.3256659507751465,0.0880059972405433,0.3313750028610229,0.329862505197525,0.8839874863624573,4,2
433,-6.008792877197266,2.084760904312134,-0.3033480048179626,0.392425000667572,0.6364874839782715,1.3432375192642212,4,2
434,-5.161465167999268,1.3980029821395874,-0.9788470268249512,0.4950000047683716,0.9505375027656556,1.860100030899048,4,2
435,-4.150259017944336,0.928276002407074,-1.3281480073928833,0.5830000042915344,1.2412124872207642,2.380537509918213,4,2
436,-4.308996200561523,0.2507439851760864,-1.6238369941711426,0.6122875213623047,1.4794999361038208,2.833737373352051,4,2
437,-4.124147891998291,0.3401049971580505,-1.424010992050171,0.5744749903678894,1.7067874670028689,3.152600049972534,4,2
438,-1.663324952125549,-0.0585730001330375,-0.8235560059547424,0.4534749984741211,1.9131749868392944,3.3871750831604004,4,2
439,2.269599914550781,-1.74017596244812,-0.645442008972168,0.3350875079631805,2.142937421798706,3.604700088500977,4,2
440,3.5626308917999268,-3.206058979034424,-1.1313689947128296,0.2628999948501587,2.3358500003814697,3.845324993133545,4,2
441,2.762756109237671,-2.5049281120300293,-0.4754190146923065,0.2287999987602234,2.410374879837036,3.85756254196167,4,2
442,2.29954195022583,-1.442384958267212,-0.0448199994862079,0.1627999991178512,2.4373250007629395,3.4801249504089355,4,2
443,3.21426010131836,-1.4180760383605957,-0.0708400011062622,0.0393249988555908,2.355512380599976,2.985262393951416,4,2
444,4.581315994262695,-2.0131189823150635,-0.5189539790153503,-0.1194875016808509,1.9657000303268437,2.668874979019165,4,2
445,5.718257904052734,-2.9286460876464844,-0.4808129966259002,-0.3271124958992004,1.393975019454956,2.4598748683929443,4,2
446,6.6120710372924805,-3.442572116851806,0.2066760063171386,-0.599637508392334,0.7965375185012817,2.154487371444702,4,2
447,6.759370803833008,-3.3465089797973637,0.538453996181488,-0.9147874712944032,0.2870999872684479,1.7085750102996826,4,2
448,5.773472785949707,-3.206954002380371,0.9642030000686646,-1.1468875408172607,-0.1600500047206878,1.1331374645233154,4,2
449,4.069212913513184,-2.7593319416046143,1.2710319757461548,-1.1958374977111816,-0.4398624897003174,0.5541250109672546,4,2
450,2.394558906555176,-2.0685269832611084,1.2189300060272217,-1.0785499811172483,-0.46543750166893,0.0617375001311302,4,2
451,1.425812005996704,-1.8353159427642824,0.8540260195732117,-0.8757374882698059,-0.4691500067710876,-0.3145999908447265,4,2
452,0.4775519967079162,-1.5056270360946655,0.6492739915847778,-0.6997374892234802,-0.5583875179290771,-0.5296499729156494,4,2
453,0.3157300055027008,-1.141937017440796,0.2708060145378113,-0.6032124757766724,-0.7402999997138977,-0.6505125164985657,4,2
454,1.0778520107269287,-1.2023719549179075,-0.2301490008831024,-0.5836874842643738,-0.957825005054474,-0.7347999811172485,4,2
455,2.3696138858795166,-1.4480780363082886,-0.2925449907779693,-0.608162522315979,-1.2474000453948977,-0.771512508392334,4,2
456,3.839211940765381,-1.8840769529342647,0.1689729988574981,-0.6875,-1.5125000476837158,-0.8142749667167664,4,2
457,4.86129093170166,-2.454854965209961,0.8096529841423035,-0.8109750151634216,-1.6883624792099,-0.9290875196456908,4,2
458,4.726800918579102,-2.5182290077209477,1.1207280158996582,-0.9172624945640564,-1.7996000051498413,-1.1819499731063845,4,2
459,3.703001976013184,-2.319483995437622,1.2362229824066162,-0.9550749659538268,-1.8766000270843504,-1.5765750408172607,4,2
460,1.736767053604126,-2.113369941711426,1.1072299480438232,-0.936787486076355,-1.94246244430542,-2.0714375972747803,4,2
461,-0.5247989892959595,-1.5443270206451416,0.7300339937210083,-0.9220749735832214,-2.004887580871582,-2.5429248809814453,4,2
462,-2.397442102432251,-1.119420051574707,0.6891850233078003,-0.9440749883651732,-2.1074624061584477,-2.893549919128418,4,2
463,-4.353697776794434,-0.527633011341095,0.5271540284156799,-1.0088374614715576,-2.1440374851226807,-3.0523624420166016,4,2
464,-5.204070091247559,0.921006977558136,0.6957489848136902,-1.032075047492981,-1.9742250442504885,-2.9937875270843506,4,2
465,-4.465517997741699,1.5727920532226562,1.1311769485473633,-0.9257875084877014,-1.5613124370574951,-2.76773738861084,4,2
466,-3.3929450511932373,1.24788498878479,1.8006269931793213,-0.6411625146865845,-0.8100125193595886,-2.3352999687194824,4,2
467,-2.096422910690308,0.7675009965896606,2.955677032470703,-0.1927749961614608,0.1380500048398971,-1.758625030517578,4,2
468,-0.6876149773597717,0.0709720030426979,3.016833066940308,0.2739000022411346,0.9773499965667723,-1.2869999408721924,4,2
469,0.0631569996476173,0.0409520007669925,2.447611093521118,0.6197124719619751,1.3609750270843506,-0.995087504386902,4,2
470,0.5965800285339355,-0.0090460004284977,1.7942670583724976,0.8140000104904175,1.127637505531311,-0.8960874676704407,4,2
471,0.3790470063686371,-0.2261099964380264,0.3733470141887665,0.8420500159263611,0.6560124754905701,-0.9315624833106996,4,2
472,-0.1837700009346008,-0.0270969998091459,-0.9811750054359436,0.7613375186920166,0.1099999994039535,-1.028087496757507,4,2
473,-1.2355669736862185,0.4563130140304565,-1.7530460357666016,0.5964750051498413,-0.4641999900341034,-1.1539000272750854,4,2
474,-2.6658880710601807,1.112285017967224,-1.7219020128250122,0.3546124994754791,-0.8258249759674072,-1.2442375421524048,4,2
475,-3.465898036956787,1.8690149784088133,-1.1822149753570557,0.1383250057697296,-0.8747749924659729,-1.2504249811172483,4,2
476,-2.844023942947388,1.9346040487289429,-0.612043023109436,0.0210375003516674,-0.6327750086784363,-1.1233749389648438,4,2
477,-1.569995999336243,1.220571994781494,0.4623239934444427,0.0283249989151954,-0.210099995136261,-0.8215624690055847,4,2
478,-0.278681993484497,0.5123019814491272,1.1375060081481934,0.1358499974012375,0.2748624980449676,-0.4379374980926513,4,2
479,0.4566400051116943,0.2037999927997589,1.0548479557037354,0.2861374914646148,0.6890124678611755,-0.1581249982118606,4,2
480,0.740323007106781,0.0697569996118545,0.4759719967842102,0.4291374981403351,0.7647749781608582,-0.0653124973177909,4,2
481,0.4741910099983215,0.1868039965629577,-0.300603985786438,0.5036625266075134,0.5852000117301941,-0.1055999994277954,4,2
482,0.0987190008163452,0.2891469895839691,-0.8599749803543091,0.4767124950885772,0.2565749883651733,-0.2155999988317489,4,2
483,-0.4016540050506592,0.3516759872436523,-1.0061030387878418,0.3546124994754791,-0.0940499976277351,-0.3353624939918518,4,2
484,-1.0575720071792605,0.4968790113925934,-1.057705044746399,0.1860374957323074,-0.3481499850749969,-0.4171749949455261,4,2
485,-1.2409780025482178,0.684909999370575,-1.0802149772644043,0.0405624993145465,-0.4556750059127807,-0.4526500105857849,4,2
486,-1.127634048461914,0.6580259799957275,-0.5972599983215332,-0.0339624993503093,-0.4361499845981598,-0.4281750023365021,4,2
487,-0.7908260226249695,0.3634420037269592,0.0501889996230602,-0.0437249988317489,-0.2590500116348266,-0.3316499888896942,4,2
488,-0.3267419934272766,0.0888599976897239,0.1541270017623901,0.0002749999985098,0.0354750007390975,-0.2058375030755996,4,2
489,0.1260530054569244,-0.0982239991426467,-0.1443160027265548,0.0870374962687492,0.2613874971866607,-0.1020250022411346,4,2
490,0.2822529971599579,-0.1847430020570755,-0.3544250130653381,0.1676124930381775,0.3139125108718872,-0.0518375001847744,4,2
491,0.0615569986402988,-0.1744129955768585,-0.2090470045804977,0.171324998140335,0.2358125001192093,-0.0567874982953071,4,2
492,-0.3536570072174072,0.0082109998911619,-0.0438719987869262,0.091849997639656,0.0928125008940696,-0.1105500012636184,4,2
493,-0.6157799959182739,0.142996996641159,0.1439159959554672,-0.0082499999552965,-0.0488125011324882,-0.1740749925374984,4,2
494,-0.6836789846420288,0.1546140015125274,0.1002509966492652,-0.077962502837181,-0.17586250603199,-0.2046000063419342,4,2
495,-0.5041530132293701,0.0912880003452301,-0.1552000045776367,-0.101062498986721,-0.2186249941587448,-0.1898874938488006,4,2
496,-0.3007540106773376,0.0473099984228611,-0.2689689993858337,-0.0681999996304512,-0.1820500046014785,-0.1423124969005584,4,2
497,-0.1774480044841766,0.0099640004336833,-0.1162109971046447,-0.007012499962002,-0.0684750005602836,-0.0835999995470047,4,2
498,-0.0167709998786449,-0.0870829969644546,0.1469070017337799,0.0490874983370304,0.1135749965906143,-0.0397375002503395,4,2
499,0.1247769966721534,-0.154912993311882,0.3266339898109436,0.0820875018835067,0.2516250014305115,-0.0054999999701976,4,2
500,-0.1620720028877258,0.0719050019979476,-0.1655129939317703,0.0503249987959861,0.0182875003665685,-0.0250249989330768,5,2
501,-0.026477999985218,0.0496819987893104,-0.0983870029449462,0.0723249986767768,0.061049997806549,-0.0189750008285045,5,2
502,0.1364119946956634,-0.0319439992308616,-0.0357789993286132,0.0747999995946884,0.0940499976277351,-0.0017874999903142,5,2
503,0.1336279958486557,-0.0040989997796714,-0.0919710025191307,0.0698499977588653,0.1135749965906143,0.016499999910593,5,2
504,0.0566250011324882,0.023259999230504,-0.1167140007019043,0.0650374963879585,0.1123374998569488,0.016499999910593,5,2
505,-0.0045770001597702,0.0164989996701478,-0.2341240048408508,0.0600874982774257,0.0915749967098236,0.0017874999903142,5,2
506,-0.0085549997165799,0.0575659982860088,-0.3822939991950989,0.0345125012099742,0.0452375002205371,-0.0042624999769032,5,2
507,0.0509309992194175,0.0336669981479644,-0.335979014635086,-0.0057749999687075,-0.0257124993950128,-0.0090749999508261,5,2
508,0.1741670072078704,-0.0336360000073909,0.0049629998393356,-0.0497750006616115,-0.0732875019311904,-0.0054999999701976,5,2
509,0.2028010040521621,-0.0437190011143684,0.2954579889774322,-0.0889625027775764,-0.0684750005602836,-0.0017874999903142,5,2
510,0.1072919964790344,0.0403789989650249,0.400085985660553,-0.101062498986721,-0.0207624994218349,-0.0030249999836087,5,2
511,0.0627439990639686,0.0722189992666244,0.400875985622406,-0.0644875019788742,0.032999999821186,-0.0177375003695487,5,2
512,-0.009260999970138,0.0462559983134269,0.2248930037021637,-0.0082499999552965,0.0928125008940696,-0.0287375003099441,5,2
513,-0.0588789992034435,0.0655480027198791,0.0540230013430118,0.0405624993145465,0.1295250058174133,-0.0250249989330768,5,2
514,-0.0827490016818046,0.0977059975266456,0.0476810000836849,0.0577500015497207,0.111237496137619,-0.0262624993920326,5,2
515,-0.1036679968237876,0.1079540029168129,0.127919003367424,0.0320375002920627,0.0635249987244606,-0.0250249989330768,5,2
516,-0.2320660054683685,0.1111079975962638,0.2867650091648102,-0.0155375003814697,0.0072874999605119,-0.0177375003695487,5,2
517,-0.4855940043926239,0.2393819987773895,0.5612900257110596,-0.0559624992311,-0.0402874983847141,-0.0103124994784593,5,2
518,-1.58371901512146,0.444905012845993,0.4302529990673065,-0.0692999958992004,-0.0427624993026256,0.0017874999903142,5,2
519,-3.905431985855103,1.1420940160751345,0.0645830035209655,-0.0437249988317489,0.0049499999731779,0.0336874984204769,5,2
520,-6.570108890533447,2.146475076675415,-0.3455109894275665,0.0173249989748001,0.0769999995827674,0.0972125008702278,5,2
521,-9.564807891845703,3.5196049213409424,-0.6233729720115662,0.0723249986767768,0.2480500042438507,0.2767874896526336,5,2
522,-11.407538414001465,4.461090087890625,0.1442420035600662,0.1370874941349029,0.550962507724762,0.671412467956543,5,2
523,-10.27030086517334,3.4452390670776367,2.107244968414306,0.2043250054121017,1.0788249969482422,1.3261874914169312,5,2
524,-6.744752883911133,0.935941994190216,3.2829010486602783,0.2690874934196472,1.797124981880188,2.26696252822876,5,2
525,-3.404771089553833,-1.1460280418395996,2.297322988510132,0.3851374983787536,2.48256254196167,3.3298375606536865,5,2
526,-1.0581719875335691,-1.4236849546432495,0.2950980067253113,0.5549499988555908,2.746424913406372,4.108087539672852,5,2
527,1.2211469411849976,-1.348122000694275,-0.5427579879760742,0.694237470626831,2.64261245727539,4.3742876052856445,5,2
528,2.725264072418213,-1.5596319437026978,-0.7103639841079712,0.6782875061035156,2.473900079727173,4.265662670135498,5,2
529,2.9588420391082764,-1.891867995262146,-0.2034599930047989,0.5512375235557556,2.448324918746948,4.033562660217285,5,2
530,2.5582098960876465,-1.590109944343567,0.3863419890403747,0.4266625046730041,2.5228500366210938,3.690224885940552,5,2
531,2.6762149333953857,-1.0195930004119873,1.3768010139465332,0.3704249858856201,2.594899892807007,3.2455499172210693,5,2
532,3.5907890796661377,-1.6007159948349,2.233927965164185,0.3851374983787536,2.580187559127808,2.8264498710632324,5,2
533,4.59806489944458,-2.555695056915283,1.9257980585098269,0.4241875112056732,2.49961256980896,2.5503499507904053,5,2
534,5.4373698234558105,-2.9151270389556885,0.8819440007209778,0.4804250001907348,2.20027494430542,2.309725046157837,5,2
535,5.897201061248779,-2.819443941116333,-0.1694629937410354,0.5048999786376953,1.6163125038146973,1.9394375085830688,5,2
536,5.70383882522583,-2.5880188941955566,-0.9934329986572266,0.4204750061035156,0.9321125149726868,1.4507625102996826,5,2
537,5.341578006744385,-2.308300018310547,-1.2299809455871582,0.2433750033378601,0.3091000020503998,0.9180874824523926,5,2
538,4.85902214050293,-2.2958428859710693,-1.1245739459991455,0.0283249989151954,-0.2065249979496002,0.4025999903678894,5,2
539,4.19295597076416,-2.253448963165283,-1.1025539636611938,-0.1878249943256378,-0.5912500023841858,-0.0725999996066093,5,2
540,3.632230043411255,-2.095710039138794,-1.0167750120162964,-0.3723500072956085,-0.8918250203132629,-0.5087500214576721,5,2
541,3.5185770988464355,-2.227055072784424,-0.4505729973316192,-0.5176874995231628,-1.1716375350952148,-0.9266124963760376,5,2
542,4.218059062957764,-2.786834955215454,0.1182639971375465,-0.6802124977111816,-1.4612125158309937,-1.2944250106811523,5,2
543,4.832727909088135,-3.706475973129273,0.3080669939517975,-0.8780750036239624,-1.8118374347686768,-1.6425750255584717,5,2
544,3.95254898071289,-4.192591190338135,-0.0736550018191337,-1.0956000089645386,-2.321274995803833,-2.0371999740600586,5,2
545,0.7818250060081482,-3.541922092437744,-0.4403530061244964,-1.320412516593933,-2.900287389755249,-2.5429248809814453,5,2
546,-2.160991907119751,-2.129323005676269,-0.0796170011162757,-1.548799991607666,-3.414674997329712,-3.1563124656677246,5,2
547,-4.257751941680908,-1.172049045562744,0.857882022857666,-1.8213249444961548,-3.7395875453948975,-3.696274995803833,5,2
548,-6.252837181091309,-0.4085730016231537,1.9242630004882808,-2.115712404251098,-3.816587448120117,-3.9223248958587646,5,2
549,-7.127365112304688,0.4867280125617981,3.223897933959961,-2.2904748916625977,-3.693249940872192,-3.824562549591065,5,2
550,-7.397908210754394,1.1834800243377686,3.4520390033721924,-2.301475048065185,-3.388962507247925,-3.509274959564209,5,2
551,-7.240240097045898,1.6350350379943848,3.7630069255828857,-2.090137481689453,-2.952812433242798,-3.028024911880493,5,2
552,-5.70186710357666,1.24884295463562,4.403539180755615,-1.6625125408172607,-2.433612585067749,-2.483112573623657,5,2
553,-3.856157064437866,0.4050410091876983,3.9048221111297607,-1.1640750169754028,-1.6725499629974363,-1.921149969100952,5,2
554,-2.479048013687134,-0.0479479990899562,2.8814339637756348,-0.5788750052452087,-0.8980125188827515,-1.4299999475479126,5,2
555,-2.29489803314209,-0.0448339991271495,2.0359790325164795,0.0015124999918043,-0.3566749989986419,-1.1159499883651731,5,2
556,-2.9880919456481934,0.3610059916973114,1.3335280418395996,0.3911874890327453,-0.0037124999798834,-1.0011374950408936,5,2
557,-3.5219919681549072,0.836758017539978,0.8509179949760437,0.5574250221252441,0.1649999916553497,-1.0048500299453735,5,2
558,-3.3691389560699463,1.0175260305404663,0.5616869926452637,0.5720000267028809,0.1710499972105026,-1.0036125183105469,5,2
559,-2.822316884994507,0.891510009765625,0.412539005279541,0.5159000158309937,0.1123374998569488,-0.9022749662399292,5,2
560,-2.237344980239868,0.6492249965667725,0.0866060033440589,0.4474250078201294,0.0708125010132789,-0.7140374779701233,5,2
561,-1.7349389791488647,0.4919599890708923,-0.0715989992022514,0.3911874890327453,0.0427624993026256,-0.5259374976158142,5,2
562,-1.3574119806289673,0.4066160023212433,-0.0945950001478195,0.3301374912261963,-0.0049499999731779,-0.3744125068187713,5,2
563,-1.123857021331787,0.2902059853076935,-0.2640250027179718,0.2495625019073486,-0.0452375002205371,-0.2693625092506408,5,2
564,-0.767765998840332,0.1616809964179992,-0.4484539926052093,0.1640374958515167,-0.108762502670288,-0.2118874937295913,5,2
565,-0.4469409883022308,0.1569669991731643,-0.276511013507843,0.0698499977588653,-0.2198625057935714,-0.1863124966621399,5,2
566,-0.3219430148601532,0.0739900022745132,0.1535339951515197,-0.022962499409914,-0.2895750105381012,-0.1863124966621399,5,2
567,-0.5163930058479309,-0.0456230007112026,0.4692229926586151,-0.0815375000238418,-0.2626250088214874,-0.2168374955654144,5,2
568,-0.9262850284576416,-0.0186819992959499,0.3821730017662048,-0.073012501001358,-0.1490499973297119,-0.2583625018596649,5,2
569,-1.2583800554275513,0.0549920015037059,0.1908169984817505,-0.0107249999418854,-0.0477125011384487,-0.2961750030517578,5,2
570,-1.5375590324401855,0.1344680041074752,0.026953000575304,0.0442750006914138,-0.0109999999403953,-0.3071750104427337,5,2
571,-1.5871009826660156,0.2693159878253937,0.0997999981045723,0.063799999654293,0.0024749999865889,-0.284074991941452,5,2
572,-1.236788034439087,0.2021850049495697,0.2360280007123947,0.0613249987363815,0.0317624993622303,-0.2315499931573867,5,2
573,-0.6545299887657166,-0.0240589994937181,0.3210000097751617,0.0577500015497207,0.0928125008940696,-0.1520749926567077,5,2
574,-0.1908420026302337,-0.2143390029668808,0.3327159881591797,0.0857999995350837,0.1795749962329864,-0.0677874982357025,5,2
575,-0.0077669997699558,-0.2871370017528534,0.246408000588417,0.1322750002145767,0.2675749957561493,-0.0213124994188547,5,2
576,-0.1401319950819015,-0.2634609937667846,0.1732890009880066,0.182325005531311,0.3335750102996826,-0.0335500016808509,5,2
577,-0.3985689878463745,-0.2348009943962097,0.1321769952774047,0.198137491941452,0.3396250009536743,-0.0787874981760978,5,2
578,-0.8052089810371399,-0.0531379990279674,0.2949160039424896,0.1640374958515167,0.2675749957561493,-0.1288374960422516,5,2
579,-0.8872020244598389,0.0070810001343488,0.3567380011081695,0.0943249985575676,0.1368124932050705,-0.1630750000476837,5,2
580,-0.7770000100135803,0.0592719987034797,0.2828199863433838,0.0162249989807605,0.0109999999403953,-0.1643124967813491,5,2
581,-0.4482290148735046,-0.0374360010027885,0.0252529997378587,-0.0254375003278255,-0.1050499975681305,-0.1313125044107437,5,2
582,-0.0377800017595291,-0.171998992562294,-0.1148710027337074,-0.0217249989509582,-0.1430000066757202,-0.0897874981164932,5,2
583,0.1007459983229637,-0.2074840068817138,-0.0589549988508224,0.0185624994337558,-0.0842875018715858,-0.0543125011026859,5,2
584,0.0415819995105266,-0.203913003206253,0.140748992562294,0.0613249987363815,0.0367125011980533,-0.0482624992728233,5,2
585,-0.100382000207901,-0.0918369963765144,0.2927010059356689,0.0882750004529953,0.1575749963521957,-0.0750750005245208,5,2
586,-0.1475799977779388,-0.0368270017206668,0.3723599910736084,0.106562502682209,0.2248124927282333,-0.1080750003457069,5,2
587,-0.2293400019407272,-0.0540659986436367,0.4935660064220428,0.110275000333786,0.2065249979496002,-0.1252624988555908,5,2
588,-0.2452040016651153,0.0154069997370243,0.4564529955387115,0.0955625027418136,0.1368124932050705,-0.1252624988555908,5,2
589,-0.2815650105476379,0.034035000950098,0.2690689861774444,0.0870374962687492,0.0818125009536743,-0.1227874979376792,5,2
590,-0.2891089916229248,0.0622589997947216,-0.0119550004601478,0.1077999994158744,0.0427624993026256,-0.1080750003457069,5,2
591,-0.1830739974975586,0.0303930006921291,-0.3879100084304809,0.1443749964237213,0.0477125011384487,-0.0848374962806701,5,2
592,-0.009881000034511,-0.0546780005097389,-0.5273579955101013,0.1651374995708465,0.0635249987244606,-0.0543125011026859,5,2
593,0.0858969986438751,-0.0271010007709264,-0.4648840129375458,0.1518000066280365,0.0867625027894973,-0.0299750007688999,5,2
594,0.1601510047912597,-0.0731140002608299,-0.1247569993138313,0.1016125008463859,0.1148125007748603,-0.020075000822544,5,2
595,0.1386879980564117,-0.1214289963245391,0.3873479962348938,0.0405624993145465,0.1307625025510788,-0.0274999998509883,5,2
596,-0.0482049994170665,-0.0653259977698326,0.7794539928436279,-0.0057749999687075,0.1478125005960464,-0.040837500244379,5,2
597,-0.1038779988884925,-0.0475560016930103,0.7572299838066101,0.0002749999985098,0.1771000027656555,-0.0580249987542629,5,2
598,-0.0158339999616146,-0.0909459963440895,0.277756005525589,0.0600874982774257,0.1845249980688095,-0.0592624992132186,5,2
599,0.0632150024175643,-0.0487740002572536,-0.1567640006542205,0.1260875016450882,0.1233374997973442,-0.0445500016212463,5,2
600,-0.0325100012123584,0.0739179998636245,0.0708879977464675,0.06751249730587,0.1331000030040741,-0.0262624993920326,6,2
601,-0.1854149997234344,0.1170509979128837,0.0042500002309679,0.1200374960899353,0.1637624949216842,-0.0323125012218952,6,2
602,-0.2592479884624481,0.1150270029902458,-0.0602260008454322,0.1358499974012375,0.1649999916553497,-0.0420750007033348,6,2
603,-0.2612139880657196,0.0697780027985572,-0.0378680005669593,0.1187999993562698,0.1282874941825866,-0.040837500244379,6,2
604,-0.1662960052490234,-0.0504809990525245,-0.1022519990801811,0.0772750005125999,0.0598125010728836,-0.0299750007688999,6,2
605,-0.1131929978728294,-0.0073009999468922,-0.2049839943647384,0.0197999998927116,-0.0280499998480081,-0.0090749999508261,6,2
606,-0.0316420011222362,0.1022690013051033,-0.2636600136756897,-0.0364375002682209,-0.1258125007152557,-0.0017874999903142,6,2
607,0.0065279998816549,0.1268209964036941,-0.1153270006179809,-0.0840125009417533,-0.183287501335144,-0.0017874999903142,6,2
608,-0.0723360031843185,0.1459999978542328,0.1574520021677017,-0.1060125008225441,-0.1660999953746795,-0.0005499999970197,6,2
609,-0.0750060006976127,0.0931179970502853,0.3797860145568847,-0.0937749966979026,-0.0782374963164329,0.0067374999634921,6,2
610,0.0177270006388425,-0.0171419996768236,0.3270800113677978,-0.0497750006616115,0.0257124993950128,0.016499999910593,6,2
611,0.1614370048046112,-0.1259779930114746,0.192329004406929,0.0087999999523162,0.079475000500679,0.0336874984204769,6,2
612,0.2943390011787414,-0.1855749934911728,-0.0388239994645118,0.0490874983370304,0.0672374963760376,0.0445500016212463,6,2
613,0.3816410005092621,-0.2192399948835373,-0.2882390022277832,0.0625625029206276,0.0292875003069639,0.0384999997913837,6,2
614,0.2990359961986542,-0.0950030013918876,-0.3799040019512176,0.0577500015497207,-0.0195249989628791,0.0202124994248151,6,2
615,0.0745079964399337,0.0683910027146339,-0.3396419882774353,0.0393249988555908,-0.0378125011920928,-0.0103124994784593,6,2
616,-0.0964239984750747,0.1379660069942474,-0.166020005941391,0.0162249989807605,-0.0170499999076128,-0.0445500016212463,6,2
617,-0.2567020058631897,0.1660619974136352,-0.0282710008323192,-0.007012499962002,0.0257124993950128,-0.0592624992132186,6,2
618,-0.2093240022659301,0.1290670037269592,0.2058939933776855,-0.0192499998956918,0.0720499977469444,-0.0518375001847744,6,2
619,-0.2034160047769546,0.0942120030522346,0.5149610042572021,-0.026537500321865,0.0928125008940696,-0.0250249989330768,6,2
620,-0.497076004743576,0.1440580040216446,0.8466399908065796,-0.0302499998360872,0.1050499975681305,0.0116875004023313,6,2
621,-1.420928955078125,0.4302479922771454,1.0978779792785645,-0.0167750008404254,0.1062875017523765,0.0397375002503395,6,2
622,-3.474220991134644,1.2055649757385254,1.2065919637680054,0.0185624994337558,0.103812500834465,0.0715000033378601,6,2
623,-5.297089099884033,2.1562769412994385,0.8873379826545715,0.0772750005125999,0.0915749967098236,0.1387374997138977,6,2
624,-8.709357261657715,3.312941074371338,-0.5338109731674194,0.1493249982595443,0.1002374961972236,0.3255999982357025,6,2
625,-12.52889347076416,4.582050800323486,-1.6553720235824585,0.2385624945163726,0.1453374922275543,0.6811749935150146,6,2
626,-15.414179801940918,4.731037139892578,-2.275994062423706,0.2983750104904175,0.3078624904155731,1.2064249515533447,6,2
627,-14.1251220703125,3.1424129009246826,-1.5860140323638916,0.2886124849319458,0.7855374813079834,2.051912546157837,6,2
628,-9.30308723449707,0.0886219963431358,-0.2764970064163208,0.3191374838352203,1.6077874898910522,3.2258875370025635,6,2
629,-3.6445159912109375,-2.018551111221313,0.2500660121440887,0.4083749949932098,2.654712438583374,4.57105016708374,6,2
630,0.8932790160179138,-2.824850082397461,0.7774680256843567,0.4742375016212463,3.410962581634521,5.548399925231934,6,2
631,5.2066969871521,-3.533205986022949,1.229936957359314,0.4364250004291534,3.651725053787232,5.839212417602539,6,2
632,8.195549011230469,-4.161740779876709,1.1188900470733645,0.2678500115871429,3.524674892425537,5.654687404632568,6,2
633,8.715323448181152,-4.182072162628174,1.541182041168213,0.0490874983370304,3.0640499591827397,5.124487400054932,6,2
634,7.904209136962891,-3.65578293800354,2.125190019607544,-0.1817750036716461,2.4140875339508057,4.280237674713135,6,2
635,6.384515762329102,-3.010338068008423,1.987403988838196,-0.405349999666214,1.739650011062622,3.28336238861084,6,2
636,4.769626140594482,-2.296009063720703,0.6282150149345398,-0.5324000120162964,1.0128250122070312,2.356062412261963,6,2
637,3.4782629013061523,-1.7626819610595703,-0.7921760082244873,-0.5274500250816345,0.2980999946594238,1.61204993724823,6,2
638,2.965007066726685,-1.6248480081558228,-1.181123971939087,-0.4846875071525574,-0.2418625056743621,1.1050875186920166,6,2
639,2.983527898788452,-1.7828700542449951,-0.6494259834289551,-0.4921124875545501,-0.4739624857902527,0.8032749891281128,6,2
640,3.0675621032714844,-1.9118499755859373,0.0098329996690154,-0.5409250259399414,-0.441100001335144,0.6102250218391418,6,2
641,2.9165399074554443,-1.7964869737625122,0.4995209872722626,-0.551925003528595,-0.3359124958515167,0.4294124841690063,6,2
642,2.728557109832764,-1.6293959617614746,0.5548350214958191,-0.4969249963760376,-0.2895750105381012,0.209549993276596,6,2
643,2.6344549655914307,-1.5367799997329712,0.3654069900512695,-0.405349999666214,-0.3151499927043915,-0.0213124994188547,6,2
644,3.039928913116455,-1.627182960510254,0.3761770129203796,-0.3075875043869018,-0.4190999865531921,-0.2534124851226806,6,2
645,4.188107967376709,-2.190584897994995,0.5533689856529236,-0.2355374991893768,-0.5607249736785889,-0.4831750094890594,6,2
646,5.253695011138916,-2.8645029067993164,0.2922199964523315,-0.2208250015974044,-0.7623000144958496,-0.7250375151634216,6,2
647,5.708928108215332,-3.292332887649536,-0.4547629952430725,-0.2575374841690063,-1.0909249782562256,-1.037850022315979,6,2
648,4.848084926605225,-3.0343871116638184,-1.1757190227508545,-0.357637494802475,-1.5369750261306765,-1.483762502670288,6,2
649,2.848581075668335,-2.5849781036376958,-1.3633439540863037,-0.5543999671936035,-2.032937526702881,-2.0224874019622803,6,2
650,0.6586490273475647,-2.183878898620605,-0.8572649955749512,-0.8903124928474426,-2.4813249111175537,-2.578399896621704,6,2
651,-0.6762620210647583,-1.7225580215454102,0.2519690096378326,-1.3166999816894531,-2.8209500312805176,-3.0218374729156494,6,2
652,-1.0540339946746826,-1.668166995048523,0.9749119877815248,-1.6868499517440796,-2.943049907684326,-3.2931249141693115,6,2
653,-2.579097986221313,-1.8365520238876345,0.7118210196495056,-1.8909000158309937,-2.85518741607666,-3.3591248989105225,6,2
654,-4.542163848876953,-0.5340319871902466,0.9578959941864014,-1.840849995613098,-2.625425100326538,-3.327362537384033,6,2
655,-5.592086791992188,1.0840580463409424,1.5170819759368896,-1.6502749919891355,-2.184462547302246,-3.2686500549316406,6,2
656,-5.859861850738525,1.9999489784240725,2.249428033828736,-1.3789875507354736,-1.4843125343322754,-3.091549873352051,6,2
657,-4.718702793121338,1.66743803024292,3.447951078414917,-0.9575499892234802,-0.651199996471405,-2.6956875324249268,6,2
658,-3.170207977294922,0.6959099769592285,3.741863965988159,-0.4383499920368194,0.2626250088214874,-2.1495375633239746,6,2
659,-2.594571113586426,0.5791540145874023,3.0072410106658936,0.0930875018239021,1.0115875005722046,-1.6315749883651731,6,2
660,-2.770998001098633,1.0030690431594849,2.302220106124878,0.5684249997138977,1.2791625261306765,-1.3274250030517578,6,2
661,-3.443065881729126,1.3496580123901367,1.3075499534606934,0.8590999841690063,1.1972124576568604,-1.2027125358581543,6,2
662,-3.4158859252929688,1.610687017440796,0.1719679981470108,0.9311500191688538,0.8918250203132629,-1.1221375465393066,6,2
663,-2.5863850116729736,1.5816810131072998,-0.7442740201950073,0.8225250244140625,0.3971000015735626,-1.008562445640564,6,2
664,-1.7561060190200806,1.2368969917297363,-0.91246497631073,0.5867124795913696,-0.1233374997973442,-0.8435624837875366,6,2
665,-1.2138760089874268,0.9227859973907472,-0.7297599911689758,0.3191374838352203,-0.4606249928474426,-0.6774625182151794,6,2
666,-1.073752999305725,0.779787003993988,-0.6918579936027527,0.110275000333786,-0.550962507724762,-0.5711749792098999,6,2
667,-1.2863470315933228,0.9164000153541564,-0.1938520073890686,0.0052249999716877,-0.5179625153541565,-0.5307499766349792,6,2
668,-1.6266429424285889,0.9442030191421508,0.5538300275802612,-0.0302499998360872,-0.4336749911308288,-0.5161749720573425,6,2
669,-1.9120490550994875,0.8715350031852722,0.9432870149612428,-0.0290124993771314,-0.2651000022888183,-0.4989874958992004,6,2
670,-1.7227870225906372,0.7452070116996765,0.6914089918136597,0.03575000166893,-0.1282874941825866,-0.4476999938488006,6,2
671,-1.3017719984054563,0.5359740257263184,0.0524509996175766,0.1505624949932098,-0.0940499976277351,-0.3695999979972839,6,2
672,-0.972694993019104,0.3639650046825409,-0.5970219969749451,0.256850004196167,-0.1417624950408935,-0.295074999332428,6,2
673,-0.7356839776039124,0.2235009968280792,-0.992467999458313,0.3081375062465668,-0.1955250054597854,-0.2486000061035156,6,2
674,-0.6512230038642883,0.1996330022811889,-1.1223139762878418,0.3033249974250793,-0.1966249942779541,-0.2388374954462051,6,2
675,-0.8121129870414734,0.215158998966217,-0.9767720103263856,0.2666124999523163,-0.1380500048398971,-0.2413125038146972,6,2
676,-1.1559109687805176,0.3160080015659332,-0.4907189905643463,0.2177999913692474,-0.0268124993890523,-0.2510749995708465,6,2
677,-1.2757439613342283,0.4200719892978668,-0.0623000003397464,0.1688500046730041,0.1002374961972236,-0.2510749995708465,6,2
678,-1.1184159517288208,0.3089990019798279,-0.0371370017528533,0.1310375034809112,0.1905750036239624,-0.2180749922990799,6,2
679,-0.8338940143585205,0.1369539946317672,-0.0414999984204769,0.1236125007271766,0.2065249979496002,-0.1533125042915344,6,2
680,-0.4123840034008026,-0.0693110004067421,-0.0582240000367164,0.1236125007271766,0.1551000028848648,-0.0812624990940094,6,2
681,-0.1159520000219345,-0.2380619943141937,-0.3592720031738281,0.0906125009059906,0.079475000500679,-0.0262624993920326,6,2
682,-0.0798079967498779,-0.2228929996490478,-0.5609530210494995,0.0405624993145465,-0.0342375002801418,-0.0115499999374151,6,2
683,-0.3002690076828003,-0.0550579987466335,-0.5232800245285034,-0.007012499962002,-0.1295250058174133,-0.0360249988734722,6,2
684,-0.4695670008659363,0.0072920001111924,-0.5195019841194153,-0.0497750006616115,-0.1319999992847442,-0.0775500014424324,6,2
685,-0.5510820150375366,0.093979999423027,-0.2350399941205978,-0.0632499977946281,-0.0317624993622303,-0.0970750004053115,6,2
686,-0.5682560205459595,0.0741489976644516,0.4002250134944916,-0.0571999996900558,0.0855249986052513,-0.0763124972581863,6,2
687,-0.508063018321991,-0.0319060012698173,0.9178079962730408,-0.0547249987721443,0.2272875010967254,-0.0397375002503395,6,2
688,-0.2900449931621551,-0.1040650010108947,0.9807459712028505,-0.0327249988913536,0.329862505197525,0.0079749999567866,6,2
689,0.0371930003166198,-0.2246599942445755,0.6072840094566345,0.0173249989748001,0.32133749127388,0.0555500015616416,6,2
690,0.2678410112857818,-0.3162910044193268,0.1839859932661056,0.056512501090765,0.1893374919891357,0.0897874981164932,6,2
691,0.3536219894886017,-0.2565900087356567,-0.1141270026564598,0.0479874983429908,-0.0097624994814395,0.098312497138977,6,2
692,0.3507930040359497,-0.1792470067739486,-0.1597079932689666,-0.004674999974668,-0.1747625023126602,0.0752125009894371,6,2
693,0.310708999633789,-0.1803140044212341,-0.2217829972505569,-0.0522499978542327,-0.2418625056743621,0.0397375002503395,6,2
694,0.2478020042181015,-0.0866710022091865,-0.1894669979810714,-0.0607750006020069,-0.1930499970912933,0.014024999924004,6,2
695,0.21629199385643,-0.0719659999012947,-0.0471060015261173,-0.0290124993771314,-0.0684750005602836,-0.0005499999970197,6,2
696,0.1316689997911453,-0.1422140002250671,0.1239669993519783,0.0270875003188848,0.1160499975085258,-0.0042624999769032,6,2
697,-0.0970989987254142,-0.0206450000405311,0.3630290031433105,0.0845625028014183,0.2846249938011169,-0.0005499999970197,6,2
698,-0.0672039985656738,-0.0065489998087286,0.3779579997062683,0.1150875017046928,0.3603875041007995,-0.0017874999903142,6,2
699,0.0293669998645782,-0.0890460014343261,0.1374550014734268,0.1115124970674514,0.3176249861717224,0.0042624999769032,6,2
700,0.0904849991202354,0.0221500005573034,-0.3991540074348449,0.1053249984979629,0.0109999999403953,0.0054999999701976,7,2
701,0.1640260070562362,0.0118019999936223,-0.3224300146102905,0.0417999997735023,-0.0745249986648559,0.0079749999567866,7,2
702,0.2828109860420227,-0.0332730002701282,-0.0517809987068176,-0.0339624993503093,-0.1307625025510788,0.0067374999634921,7,2
703,0.251469999551773,-0.0634249970316886,0.2444189935922622,-0.0900624990463256,-0.1319999992847442,0.0054999999701976,7,2
704,0.093080997467041,0.0035389999393373,0.4391709864139557,-0.0987249985337257,-0.0732875019311904,-0.0042624999769032,7,2
705,-0.0668179988861084,-0.0061789997853338,0.4475240111351013,-0.0559624992311,0.0207624994218349,-0.0225499998778104,7,2
706,-0.0799620002508163,-0.0558630004525184,0.1287370026111602,0.0247499998658895,0.1282874941825866,-0.0310750007629394,7,2
707,-0.0140760000795125,-0.0815519988536834,-0.1704680025577545,0.1028499975800514,0.1747625023126602,-0.0213124994188547,7,2
708,-0.039342001080513,-0.0148069998249411,-0.3199900090694427,0.1333750039339065,0.1453374922275543,-0.0079749999567866,7,2
709,-0.1166829988360405,0.0628210008144378,-0.2768079936504364,0.1077999994158744,0.0879999995231628,-0.0067374999634921,7,2
710,-0.0864130035042762,0.1036470010876655,-0.1026690006256103,0.0490874983370304,0.0232375003397464,-0.0152624994516372,7,2
711,0.0004990000161342,0.0361090004444122,0.0085490001365542,-0.0131999999284744,-0.0342375002801418,-0.0115499999374151,7,2
712,0.1671739965677261,-0.0363549999892711,-0.0393709987401962,-0.0534874983131885,-0.0695749968290329,-0.0005499999970197,7,2
713,0.2055210024118423,-0.1011769995093345,-0.1329389959573745,-0.0559624992311,-0.079475000500679,0.0067374999634921,7,2
714,0.1731580048799514,-0.0895270034670829,-0.150299996137619,-0.0387750007212162,-0.0732875019311904,0.0054999999701976,7,2
715,0.119546003639698,-0.0500140003859996,-0.0071000000461936,-0.0217249989509582,-0.053762499243021,-0.0090749999508261,7,2
716,0.0995739996433258,-0.1103399991989135,0.1927119940519333,-0.0155375003814697,-0.0232375003397464,-0.0274999998509883,7,2
717,0.0712170004844665,-0.0766059979796409,0.2885459959506988,-0.007012499962002,0.0049499999731779,-0.0384999997913837,7,2
718,-0.0158980004489421,-0.0316549986600875,0.295630007982254,0.0149875003844499,0.0305249989032745,-0.0470249988138675,7,2
719,-0.1498419940471649,-0.0029309999663382,0.1429730057716369,0.0515624992549419,0.0477125011384487,-0.0580249987542629,7,2
720,-0.2822850048542022,0.0152589995414018,-0.146245002746582,0.0870374962687492,0.0562375001609325,-0.070262499153614,7,2
721,-0.3319390118122101,0.1060570031404495,-0.4295519888401031,0.1090374961495399,0.0305249989032745,-0.0725999996066093,7,2
722,-0.2670499980449676,0.1212780028581619,-0.5670170187950134,0.0943249985575676,-0.0268124993890523,-0.0677874982357025,7,2
723,-0.1567199975252151,0.0767040029168129,-0.4685559868812561,0.0405624993145465,-0.0892374962568283,-0.0482624992728233,7,2
724,-0.0699009969830513,0.0492659993469715,-0.3503319919109344,-0.0314874984323978,-0.1220999956130981,-0.0250249989330768,7,2
725,-0.0209630001336336,0.0469910018146038,-0.1539710015058517,-0.0864875018596649,-0.1160499975085258,-0.0103124994784593,7,2
726,-0.009332999587059,0.0014440000522881,-0.0053790002129971,-0.1132999956607818,-0.0879999995231628,-0.0067374999634921,7,2
727,-0.1374440044164657,0.0334599986672401,0.0524320006370544,-0.1084875017404556,-0.0257124993950128,-0.0030249999836087,7,2
728,-0.4500289857387543,0.1277399957180023,-0.0427309982478618,-0.076724998652935,0.0402874983847141,-0.0079749999567866,7,2
729,-1.1713509559631348,0.3651739954948425,-0.0144039997830986,-0.0327249988913536,0.1002374961972236,-0.0103124994784593,7,2
730,-3.039315938949585,1.0512510538101196,0.2369000017642974,0.0052249999716877,0.1417624950408935,0.0079749999567866,7,2
731,-5.491709232330322,2.081195116043091,0.8163880109786987,0.0173249989748001,0.210099995136261,0.066550001502037,7,2
732,-6.637824058532715,2.7559609413146973,1.7411489486694336,0.0235124994069337,0.2883374989032745,0.2132624983787536,7,2
733,-7.32013988494873,2.678776979446411,2.04633903503418,0.03575000166893,0.3799124956130981,0.5687000155448914,7,2
734,-6.192570209503174,1.792206048965454,1.4265559911727903,0.1138499975204467,0.4899125099182129,1.1063250303268433,7,2
735,-4.741312026977539,0.8647130131721497,0.0782020017504692,0.256850004196167,0.5741999745368958,1.7098125219345093,7,2
736,-3.870538949966431,0.5958110094070435,-0.8966630101203918,0.4083749949932098,0.65972501039505,2.3047749996185303,7,2
737,-4.503833770751953,0.6315889954566956,-0.3514510095119476,0.5256624817848206,0.8478249907493591,2.744637489318848,7,2
738,-5.629456996917725,0.8487759828567505,0.9625260233879088,0.5597624778747559,1.2474000453948977,3.021975040435791,7,2
739,-4.140791893005371,0.150855004787445,1.623064041137695,0.567187488079071,1.795887470245361,3.258887529373169,7,2
740,-0.5903419852256775,-0.8702250123023987,1.4483959674835205,0.633187472820282,2.2442750930786133,3.576512575149536,7,2
741,2.925585985183716,-1.663040041923523,0.9091299772262572,0.7822374701499939,2.454375028610229,3.9345624446868896,7,2
742,5.355463027954102,-2.397152900695801,0.893468976020813,0.9311500191688538,2.536324977874756,4.093375205993652,7,2
743,6.531283855438232,-3.1885809898376465,0.9344329833984376,0.9935749769210817,2.5448498725891118,3.911324977874756,7,2
744,5.907662868499756,-3.507807970046997,0.9305019974708556,0.9410499930381776,2.444612503051758,3.44712495803833,7,2
745,3.555367946624756,-2.871396064758301,0.0065130000002682,0.8163374662399292,2.1685125827789307,2.7983999252319336,7,2
746,0.8161849975585938,-1.3257449865341189,-1.2982590198516846,0.6857125163078308,1.7543624639511108,2.088487386703491,7,2
747,-0.3182210028171539,-0.0889689996838569,-1.8103280067443848,0.5476624965667725,1.2204500436782837,1.478950023651123,7,2
748,0.3829469978809356,-0.396140992641449,-1.8258090019226076,0.3643749952316284,0.8307750225067139,1.1331374645233154,7,2
749,2.237668037414551,-1.5428040027618408,-1.3109639883041382,0.1676124930381775,0.65972501039505,1.1270874738693235,7,2
750,3.708867073059082,-2.16759991645813,-0.8083530068397522,-0.0180124994367361,0.6011499762535095,1.2589499950408936,7,2
751,4.58466386795044,-2.4209299087524414,-0.4418449997901916,-0.184249997138977,0.5644375085830688,1.266374945640564,7,2
752,5.081240177154541,-2.323554039001465,0.3025560081005096,-0.3088249862194061,0.4629625082015991,1.055037498474121,7,2
753,5.319325923919678,-2.365065097808838,1.012248992919922,-0.3833499848842621,0.3420999944210052,0.7079874873161316,7,2
754,5.743009090423584,-2.8287649154663086,1.4519490003585815,-0.4285874962806701,0.2040500044822693,0.3048374950885772,7,2
755,6.538665771484375,-3.6227331161499023,1.6088249683380127,-0.4518249928951263,-0.0635249987244606,-0.1055999994277954,7,2
756,6.787417888641357,-3.657474994659424,1.435740947723389,-0.4811125099658966,-0.515625,-0.5467000007629395,7,2
757,6.824812889099121,-3.683703899383545,1.00137197971344,-0.5581125020980835,-1.1251624822616575,-1.0769000053405762,7,2
758,5.852471828460693,-3.754524946212769,0.007499000057578,-0.7009750008583069,-1.795887470245361,-1.6560499668121338,7,2
759,2.905791997909546,-3.186832904815674,-1.1719369888305664,-0.892787516117096,-2.4398000240325928,-2.220487594604492,7,2
760,0.4777959883213043,-2.1148369312286377,-1.5292290449142456,-1.109074950218201,-2.937000036239624,-2.762924909591675,7,2
761,-0.6646929979324341,-1.4631539583206177,-1.0055359601974487,-1.365649938583374,-3.1752874851226807,-3.1783125400543213,7,2
762,-0.7350819706916809,-1.4392420053482056,-0.1596779972314834,-1.6172749996185305,-3.037100076675415,-3.3358874320983887,7,2
763,0.4517959952354431,-2.142607927322388,0.8811420202255249,-1.710087537765503,-2.619374990463257,-3.252837419509888,7,2
764,0.0242749992758035,-2.6014649868011475,1.8540600538253784,-1.614799976348877,-2.0316998958587646,-3.063362598419189,7,2
765,-2.996423959732056,-1.526108980178833,2.9141499996185303,-1.3924624919891355,-1.43426251411438,-2.943737506866455,7,2
766,-5.188361167907715,0.3841710090637207,3.5821750164031982,-1.106600046157837,-0.952875018119812,-2.986500024795532,7,2
767,-5.601813793182373,1.3130090236663818,2.765260934829712,-0.8292624950408936,-0.6304374933242798,-2.97302508354187,7,2
768,-4.686081886291504,1.1446479558944702,1.7265379428863523,-0.5043500065803528,-0.4984374940395355,-2.67368745803833,7,2
769,-3.6619160175323486,0.9402940273284912,1.2695839405059814,-0.1720124930143356,-0.3909125030040741,-2.1470625400543213,7,2
770,-2.9101879596710205,0.8343759775161743,1.1655340194702148,0.0820875018835067,-0.1148125007748603,-1.6438125371932983,7,2
771,-2.366818904876709,0.825838029384613,1.0977530479431152,0.2531374990940094,0.1905750036239624,-1.2760000228881836,7,2
772,-1.718459963798523,0.7727349996566772,0.9254440069198608,0.3533749878406524,0.3348124921321869,-1.008562445640564,7,2
773,-0.9155369997024536,0.511925995349884,0.6174700260162354,0.3691875040531158,0.2773374915122986,-0.8252750039100647,7,2
774,-0.3600679934024811,0.3677330017089844,0.4364590048789978,0.3130874931812286,0.075762502849102,-0.71527498960495,7,2
775,-0.4226270020008087,0.3405689895153045,0.0312540009617805,0.2238499969244003,-0.151525005698204,-0.6797999739646912,7,2
776,-1.245144963264465,0.6368290185928345,-0.185370996594429,0.1480875015258789,-0.3323374986648559,-0.7250375151634216,7,2
777,-2.325247049331665,1.151108980178833,0.0744109973311424,0.091849997639656,-0.4618625044822693,-0.8142749667167664,7,2
778,-3.07716703414917,1.4933069944381714,0.1395280063152313,0.0405624993145465,-0.4789125025272369,-0.8595125079154968,7,2
779,-3.150840997695923,1.5301300287246704,-0.0708059966564178,0.0247499998658895,-0.4116750061511993,-0.8007999658584595,7,2
780,-2.3273189067840576,1.2644929885864258,-0.1901489943265915,0.063799999654293,-0.3469125032424927,-0.6237000226974487,7,2
781,-1.3567839860916138,0.8357920050621033,-0.3779990077018738,0.1248499974608421,-0.2370499968528747,-0.3866499960422516,7,2
782,-0.5264750123023987,0.4306409955024719,-0.627232015132904,0.1798499971628189,-0.108762502670288,-0.1740749925374984,7,2
783,-0.1837150007486343,0.2607339918613434,-0.6363490223884583,0.2165624946355819,-0.0268124993890523,-0.0494999997317791,7,2
784,-0.2387010008096695,0.2121060043573379,-0.4197790026664734,0.2079000025987625,-0.0049499999731779,-0.016499999910593,7,2
785,-0.3824320137500763,0.1505250036716461,-0.3302200138568878,0.1443749964237213,-0.0512874983251094,-0.0555500015616416,7,2
786,-0.584854006767273,0.1581429988145828,-0.2213249951601028,0.0552750006318092,-0.1637624949216842,-0.1142624989151954,7,2
787,-0.7972270250320435,0.2310940027236938,-0.1244079992175102,-0.022962499409914,-0.3041499853134155,-0.1557874977588653,7,2
788,-0.8656550049781799,0.2255849987268448,-0.1493220031261444,-0.0742499977350235,-0.3689124882221222,-0.172837495803833,7,2
789,-0.8658109903335571,0.2712140083312988,-0.2178409993648529,-0.077962502837181,-0.3310999870300293,-0.1570249944925308,7,2
790,-0.7618489861488342,0.2931559979915619,-0.1870180070400238,-0.0254375003278255,-0.1820500046014785,-0.0995500013232231,7,2
791,-0.4184759855270386,0.115447998046875,-0.0862620025873184,0.0710875019431114,0.0598125010728836,-0.0225499998778104,7,2
792,0.0117330001667141,-0.1349509954452514,-0.0551000013947486,0.166374996304512,0.3151499927043915,0.0592624992132186,7,2
793,0.4010150134563446,-0.3409090042114258,-0.0094659999012947,0.2165624946355819,0.4544374942779541,0.1215500012040138,7,2
794,0.6362670063972473,-0.3860769867897033,0.1394679993391037,0.1970375031232834,0.4349125027656555,0.130074992775917,7,2
795,0.4802320003509521,-0.2993490099906921,0.2865839898586273,0.1322750002145767,0.3201000094413757,0.0849749967455864,7,2
796,0.0867509990930557,-0.1447789967060089,0.4098510146141052,0.0490874983370304,0.1698125004768371,0.0042624999769032,7,2
797,-0.2940559983253479,-0.0046560000628232,0.2914179861545563,-0.0217249989509582,0.0134749999269843,-0.0775500014424324,7,2
798,-0.5367540121078491,0.1686220020055771,-0.0763309970498085,-0.0582999996840953,-0.0989999994635582,-0.1288374960422516,7,2
799,-0.4313679933547973,0.1840829998254776,-0.438057005405426,-0.0474375002086162,-0.1575749963521957,-0.1288374960422516,7,2
800,0.1137880012392997,0.0139509998261928,-0.3731989860534668,0.0455125011503696,0.0037124999798834,0.0104499999433755,8,2
801,0.222242996096611,0.0146120004355907,-0.4568670094013214,0.0283249989151954,-0.075762502849102,-0.0005499999970197,8,2
802,0.22673000395298,0.0019710001070052,-0.2302089929580688,-0.0082499999552965,-0.1050499975681305,-0.0079749999567866,8,2
803,0.1576229929924011,-0.0483769997954368,0.0722559988498687,-0.0400125011801719,-0.0672374963760376,-0.014024999924004,8,2
804,0.0639140009880065,-0.1018849983811378,0.1977970004081726,-0.0534874983131885,0.0085249999538064,-0.0250249989330768,8,2
805,-0.007412000093609,-0.1196120008826255,0.224823996424675,-0.0375375002622604,0.075762502849102,-0.0360249988734722,8,2
806,-0.0424039997160434,0.0032470000442117,0.1395889967679977,-0.0009624999947845,0.108762502670288,-0.040837500244379,8,2
807,-0.015939999371767,0.0698819980025291,-0.0978400036692619,0.0283249989151954,0.108762502670288,-0.0433125011622905,8,2
808,0.1011039987206459,0.0577969998121261,-0.2799420058727264,0.038087498396635,0.061049997806549,-0.0420750007033348,8,2
809,0.0972009971737861,0.0536799989640712,-0.3261680006980896,0.0235124994069337,-0.0024749999865889,-0.0360249988734722,8,2
810,-0.0024359999224543,0.0757709965109825,-0.2625829875469208,-0.0107249999418854,-0.0305249989032745,-0.0310750007629394,8,2
811,-0.0587249994277954,0.051511000841856,-0.0690750032663345,-0.0437249988317489,-0.0195249989628791,-0.040837500244379,8,2
812,-0.0506559982895851,0.0012870000209659,0.272801011800766,-0.0681999996304512,0.0147124994546175,-0.040837500244379,8,2
813,0.0195930004119873,-0.0262279994785785,0.5830450057983398,-0.0791999995708465,0.0659999996423721,-0.0335500016808509,8,2
814,0.033730000257492,-0.0032460000365972,0.6610389947891235,-0.0669625028967857,0.1209999993443489,-0.0237875003367662,8,2
815,-0.0263960007578134,0.0280099995434284,0.5747439861297607,-0.026537500321865,0.1490499973297119,-0.0177375003695487,8,2
816,-0.1732439994812011,0.1062249988317489,0.4667049944400787,0.0270875003188848,0.1405249983072281,-0.020075000822544,8,2
817,-0.2987320125102997,0.1689859926700592,0.291575014591217,0.0698499977588653,0.1209999993443489,-0.0262624993920326,8,2
818,-0.8888959884643555,0.262800008058548,0.1718980073928833,0.1005124971270561,0.111237496137619,-0.0262624993920326,8,2
819,-2.359433889389038,0.8797619938850403,0.3644439876079559,0.1236125007271766,0.1099999994039535,-0.0103124994784593,8,2
820,-3.7101900577545166,1.4127219915390017,0.8192920088768005,0.1333750039339065,0.1539999991655349,0.0202124994248151,8,2
821,-5.415308952331543,1.83091402053833,0.8098919987678528,0.142037495970726,0.2578125,0.1277374923229217,8,2
822,-7.062480926513672,2.846769094467163,0.7349159717559814,0.1860374957323074,0.3836250007152557,0.3843125104904175,8,2
823,-8.12646770477295,3.155284881591797,0.4656729996204376,0.2849000096321106,0.5399624705314636,0.7482749819755554,8,2
824,-8.770630836486816,2.7870419025421143,0.2141589969396591,0.4009499847888946,0.805062472820282,1.2566125392913818,8,2
825,-10.205501556396484,2.403719902038574,-0.421299010515213,0.5366625189781189,1.1631125211715698,1.9138624668121336,8,2
826,-11.877286911010742,2.456058979034424,-1.1235270500183103,0.6514750123023987,1.543025016784668,2.6406874656677246,8,2
827,-9.71108055114746,1.140099048614502,-0.9482290148735046,0.694237470626831,1.8251750469207764,3.349362373352051,8,2
828,-4.123013019561768,-0.763638973236084,-0.4029659926891327,0.6062374711036682,2.104987382888794,4.1068501472473145,8,2
829,1.634574055671692,-2.3700509071350098,0.0418259985744953,0.4681875109672546,2.328562498092652,4.895962238311768,8,2
830,5.441508769989014,-3.1515660285949707,0.0141550004482269,0.3436124920845032,2.454375028610229,5.355350017547607,8,2
831,7.752042770385742,-3.4106431007385254,0.5743749737739563,0.2336124926805496,2.422612428665161,5.254012584686279,8,2
832,7.283574104309082,-3.5543010234832764,1.3881100416183472,0.0930875018239021,2.2222750186920166,4.682287693023682,8,2
833,5.667597770690918,-2.972749948501587,1.7384370565414429,-0.0803000032901763,1.9034124612808228,3.868562459945679,8,2
834,4.330539226531982,-2.3375189304351807,0.9062479734420776,-0.2318249940872192,1.4587374925613403,2.9754998683929443,8,2
835,3.0829339027404785,-1.809370040893555,-0.5134270191192627,-0.3100624978542328,0.7892500162124634,2.189962387084961,8,2
836,2.5260820388793945,-1.5106500387191772,-1.688277006149292,-0.3515875041484833,0.0855249986052513,1.6315749883651731,8,2
837,2.7525739669799805,-1.690595030784607,-2.013843059539795,-0.4113999903202057,-0.3726249933242798,1.2687125205993652,8,2
838,3.3596880435943604,-2.094285011291504,-1.6607840061187744,-0.5006374716758728,-0.5326749682426453,1.0390875339508057,8,2
839,3.985236883163452,-2.276360988616944,-0.96186500787735,-0.5909749865531921,-0.456912487745285,0.8729875087738037,8,2
840,4.981766223907471,-2.5879580974578857,-0.058908000588417,-0.6362124681472778,-0.3029125034809112,0.6847500205039978,8,2
841,5.79325008392334,-3.125969886779785,0.6370069980621338,-0.6239749789237976,-0.1430000066757202,0.430649995803833,8,2
842,6.468437194824219,-3.6685049533844,0.7826830148696899,-0.5581125020980835,-0.0367125011980533,0.0995500013232231,8,2
843,7.150330066680908,-4.130650997161865,0.9427199959754944,-0.4444000124931335,-0.0464750006794929,-0.3341250121593475,8,2
844,7.403588771820068,-4.152828216552734,1.0397460460662842,-0.330825001001358,-0.1930499970912933,-0.8668000102043152,8,2
845,6.996224880218506,-4.244613170623779,0.8509529829025269,-0.2697750031948089,-0.393387496471405,-1.4727624654769895,8,2
846,6.189455032348633,-4.41554594039917,0.8256639838218689,-0.3075875043869018,-0.7745375037193298,-2.1190125942230225,8,2
847,3.9076759815216064,-4.720617771148682,0.800707995891571,-0.4725874960422516,-1.293737530708313,-2.737212419509888,8,2
848,0.4373170137405395,-4.025030136108398,0.5030279755592346,-0.7364500164985657,-1.8251750469207764,-3.3066000938415527,8,2
849,-1.6678049564361572,-2.684237003326416,0.7016500234603882,-1.016124963760376,-2.36403751373291,-3.7952749729156494,8,2
850,-2.4600589275360107,-1.8714170455932615,0.7948179841041565,-1.294700026512146,-2.7366623878479004,-4.117712497711182,8,2
851,-2.7325279712677,-1.4729020595550537,1.241184949874878,-1.469462513923645,-2.7647125720977783,-4.142187595367432,8,2
852,-3.348805904388428,-1.0802299976348877,1.7487599849700928,-1.403462529182434,-2.4153249263763428,-3.969899892807007,8,2
853,-5.1630539894104,-0.1240239962935447,2.513346910476685,-1.1468875408172607,-1.7201249599456787,-3.725562572479248,8,2
854,-7.179778099060059,1.4430320262908936,2.930716037750244,-0.7584499716758728,-0.9468249678611756,-3.473937511444092,8,2
855,-8.579543113708496,2.9998650550842285,2.560978889465332,-0.3356375098228454,-0.2920500040054321,-3.1488873958587646,8,2
856,-7.842270851135254,3.511693000793457,1.822587013244629,0.0906125009059906,0.1392875015735626,-2.6786375045776367,8,2
857,-5.224192142486572,2.491205930709839,0.8040450215339661,0.4424749910831451,0.3676750063896179,-2.0237250328063965,8,2
858,-2.3175179958343506,1.4165970087051392,-0.0955450013279914,0.6758124828338623,0.5191999673843384,-1.2479499578475952,8,2
859,-0.1293179988861084,0.570264995098114,-0.9547659754753112,0.7907624840736389,0.6011499762535095,-0.6065124869346619,8,2
860,0.7544699907302856,0.1849350035190582,-1.1893160343170166,0.7785249948501587,0.5717250108718872,-0.2876499891281128,8,2
861,0.4414849877357483,0.2643029987812042,-0.7641639709472656,0.6355249881744385,0.4239124953746795,-0.2656500041484833,8,2
862,-0.3940779864788055,0.499096006155014,-0.0577920004725456,0.3876124918460846,0.2211000025272369,-0.430649995803833,8,2
863,-1.6145800352096558,0.8345010280609131,0.6890910267829895,0.1236125007271766,-0.0305249989032745,-0.6542249917984009,8,2
864,-2.856617927551269,1.2852180004119873,1.1895769834518433,-0.0632499977946281,-0.3041499853134155,-0.8215624690055847,8,2
865,-3.632126092910767,1.499171018600464,0.683260977268219,-0.1292500048875808,-0.5131499767303467,-0.8850874900817871,8,2
866,-3.6949520111083984,1.6510889530181885,-0.2706770002841949,-0.0742499977350235,-0.6536750197410583,-0.8227999806404114,8,2
867,-2.967557907104492,1.557608962059021,-0.9147250056266784,0.0650374963879585,-0.7097749710083008,-0.6480374932289124,8,2
868,-1.939787030220032,1.1621719598770142,-1.3482470512390137,0.1920875012874603,-0.5974375009536743,-0.4184125065803528,8,2
869,-1.097931981086731,0.8036969900131226,-1.4514950513839722,0.2616625130176544,-0.3591499924659729,-0.1985500007867813,8,2
870,-0.6210640072822571,0.5156760215759277,-0.9081720113754272,0.2923249900341034,-0.0915749967098236,-0.040837500244379,8,2
871,-0.5943390130996704,0.2672150135040283,-0.1914380043745041,0.2800875008106231,0.1868624985218048,0.0324499979615211,8,2
872,-0.7166420221328735,0.1798879951238632,0.247296005487442,0.2238499969244003,0.3713875114917755,0.0287375003099441,8,2
873,-0.8185780048370361,0.2895910143852234,0.4626759886741638,0.1518000066280365,0.3396250009536743,-0.0152624994516372,8,2
874,-0.9534119963645936,0.2191530019044876,0.2825520038604736,0.0723249986767768,0.1331000030040741,-0.0518375001847744,8,2
875,-0.920799970626831,0.2311010062694549,-0.0462800003588199,-0.002199999988079,-0.1209999993443489,-0.0617375001311302,8,2
876,-0.5956969857215881,0.0525400005280971,-0.3913849890232086,-0.0437249988317489,-0.3238124847412109,-0.0372624993324279,8,2
877,-0.1108900010585784,-0.3182039856910705,-0.5152310132980347,-0.0559624992311,-0.4081000089645386,0.0152624994516372,8,2
878,0.2616049945354461,-0.5395619869232178,-0.515828013420105,-0.0571999996900558,-0.3701499998569488,0.0763124972581863,8,2
879,0.3623420000076294,-0.5789240002632141,-0.231561005115509,-0.0497750006616115,-0.2308624982833862,0.1032624989748001,8,2
880,0.2361509948968887,-0.499875009059906,0.0882870033383369,-0.0217249989509582,-0.0452375002205371,0.0800250023603439,8,2
881,0.0853819996118545,-0.3502520024776459,0.2256579995155334,0.0052249999716877,0.1307625025510788,0.016499999910593,8,2
882,-0.032489001750946,-0.1999360024929046,0.500432014465332,0.0295624993741512,0.2248124927282333,-0.0543125011026859,8,2
883,-0.3566130101680755,-0.0956199988722801,0.9501129984855652,0.0417999997735023,0.2285249978303909,-0.1044999957084655,8,2
884,-0.5292750000953674,-0.0575699992477893,1.169303059577942,0.0332750007510185,0.1880999952554702,-0.1325500011444091,8,2
885,-0.4926809966564178,-0.1019890010356903,0.6935399770736694,0.0369874984025955,0.111237496137619,-0.141075000166893,8,2
886,-0.3874410092830658,-0.0237050000578165,-0.1000540032982826,0.06751249730587,-0.0182875003665685,-0.1153625026345253,8,2
887,-0.2209240049123764,0.00251100002788,-0.6533420085906982,0.1077999994158744,-0.1575749963521957,-0.0775500014424324,8,2
888,-0.0242849998176097,0.0761559978127479,-0.8231279850006104,0.1150875017046928,-0.2113374918699264,-0.0470249988138675,8,2
889,0.05120600014925,0.1532009989023208,-0.5842559933662415,0.0882750004529953,-0.1625249981880188,-0.0250249989330768,8,2
890,0.1291690021753311,0.0631150007247924,-0.1416289955377578,0.0540375001728534,-0.0378125011920928,-0.0115499999374151,8,2
891,0.2967259883880615,0.0194349996745586,0.0877799987792968,0.038087498396635,0.1160499975085258,-0.0017874999903142,8,2
892,0.357585996389389,-0.1287360042333603,0.1109990030527114,0.056512501090765,0.2503874897956848,0.0006874999962747,8,2
893,-0.0757649987936019,-0.0065640001557767,0.3819090127944946,0.1040875017642974,0.3139125108718872,-0.0054999999701976,8,2
894,-0.6432679891586304,0.1969079971313476,0.3371680080890655,0.1407999992370605,0.3371500074863434,-0.0323125012218952,8,2
895,-1.0287649631500244,0.3956809937953949,-0.0633879974484443,0.1493249982595443,0.3053874969482422,-0.0604999996721744,8,2
896,-0.8664559721946716,0.4275259971618652,-0.3439080119132995,0.1370874941349029,0.1649999916553497,-0.0482624992728233,8,2
897,-0.3884350061416626,0.2354049980640411,-0.5869160294532776,0.0895124971866607,-0.0097624994814395,0.0177375003695487,8,2
898,0.0335809998214244,0.1446599960327148,-0.521884024143219,0.0087999999523162,-0.1405249983072281,0.1069749966263771,8,2
899,0.1964360028505325,0.1705030053853988,-0.0191360004246234,-0.0657249987125396,-0.2088624984025955,0.1680250018835067,8,2
900,-0.2852790057659149,0.1384740024805069,-0.3771370053291321,0.03575000166893,-0.0805749967694282,-0.0567874982953071,9,2
901,-0.2226240038871765,0.0873730033636093,-0.0330759994685649,-0.0009624999947845,-0.0989999994635582,-0.0518375001847744,9,2
902,-0.030511999502778,-0.0829830020666122,0.2039359956979751,-0.0327249988913536,-0.0562375001609325,-0.0323125012218952,9,2
903,0.1572269946336746,-0.1609330028295517,0.1746259927749633,-0.0351999998092651,0.0207624994218349,0.0116875004023313,9,2
904,0.3318769931793213,-0.1373869925737381,0.022724000737071,0.0052249999716877,0.0818125009536743,0.0360249988734722,9,2
905,0.3516960144042969,-0.1498019993305206,-0.0956759974360466,0.0490874983370304,0.1160499975085258,0.0360249988734722,9,2
906,0.1854259967803955,-0.1244930028915405,-0.1375869959592819,0.0772750005125999,0.135574996471405,0.0177375003695487,9,2
907,-0.1940570026636123,0.0536569990217685,0.1018190011382103,0.0760374963283538,0.1405249983072281,-0.016499999910593,9,2
908,-0.3360710144042969,0.0928250029683113,0.2691070139408111,0.0490874983370304,0.1135749965906143,-0.0555500015616416,9,2
909,-0.4238330125808716,0.1363860070705413,0.0344640016555786,0.0112749999389052,0.0647625029087066,-0.0725999996066093,9,2
910,-0.4256680011749267,0.2877810001373291,-0.1024179980158805,-0.0034374999813735,-0.0182875003665685,-0.0604999996721744,9,2
911,-0.2990739941596985,0.2747449874877929,0.0093029998242855,0.0002749999985098,-0.0830499976873397,-0.0360249988734722,9,2
912,-0.1674659997224807,0.0828759968280792,0.0347080007195472,0.0015124999918043,-0.0427624993026256,0.0054999999701976,9,2
913,-0.034460999071598,0.0177730005234479,0.0368320010602474,0.0149875003844499,0.0402874983847141,0.0445500016212463,9,2
914,-0.0966989994049072,0.0843409970402717,0.1131310015916824,0.0369874984025955,0.1013374999165535,0.0677874982357025,9,2
915,-0.4587349891662597,0.2037139981985092,0.3271600008010864,0.0467500016093254,0.1368124932050705,0.073974996805191,9,2
916,-1.5927820205688477,0.5904160141944885,0.8052200078964233,0.0417999997735023,0.1527625024318695,0.0727375000715255,9,2
917,-3.609971046447754,1.366495966911316,1.566341996192932,0.03575000166893,0.1502874940633773,0.0862125009298324,9,2
918,-6.899563789367676,2.6179890632629395,1.9486409425735476,0.0430375002324581,0.17586250603199,0.1582625061273574,9,2
919,-11.15886116027832,4.303222179412842,1.1280070543289185,0.1040875017642974,0.2455749958753585,0.3500750064849853,9,2
920,-13.319745063781738,4.794225215911865,-0.4274129867553711,0.2263250052928924,0.3518624901771545,0.7349374890327454,9,2
921,-11.292845726013184,2.607316017150879,-0.887677013874054,0.3753750026226043,0.5656750202178955,1.392187476158142,9,2
922,-6.943642139434815,0.789762020111084,-0.2067960053682327,0.5244249701499939,1.053112506866455,2.44035005569458,9,2
923,-2.6469008922576904,-0.4580009877681732,0.2933210134506225,0.6392375230789185,1.7666000127792358,3.666987419128418,9,2
924,0.9733319878578186,-1.5933669805526731,0.7305330038070679,0.7222874760627747,2.386037588119507,4.485525131225586,9,2
925,3.27318811416626,-2.143289089202881,1.019832968711853,0.7418124675750732,2.726900100708008,4.767812252044678,9,2
926,3.811456918716431,-2.509913921356201,0.7598789930343628,0.6868125200271606,2.731712579727173,4.649287700653076,9,2
927,0.7580810189247131,-2.6303510665893555,-0.3267219960689544,0.5817624926567078,2.4140875339508057,4.238712310791016,9,2
928,-2.369170904159546,-0.97714102268219,-1.7637460231781006,0.4474250078201294,1.9083625078201292,3.666987419128418,9,2
929,-2.090934991836548,0.1929910033941269,-2.619654893875122,0.2873750030994415,1.4196875095367432,3.0842623710632324,9,2
930,0.933126986026764,-0.5428670048713684,-1.6777520179748535,0.1212750002741813,1.1251624822616575,2.782449960708618,9,2
931,4.17694091796875,-1.8185839653015137,0.0548349991440773,0.038087498396635,1.2412124872207642,2.882687568664551,9,2
932,6.841805934906006,-3.375478029251098,1.027016043663025,0.0369874984025955,1.722599983215332,3.0475499629974365,9,2
933,8.498493194580078,-4.069265842437744,1.3958009481430054,0.091849997639656,2.0719873905181885,2.8850250244140625,9,2
934,8.838512420654297,-3.919684886932373,1.5949050188064575,0.1468500047922134,2.008462429046631,2.3878250122070312,9,2
935,8.537848472595215,-3.689696073532105,2.107158899307251,0.1456124931573867,1.6493124961853027,1.6597625017166138,9,2
936,8.303827285766602,-3.887065887451172,2.074012041091919,0.0772750005125999,1.1349250078201294,0.8472750186920166,9,2
937,7.690234184265137,-4.163754940032959,1.3328800201416016,-0.0107249999418854,0.5729625225067139,0.0775500014424324,9,2
938,6.991697788238525,-4.141873836517334,0.6602100133895874,-0.0620125010609626,-0.111237496137619,-0.6272749900817871,9,2
939,5.970241069793701,-3.800621032714844,-0.1646910011768341,-0.1707749962806701,-0.8760125041007996,-1.279712438583374,9,2
940,4.909416198730469,-3.1727991104125977,-0.5025560259819031,-0.3980624973773956,-1.6590750217437744,-1.878387451171875,9,2
941,4.691573143005371,-3.4349050521850586,-0.6987760066986084,-0.6839249730110168,-2.351799964904785,-2.3915374279022217,9,2
942,4.029149055480957,-3.937779903411865,-0.8715280294418335,-0.975837469100952,-2.8307125568389893,-2.782449960708618,9,2
943,2.110496997833252,-3.784910917282105,-0.6559680104255676,-1.2311749458312988,-3.1678624153137207,-3.1048874855041504,9,2
944,-0.586063027381897,-3.0820319652557373,0.1783010065555572,-1.4412750005722046,-3.3523874282836914,-3.4714624881744385,9,2
945,-3.9343740940094,-1.8500980138778689,0.847104012966156,-1.6209875345230105,-3.307149887084961,-3.824562549591065,9,2
946,-6.256494998931885,-0.2522149980068207,1.4289679527282717,-1.7125624418258667,-3.056762456893921,-4.02118730545044,9,2
947,-6.61810302734375,0.6086220145225525,1.3694050312042236,-1.6783249378204346,-2.706137418746948,-3.958899974822998,9,2
948,-5.698101997375488,1.1283730268478394,0.7239900231361389,-1.5060374736785889,-2.213749885559082,-3.5692250728607178,9,2
949,-3.817164897918701,1.2117509841918943,0.5489469766616821,-1.154175043106079,-1.5540249347686768,-2.985262393951416,9,2
950,-2.4184811115264893,0.6971160173416138,1.6660770177841189,-0.7071624994277954,-0.7269625067710876,-2.409825086593628,9,2
951,-2.034187078475952,0.3949699997901916,3.4322071075439453,-0.3125374913215637,0.135574996471405,-1.9541499614715576,9,2
952,-1.922224998474121,0.1174400001764297,3.945112943649292,-0.0180124994367361,0.7990124821662903,-1.6816250085830688,9,2
953,-2.5617001056671143,0.0990749970078468,2.8627429008483887,0.2408999949693679,1.04087495803833,-1.563099980354309,9,2
954,-3.5862700939178467,0.971439003944397,1.0700360536575315,0.4731374979019165,0.7770124673843384,-1.4935250282287598,9,2
955,-3.815519094467163,1.7812429666519165,-0.5418729782104492,0.5524749755859375,0.2052875012159347,-1.4775749444961548,9,2
956,-3.329982042312622,1.68620502948761,-1.1975300312042236,0.4364250004291534,-0.3786749839782715,-1.412950038909912,9,2
957,-2.841856002807617,1.4750820398330688,-1.0786069631576538,0.2287999987602234,-0.7220125198364258,-1.2101374864578247,9,2
958,-2.5764000415802,1.4457679986953735,-0.5193269848823547,0.0320375002920627,-0.7587249875068665,-0.977899968624115,9,2
959,-2.59142804145813,1.619789958000183,0.1058830022811889,-0.0852499976754188,-0.5999125242233276,-0.7935125231742859,9,2
960,-2.5461859703063965,1.546897053718567,0.5016840100288391,-0.101062498986721,-0.3469125032424927,-0.6347000002861023,9,2
961,-2.146544933319092,1.325199007987976,0.5293710231781006,-0.0254375003278255,-0.0830499976873397,-0.4868874847888946,9,2
962,-1.3827970027923584,0.9173930287361144,0.2723360061645508,0.0870374962687492,0.0782374963164329,-0.3316499888896942,9,2
963,-0.8578240275382996,0.6493390202522278,0.1108329966664314,0.173799991607666,0.0977625027298927,-0.1997874975204467,9,2
964,-0.80936199426651,0.5383830070495605,-0.0995440036058425,0.2116124927997589,0.0268124993890523,-0.1362625062465667,9,2
965,-1.294875979423523,0.5277299880981445,-0.4982100129127502,0.2055625021457672,-0.061049997806549,-0.1447875052690506,9,2
966,-1.8316489458084104,0.7251240015029907,-0.8802509903907776,0.1773750036954879,-0.1783374994993209,-0.1838375031948089,9,2
967,-1.898331999778748,0.8406299948692322,-1.0599859952926636,0.1175625026226043,-0.2980999946594238,-0.2008875012397766,9,2
968,-1.378875970840454,0.4844839870929718,-0.9238029718399048,0.0320375002920627,-0.3531000018119812,-0.1545500010251999,9,2
969,-0.7047669887542725,0.1136030033230781,-0.624530017375946,-0.0412499979138374,-0.3041499853134155,-0.0397375002503395,9,2
970,-0.102642998099327,-0.2239120006561279,-0.2858000099658966,-0.0840125009417533,-0.1575749963521957,0.0763124972581863,9,2
971,0.3114759922027588,-0.4459199905395508,0.2243530005216598,-0.0864875018596649,0.0147124994546175,0.1423124969005584,9,2
972,0.3500840067863464,-0.5741770267486572,0.9072669744491576,-0.0620125010609626,0.1710499972105026,0.1508374959230423,9,2
