,acc_x,acc_y,acc_z,gyr_x,gyr_y,gyr_z,sample,label
0,-0.1145080029964447,-0.0347759984433651,0.1838600039482116,-0.0424874983727932,0.0635249987244606,-0.0030249999836087,0,3
1,-0.1567140072584152,-0.0119249997660517,0.2718259990215301,-0.0339624993503093,0.058712501078844,0.0104499999433755,0,3
2,-0.1137500032782554,-0.0394829995930194,0.2880440056324005,-0.0144375003874301,0.0354750007390975,0.0237875003367662,0,3
3,0.031904999166727,-0.0432269982993602,0.2269559949636459,0.010037500411272,0.0024749999865889,0.0262624993920326,0,3
4,0.0793880000710487,-0.0246149990707635,0.1590899974107742,0.0320375002920627,-0.0354750007390975,0.014024999924004,0,3
5,0.1580269932746887,-0.0437650009989738,-0.0500460006296634,0.0455125011503696,-0.0672374963760376,-0.0030249999836087,0,3
6,0.2159090042114257,-0.0360880009829998,-0.1094050034880638,0.0332750007510185,-0.1002374961972236,-0.0262624993920326,0,3
7,0.1013329997658729,0.0345389991998672,-0.165034994482994,0.0125124994665384,-0.1099999994039535,-0.0518375001847744,0,3
8,-0.0343919992446899,-0.0044329999946057,-0.3897939920425415,-0.0057749999687075,-0.0439999997615814,-0.0470249988138675,0,3
9,-0.1874980032444,0.0440870001912117,-0.4507730007171631,-0.0449624992907047,0.0402874983847141,-0.0262624993920326,0,3
10,-0.2565720081329345,0.1021789982914924,-0.2445490062236786,-0.0912999957799911,0.0867625027894973,0.0017874999903142,0,3
11,-0.1997089982032776,0.0084260003641247,0.0643730014562606,-0.1097249984741211,0.0867625027894973,0.0250249989330768,0,3
12,-0.1450749933719635,-0.0674130022525787,0.372530996799469,-0.0827749967575073,0.0525249987840652,0.0347874984145164,0,3
13,-0.1063710004091262,-0.0716490000486373,0.542589008808136,-0.0241999998688697,-0.0085249999538064,0.0336874984204769,0,3
14,0.050330001860857,-0.0990199968218803,0.2639670073986053,0.0405624993145465,-0.053762499243021,0.0299750007688999,0,3
15,0.1787160038948059,-0.1217620000243187,-0.1400559991598129,0.0650374963879585,-0.0672374963760376,0.014024999924004,0,3
16,0.1055689975619316,-0.0514210015535354,-0.412333995103836,0.0405624993145465,-0.0549999997019767,-0.0005499999970197,0,3
17,-0.0652939975261688,-0.0130679998546838,-0.5168150067329407,-0.007012499962002,-0.0207624994218349,-0.0017874999903142,0,3
18,-0.2654289901256561,-0.036566998809576,-0.435708999633789,-0.0595375001430511,0.0122375003993511,0.016499999910593,0,3
19,-0.3516510128974914,0.0032500000670552,-0.3467429876327514,-0.1023000031709671,0.032999999821186,0.0617375001311302,0,3
20,-0.0812100023031234,0.001914000022225,0.2058569937944412,-0.1304875016212463,0.0268124993890523,0.0959749966859817,0,3
21,0.0640159994363784,-0.0513910017907619,0.562205970287323,-0.0974875018000602,0.0012374999932944,0.0935000032186508,0,3
22,0.1976290047168731,-0.0764309987425804,0.7950509786605835,-0.0155375003814697,-0.0147124994546175,0.073974996805191,0,3
23,0.2667990028858185,0.0065859998576343,0.9138410091400146,0.0687500014901161,-0.0622874982655048,0.0409750007092952,0,3
24,0.2090599983930587,0.0296480003744363,0.679876983165741,0.1530375033617019,-0.108762502670288,0.0092124994844198,0,3
25,0.2217410057783126,-0.0400729998946189,0.093650996685028,0.2055625021457672,-0.1148125007748603,-0.0103124994784593,0,3
26,0.4141849875450134,-0.0372099988162517,-0.46424201130867,0.1835625022649765,-0.0892374962568283,-0.0225499998778104,0,3
27,0.5655570030212402,0.0591059997677803,-0.8067169785499573,0.0943249985575676,-0.0488125011324882,-0.0543125011026859,0,3
28,0.5323699712753296,0.0697410032153129,-0.7744399905204773,-0.0144375003874301,0.0195249989628791,-0.0958374962210655,0,3
29,0.1896920055150985,0.0530820004642009,-0.4400660097599029,-0.0974875018000602,0.0940499976277351,-0.1252624988555908,0,3
30,-0.1209790036082267,0.1386979967355728,-0.0176749993115663,-0.1352999955415725,0.1222374960780143,-0.1227874979376792,0,3
31,0.1145249977707862,0.1246460005640983,0.0749619975686073,-0.1377750039100647,0.107524998486042,-0.1044999957084655,0,3
32,1.195647954940796,-0.0673130005598068,0.1222629994153976,-0.136537492275238,0.1380500048398971,-0.130074992775917,0,3
33,3.79292106628418,-0.3167549967765808,0.5733429789543152,-0.136537492275238,0.2578125,-0.2913624942302704,0,3
34,6.652393817901611,-0.6320419907569885,0.7156789898872375,-0.0925374999642372,0.4996750056743622,-0.7104625105857849,0,3
35,10.034527778625488,-1.1756739616394043,1.2781599760055542,-0.0412499979138374,0.7720624804496765,-1.3969999551773071,0,3
36,10.1724853515625,-1.5604180097579956,2.2788820266723637,0.0393249988555908,0.7953000068664551,-2.3755874633789062,0,3
37,7.060338020324707,-1.381731033325195,2.6878879070281982,0.2201374918222427,0.4641999900341034,-3.337125062942505,0,3
38,3.992961883544922,-1.0482219457626345,2.9100499153137207,0.3863750100135803,-0.3091000020503998,-3.914900064468384,0,3
39,2.0361669063568115,-1.1807750463485718,3.0632340908050537,0.5268999934196472,-1.29868745803833,-4.203237533569336,0,3
40,2.394484043121338,-1.7257529497146606,3.4046669006347656,0.6930000185966492,-2.274800062179565,-4.421999931335449,0,3
41,0.6700230240821838,-1.804226994514465,2.6601600646972656,0.9103875160217284,-2.842949867248535,-4.671150207519531,0,3
42,-1.320942997932434,-1.5298199653625488,1.0511889457702637,1.1339625120162964,-2.7354249954223637,-4.671150207519531,0,3
43,-3.490886926651001,-0.7403659820556641,-0.7989580035209656,1.2122000455856323,-2.147749900817871,-4.373050212860107,0,3
44,-6.32308292388916,0.0086909998208284,-2.5181870460510254,1.1413874626159668,-1.205875039100647,-3.775612592697144,0,3
45,-7.729461193084717,0.3892199993133545,-3.4784839153289795,0.8982874751091003,-0.3493874967098236,-2.958312511444092,0,3
46,-7.806014060974121,0.6736040115356445,-3.2929329872131348,0.5134249925613403,0.1197625026106834,-2.116537570953369,0,3
47,-5.697099208831787,0.4372049868106842,-2.32401704788208,0.173799991607666,0.0647625029087066,-1.3982374668121338,0,3
48,-3.278834104537964,-0.0190469995141029,-1.7408299446105957,-0.026537500321865,-0.3201000094413757,-0.955900013446808,0,3
49,-2.5552690029144287,-0.3816950023174286,-1.837795972824097,-0.1390125006437301,-0.6389625072479248,-0.7482749819755554,0,3
50,-2.900221109390259,-0.4430060088634491,-1.6867200136184692,-0.2525874972343445,-0.8540124893188477,-0.561412513256073,0,3
51,-3.354679107666016,-0.4346329867839813,-1.0603070259094238,-0.405349999666214,-1.0543500185012815,-0.3121249973773956,0,3
52,-4.133772850036621,-0.4818669855594635,-0.5167289972305298,-0.4871625006198883,-1.127637505531311,-0.0005499999970197,0,3
53,-5.323686122894287,-0.5676259994506836,0.2818410098552704,-0.4541625082492828,-1.0995874404907229,0.3854124844074249,0,3
54,-6.595805168151856,-0.4916830062866211,1.045570969581604,-0.3491125106811523,-1.123924970626831,0.9047499895095824,0,3
55,-7.862946033477783,-0.5374280214309692,1.413912057876587,-0.1988250017166137,-1.0861124992370603,1.558287501335144,0,3
56,-6.9636712074279785,-1.0667829513549805,0.7904649972915649,-0.026537500321865,-0.935824990272522,2.3194875717163086,0,3
57,-3.557104110717773,-1.7358119487762451,-1.108309030532837,-0.0009624999947845,-0.603487491607666,2.968212366104126,0,3
58,-1.3231749534606934,-2.052539110183716,-2.8354549407958984,-0.2037750035524368,0.0354750007390975,3.323649883270264,0,3
59,-0.2713449895381927,-2.3166959285736084,-2.852499008178711,-0.5689749717712402,0.6621999740600586,3.487412452697754,0,3
60,0.149737000465393,-2.421041965484619,-1.0288200378417969,-0.9563124775886536,0.8893499970436096,3.545987367630005,0,3
61,-0.3182860016822815,-2.269325017929077,1.3505109548568726,-1.1261249780654907,0.7244874835014343,3.534987449645996,0,3
62,0.8222630023956299,-2.435049057006836,2.359783887863159,-0.953837513923645,0.3078624904155731,3.572937488555908,0,3
63,3.7620151042938232,-2.5546538829803467,1.7137329578399658,-0.6875,-0.1868624985218048,3.4776499271392822,0,3
64,7.158411026000977,-2.0915000438690186,0.8002240061759949,-0.5299249887466431,-0.4398624897003174,3.065837383270264,0,3
65,8.611058235168457,-1.3135099411010742,0.3855589926242828,-0.4713499844074249,-0.1698125004768371,2.3755874633789062,0,3
66,6.950109958648682,-0.6311709880828857,1.7293059825897217,-0.405349999666214,0.3066250085830688,1.641337513923645,0,3
67,4.404451847076416,-0.0237440001219511,3.144051074981689,-0.227012500166893,0.4508624970912933,1.138087511062622,0,3
68,2.392918109893799,0.0382529981434345,3.450977087020874,0.0540375001728534,0.2798124849796295,0.8949875235557556,0,3
69,1.8682379722595213,0.1155439987778663,2.5534238815307617,0.3508999943733215,-0.0257124993950128,0.815512478351593,0,3
70,2.281968116760254,0.1959220021963119,0.9740560054779052,0.527999997138977,-0.2382874935865402,0.7605124711990356,0,3
71,2.840740919113159,0.2095820009708404,-0.4649119973182678,0.5439500212669373,-0.2688125073909759,0.6701750159263611,0,3
72,2.972531080245972,0.2685230076313019,-1.1795560121536257,0.4327124953269958,-0.1747625023126602,0.5234624743461609,0,3
73,2.76709508895874,0.2544009983539581,-1.3824540376663208,0.2800875008106231,-0.0268124993890523,0.364650011062622,0,3
74,2.420353889465332,0.2690530121326446,-1.048414945602417,0.1236125007271766,0.0965249985456466,0.2155999988317489,0,3
75,1.9750720262527464,0.2790069878101349,-0.5707100033760071,0.0137499999254941,0.1978625059127807,0.0800250023603439,0,3
76,1.1747169494628906,0.3890480101108551,-0.6527429819107056,-0.0449624992907047,0.40191251039505,-0.0262624993920326,0,3
77,0.2943600118160248,0.3194389939308166,-0.5625560283660889,-0.0925374999642372,0.6756749749183655,-0.0360249988734722,0,3
78,-0.3402599990367889,0.1758390069007873,-0.3380219936370849,-0.147537499666214,0.7977749705314636,0.0409750007092952,0,3
79,-0.5179880261421204,0.0801889970898628,0.1861809939146042,-0.1707749962806701,0.7391999959945679,0.1508374959230423,0,3
80,-0.0277910009026527,-0.0230659991502761,0.7043660283088684,-0.1427250057458877,0.5326749682426453,0.2363625019788742,0,3
81,0.807915985584259,-0.1617060005664825,0.9233859777450562,-0.0669625028967857,0.3201000094413757,0.2352624982595443,0,3
82,1.6186480522155762,-0.4322679936885834,0.8188380002975464,0.0405624993145465,0.1918125003576278,0.1423124969005584,0,3
83,1.529780030250549,-0.3812440037727356,0.610988974571228,0.1370874941349029,0.1160499975085258,-0.0287375003099441,0,3
84,0.8881059885025024,-0.2504850029945373,0.3426539897918701,0.1993750035762787,0.0317624993622303,-0.1715999990701675,0,3
85,0.2279500067234039,-0.1828420013189315,0.0466439984738826,0.2287999987602234,-0.0598125010728836,-0.2363625019788742,0,3
86,-0.2301400005817413,-0.1038929969072341,-0.1051909998059272,0.2299000024795532,-0.1478125005960464,-0.2413125038146972,0,3
87,-0.4160139858722687,0.0515340007841587,-0.3081940114498138,0.2006125003099441,-0.1905750036239624,-0.2083124965429306,0,3
88,-0.533607006072998,0.001604999997653,-0.5516870021820068,0.1590874940156936,-0.1025749966502189,-0.1483625024557113,0,3
89,-0.6341429948806763,-0.0684849992394447,-0.7226579785346985,0.0992750003933906,0.0647625029087066,-0.0617375001311302,0,3
90,-0.5393620133399963,-0.1675869971513748,-0.7763739824295044,0.0149875003844499,0.2028124928474426,0.0397375002503395,0,3
91,-0.1416140049695968,-0.2855480015277862,-0.7244899868965149,-0.077962502837181,0.2638624906539917,0.116737499833107,0,3
92,0.3067489862442016,-0.3264940083026886,-0.4701859951019287,-0.1537249982357025,0.2516250014305115,0.130074992775917,0,3
93,0.6661980152130127,-0.3411110043525696,0.0104870004579424,-0.1940124928951263,0.1930499970912933,0.0849749967455864,0,3
94,0.5606899857521057,-0.3218399882316589,0.6341189742088318,-0.176825001835823,0.1002374961972236,0.0042624999769032,0,3
95,0.2373560070991516,-0.2700850069522857,0.9864060282707214,-0.0950125008821487,0.0012374999932944,-0.0580249987542629,0,3
96,-0.0976779982447624,-0.1761099994182586,0.8634439706802368,0.0149875003844499,-0.0782374963164329,-0.0775500014424324,0,3
97,-0.3849830031394958,-0.0769470036029815,0.3858959972858429,0.0943249985575676,-0.1233374997973442,-0.0617375001311302,0,3
98,-0.3606100082397461,-0.058237001299858,-0.1507939994335174,0.110275000333786,-0.108762502670288,-0.0189750008285045,0,3
99,-0.2339089959859848,-0.122979998588562,-0.4596830010414123,0.0772750005125999,-0.0647625029087066,0.0299750007688999,0,3
100,-0.1103800013661384,-0.0145330000668764,0.454474002122879,0.0173249989748001,-0.0402874983847141,-0.0225499998778104,1,3
101,-0.1282970011234283,-0.0379550009965896,0.3773109912872314,0.0698499977588653,-0.0268124993890523,-0.0177375003695487,1,3
102,-0.2176440060138702,-0.0032560001127421,0.1693409979343414,0.1053249984979629,-0.0085249999538064,-0.0067374999634921,1,3
103,-0.1953430026769638,-0.0250450000166893,-0.1431380063295364,0.1126125007867813,0.0060499999672174,0.0152624994516372,1,3
104,-0.0447219982743263,-0.0419519990682601,-0.4553619921207428,0.0833249986171722,0.0232375003397464,0.0324499979615211,1,3
105,0.0736169964075088,-0.0597160011529922,-0.6397389769554138,0.0247499998658895,0.0292875003069639,0.0347874984145164,1,3
106,0.1706189960241317,-0.0116919996216893,-0.5723469853401184,-0.0424874983727932,0.0182875003665685,0.0237875003367662,1,3
107,0.1571319997310638,0.0120400004088878,-0.2157880067825317,-0.0864875018596649,-0.0085249999538064,-0.0005499999970197,1,3
108,0.0711119994521141,0.0117089999839663,0.1757809966802597,-0.0803000032901763,-0.0402874983847141,-0.0262624993920326,1,3
109,-0.1176180019974708,0.0126219997182488,0.2668319940567016,-0.0351999998092651,-0.0402874983847141,-0.0360249988734722,1,3
110,-0.292154997587204,0.0472920015454292,0.1609079986810684,0.010037500411272,-0.0219999998807907,-0.0250249989330768,1,3
111,-0.2557350099086761,0.0487029999494552,-0.1111870035529136,0.03575000166893,-0.0072874999605119,0.0079749999567866,1,3
112,-0.1892839968204498,0.0095579996705055,-0.3880000114440918,0.0295624993741512,0.0134749999269843,0.0347874984145164,1,3
113,-0.07880400121212,0.0363800004124641,-0.4339669942855835,-0.0057749999687075,0.0195249989628791,0.0507375001907348,1,3
114,0.0219570007175207,-0.0223500002175569,-0.2670080065727234,-0.0437249988317489,0.0122375003993511,0.0544499978423118,1,3
115,0.0508119985461235,-0.046884998679161,-0.0254319999366998,-0.0571999996900558,0.0012374999932944,0.0445500016212463,1,3
116,0.2233269959688186,-0.0624889992177486,0.0556290000677108,-0.0485375002026557,0.0134749999269843,0.0324499979615211,1,3
117,0.2197179943323135,-0.0534409992396831,0.2327699959278106,-0.0351999998092651,0.0452375002205371,0.0116875004023313,1,3
118,0.3922879993915558,-0.0900309979915618,0.3463450074195862,-0.0094875004142522,0.058712501078844,-0.0005499999970197,1,3
119,0.6986669898033142,-0.0978550016880035,0.4877560138702392,0.0173249989748001,0.0622874982655048,-0.0360249988734722,1,3
120,1.3652009963989258,-0.116965003311634,0.4807650148868561,0.0515624992549419,0.1050499975681305,-0.1105500012636184,1,3
121,3.043747901916504,-0.4482550024986267,0.4675819873809814,0.0760374963283538,0.2418625056743621,-0.2633124887943268,1,3
122,4.699874877929688,-0.5862380266189575,0.5366349816322327,0.0797500014305114,0.4886749982833862,-0.5979874730110168,1,3
123,7.582109928131103,-1.2018519639968872,1.4333029985427856,0.0723249986767768,0.6707249879837036,-1.0988999605178833,1,3
124,9.203954696655272,-1.7865829467773438,2.705328941345215,0.1138499975204467,0.5974375009536743,-1.8514374494552608,1,3
125,9.57151985168457,-2.0826570987701416,3.502769947052002,0.2958999872207641,0.1405249983072281,-2.7726874351501465,1,3
126,8.303399085998535,-2.1896889209747314,3.7573630809783936,0.5304750204086304,-0.7440124750137329,-3.699987411499024,1,3
127,6.138207912445068,-1.7547680139541626,3.905951976776123,0.7760499715805054,-1.6737874746322632,-4.476999759674072,1,3
128,4.92943000793457,-1.8904019594192505,3.413115978240967,1.0008624792099,-2.5228500366210938,-5.063300132751465,1,3
129,1.8714770078659055,-1.849946975708008,2.4861459732055664,1.2073874473571775,-2.869762420654297,-5.495874881744385,1,3
130,-1.737426996231079,-1.2677459716796875,1.5081809759140017,1.421062469482422,-2.685374975204468,-5.544687271118164,1,3
131,-4.477704048156738,-0.5078499913215637,-0.1063890010118484,1.564062476158142,-2.164799928665161,-5.170825004577637,1,3
132,-7.127777099609375,0.081275999546051,-1.8754620552062988,1.5628249645233154,-1.4172124862670898,-4.454999923706055,1,3
133,-7.930037975311279,0.444905012845993,-3.284495115280152,1.3417249917984009,-0.7953000068664551,-3.564275026321411,1,3
134,-6.862512111663818,0.6813070178031921,-4.415596008300781,0.934862494468689,-0.4153875112533569,-2.7164499759674072,1,3
135,-4.2118988037109375,0.3779709935188293,-4.835464954376221,0.4534749984741211,-0.1710499972105026,-2.0530123710632324,1,3
136,-2.799014091491699,0.3805130124092102,-4.723892211914063,-0.0375375002622604,-0.0452375002205371,-1.646287441253662,1,3
137,-3.1039841175079346,0.1416849941015243,-4.219339847564697,-0.5043500065803528,0.053762499243021,-1.4262875318527222,1,3
138,-3.6761279106140137,-0.204816997051239,-2.5703470706939697,-0.8964999914169312,0.107524998486042,-1.203950047492981,1,3
139,-4.466635227203369,-0.2877010107040405,-0.6091660261154175,-1.120074987411499,0.0745249986648559,-0.8705124855041504,1,3
140,-5.081821918487549,-0.4457199871540069,0.703137993812561,-1.1053625345230105,0.0342375002801418,-0.4294124841690063,1,3
141,-5.619204998016357,-0.5763760209083557,1.377616047859192,-0.923312485218048,0.0232375003397464,0.0384999997913837,1,3
142,-6.4219818115234375,-0.5212759971618652,1.7397969961166382,-0.6814500093460083,0.0257124993950128,0.522362470626831,1,3
143,-6.720370769500732,-0.5861719846725464,1.2992420196533203,-0.4468750059604645,0.0635249987244606,1.0696125030517578,1,3
144,-6.62404203414917,-0.8376250267028809,0.4823879897594452,-0.267300009727478,0.2626250088214874,1.6377625465393066,1,3
145,-6.621830940246582,-1.2137919664382937,0.1078760027885437,-0.1755875051021576,0.5119125247001648,2.213200092315674,1,3
146,-6.246607780456543,-1.6311990022659302,-0.1233920007944107,-0.1597750037908554,0.6219124794006348,2.805687427520752,1,3
147,-5.659149169921875,-2.187779903411865,-0.3770020008087158,-0.2110625058412552,0.5424374938011169,3.350600004196167,1,3
148,-4.5421319007873535,-2.4849228858947754,-0.9147419929504396,-0.3210625052452087,0.2700499892234802,3.8110873699188232,1,3
149,-2.544867038726806,-2.926218032836914,-2.358138084411621,-0.5066875219345093,0.0477125011384487,4.1606125831604,1,3
150,-0.3409970104694366,-3.611761093139648,-3.7593278884887695,-0.8232125043869019,0.1490499973297119,4.37318754196167,1,3
151,3.4974210262298584,-4.246236801147461,-4.117638111114502,-1.265412449836731,0.5619624853134155,4.410999774932861,1,3
152,6.5804829597473145,-3.7387659549713135,-3.321899890899658,-1.744325041770935,1.1593999862670898,4.092137336730957,1,3
153,6.878366947174072,-3.1218409538269043,-0.8096569776535034,-2.0619499683380127,1.69207501411438,3.475174903869629,1,3
154,5.386974811553955,-2.373246908187866,2.864461898803711,-2.075424909591675,1.7250750064849854,2.809400081634521,1,3
155,3.566912889480591,-1.6835739612579346,5.798505783081055,-1.716274976730347,1.1643500328063965,2.3317248821258545,1,3
156,3.653038024902344,-1.336068034172058,6.289490222930908,-1.0833624601364136,0.3713875114917755,2.013962507247925,1,3
157,4.469749927520752,-1.1351720094680786,4.733736038208008,-0.4639250040054321,-0.1490499973297119,1.6695250272750854,1,3
158,5.714091777801514,-1.009443998336792,2.679539918899536,-0.0681999996304512,-0.2798124849796295,1.269950032234192,1,3
159,5.687003135681152,-0.8985450267791748,1.634611964225769,0.0833249986171722,-0.1722874939441681,0.8325625061988831,1,3
160,4.29627799987793,-0.5720580220222473,1.9249839782714844,0.1383250057697296,-0.1050499975681305,0.4478375017642975,1,3
161,2.600936889648437,-0.3655360043048858,2.511478900909424,0.2421374917030334,-0.1930499970912933,0.2290749996900558,1,3
162,1.691575050354004,-0.3476519882678985,2.3123269081115723,0.4059000015258789,-0.3433375060558319,0.1630750000476837,1,3
163,1.4804610013961792,-0.3143979907035827,1.336935043334961,0.527999997138977,-0.4288625121116638,0.1643124967813491,1,3
164,1.476132035255432,-0.1446709930896759,0.2304680049419403,0.527999997138977,-0.3763374984264374,0.1717374920845031,1,3
165,1.5118930339813232,-0.1065459996461868,-0.5764610171318054,0.4241875112056732,-0.1930499970912933,0.1753125041723251,1,3
166,1.3376280069351196,-0.0483000017702579,-0.892192006111145,0.2616625130176544,0.0830499976873397,0.1667875051498413,1,3
167,0.8577989935874939,0.0399420000612735,-0.4487960040569305,0.1090374961495399,0.340862512588501,0.1740749925374984,1,3
168,0.7917699813842773,0.0262700002640485,0.2143190056085586,0.0210375003516674,0.4496249854564667,0.1924999952316284,1,3
169,0.8676519989967346,-0.0975899994373321,0.6110309958457947,0.010037500411272,0.4459125101566314,0.1815000027418136,1,3
170,0.8991590142250061,-0.2048400044441223,0.7326220273971558,0.0552750006318092,0.3811500072479248,0.1399749964475631,1,3
171,0.9665240049362184,-0.2145099937915802,0.4714860022068023,0.1150875017046928,0.2748624980449676,0.0849749967455864,1,3
172,0.835910975933075,-0.2079109996557235,0.1883549988269806,0.1468500047922134,0.1490499973297119,0.0177375003695487,1,3
173,0.5782430171966553,-0.1537690013647079,0.0635609999299049,0.1566125005483627,0.0170499999076128,-0.0420750007033348,1,3
174,0.3081769943237304,-0.1098909974098205,-0.0503670014441013,0.1542750000953674,-0.0745249986648559,-0.0738374963402748,1,3
175,0.0820560008287429,-0.1543049961328506,0.0302980002015829,0.1542750000953674,-0.1220999956130981,-0.0775500014424324,1,3
176,-0.052021000534296,-0.1458989977836609,0.0150899998843669,0.1603250056505203,-0.1453374922275543,-0.070262499153614,1,3
177,-0.1754530072212219,-0.166033998131752,-0.2317640036344528,0.1553750038146972,-0.1050499975681305,-0.0457874983549118,1,3
178,-0.3234170079231262,-0.2281830012798309,-0.6206849813461304,0.1236125007271766,0.0085249999538064,0.0054999999701976,1,3
179,-0.1649390012025833,-0.2674430012702942,-0.8100969791412354,0.0490874983370304,0.1258125007152557,0.0824999958276748,1,3
180,0.1256089955568313,-0.3394350111484527,-0.6703310012817383,-0.0547249987721443,0.1880999952554702,0.1350249946117401,1,3
181,0.2344399988651275,-0.402783989906311,-0.0909259989857673,-0.1243000030517578,0.1905750036239624,0.1435499936342239,1,3
182,0.3420310020446777,-0.3728899955749511,0.5813980102539062,-0.1243000030517578,0.1185249984264373,0.1375000029802322,1,3
183,0.3576399981975555,-0.3906629979610443,1.019389033317566,-0.0497750006616115,-0.0109999999403953,0.1215500012040138,1,3
184,0.3429799973964691,-0.2985079884529114,1.0699540376663208,0.06751249730587,-0.1710499972105026,0.0910250023007392,1,3
185,0.4160880148410797,-0.2253600060939788,0.3844490051269531,0.1651374995708465,-0.273624986410141,0.0555500015616416,1,3
186,0.4835079908370971,-0.1684920042753219,-0.3822669982910156,0.1835625022649765,-0.255337506532669,0.0250249989330768,1,3
187,0.4192540049552917,-0.1211540028452873,-0.8402979969978333,0.1187999993562698,-0.151525005698204,-0.0017874999903142,1,3
188,0.1187810003757476,-0.0966840013861656,-0.7838950157165527,0.0185624994337558,-0.0147124994546175,-0.0090749999508261,1,3
189,0.0386749990284442,-0.0928630009293556,-0.5176470279693604,-0.0742499977350235,0.0842875018715858,0.0116875004023313,1,3
190,-0.0103059997782111,-0.1064480021595954,-0.1208399981260299,-0.136537492275238,0.1502874940633773,0.0287375003099441,1,3
191,-0.0975589975714683,-0.1178790032863617,0.3895930051803589,-0.1487749963998794,0.1612875014543533,0.042212501168251,1,3
192,-0.1620679944753646,-0.1236829981207847,0.7585110068321228,-0.1109625026583671,0.1258125007152557,0.0604999996721744,1,3
193,-0.1647879928350448,-0.177713006734848,0.966044008731842,-0.0339624993503093,0.0488125011324882,0.0800250023603439,1,3
194,0.0083159999921917,-0.1619379967451095,0.7729189991950989,0.0552750006318092,-0.0549999997019767,0.0922624990344047,1,3
195,0.4244300127029419,-0.1976670026779174,0.2192769944667816,0.1163249984383583,-0.1209999993443489,0.0824999958276748,1,3
196,0.7189509868621826,-0.1901140064001083,-0.3686180114746094,0.1163249984383583,-0.0965249985456466,0.0312124993652105,1,3
197,0.7519649863243103,-0.097580999135971,-0.7028049826622009,0.0540375001728534,-0.0147124994546175,-0.0384999997913837,1,3
198,0.4566580057144165,-0.0354540012776851,-0.693356990814209,-0.0387750007212162,0.0879999995231628,-0.0935000032186508,1,3
199,0.0238470006734132,0.0163739994168281,-0.1280950009822845,-0.1120624989271164,0.1392875015735626,-0.1252624988555908,1,3
200,-0.0307509992271661,0.0033690000418573,-0.6531209945678711,0.0332750007510185,0.0097624994814395,-0.0299750007688999,2,3
201,-0.0885529965162277,-0.012691999785602,-0.4677439928054809,-0.026537500321865,0.0427624993026256,-0.0323125012218952,2,3
202,-0.2178670018911361,-0.0207160003483295,-0.1589049994945526,-0.0571999996900558,0.0684750005602836,-0.0213124994188547,2,3
203,-0.2571949958801269,-0.0578900016844272,0.1226560026407241,-0.0547249987721443,0.053762499243021,-0.0030249999836087,2,3
204,-0.2010949999094009,-0.0345630012452602,0.2565630078315735,-0.0364375002682209,-0.0134749999269843,0.0152624994516372,2,3
205,-0.0962250009179115,-0.0277350004762411,0.1110540032386779,-0.004674999974668,-0.0574750006198883,0.0274999998509883,2,3
206,-0.0125679997727274,0.0011970000341534,0.0009270000155083,0.0137499999254941,-0.0635249987244606,0.0299750007688999,2,3
207,0.0325389988720417,0.0290239993482828,-0.1964810043573379,0.0125124994665384,-0.0464750006794929,0.0287375003099441,2,3
208,-0.0296829994767904,-0.0027340000960975,-0.2074470072984695,-0.0057749999687075,-0.0072874999605119,0.0262624993920326,2,3
209,0.0600650012493133,-0.0384990014135837,0.1727070063352584,-0.022962499409914,-0.0037124999798834,0.0287375003099441,2,3
210,0.0332599990069866,-0.0901110023260116,0.5249390006065369,0.0052249999716877,-0.0232375003397464,0.0202124994248151,2,3
211,0.0321739986538887,-0.0393499992787838,0.5869420170783997,0.0747999995946884,-0.0525249987840652,0.0116875004023313,2,3
212,0.0943790003657341,-0.0398890003561973,0.3979740142822265,0.1297999918460846,-0.0989999994635582,0.0042624999769032,2,3
213,0.3028790056705475,-0.0774699971079826,0.0411700010299682,0.1553750038146972,-0.1172875016927719,-0.0079749999567866,2,3
214,0.6878769993782043,-0.1478109955787658,-0.1126680001616478,0.1383250057697296,-0.0842875018715858,-0.0420750007033348,2,3
215,1.6871850490570068,-0.3333329856395721,0.0442409999668598,0.1150875017046928,-0.0109999999403953,-0.11302500218153,2,3
216,3.5568621158599854,-0.5134950280189514,0.1978709995746612,0.0992750003933906,0.0695749968290329,-0.2938374876976013,2,3
217,4.659689903259277,-0.6243799924850464,0.5177410244941711,0.091849997639656,0.1380500048398971,-0.6676999926567078,2,3
218,5.125925064086914,-0.6167969703674316,1.34620201587677,0.1225124970078468,0.1417624950408935,-1.1379499435424805,2,3
219,5.109313011169434,-0.3809379935264587,1.4379340410232544,0.198137491941452,0.2040500044822693,-1.6438125371932983,2,3
220,5.3936028480529785,-0.9557979702949524,1.8603910207748413,0.3154250085353851,0.3799124956130981,-2.100724935531616,2,3
221,5.740883827209473,-1.2999279499053955,2.419361114501953,0.4534749984741211,0.1942874938249588,-2.577162504196167,2,3
222,6.976484775543213,-1.5420379638671875,2.815274953842163,0.6342874765396118,-0.4544374942779541,-3.1476500034332275,2,3
223,7.757338047027588,-1.8147770166397093,2.6698191165924072,0.8310499787330627,-1.3134000301361084,-3.8563249111175537,2,3
224,5.588877201080322,-1.7231559753417969,2.2532570362091064,1.0375750064849854,-1.9351749420166016,-4.594150066375732,2,3
225,2.834135055541992,-1.566794991493225,1.4172569513320925,1.1951500177383425,-2.210037469863892,-5.076775074005127,2,3
226,0.0499269999563694,-1.3597760200500488,0.0981350019574165,1.2537250518798828,-2.141700029373169,-5.21482515335083,2,3
227,-1.8532229661941528,-1.0034250020980835,-1.0164870023727417,1.2342000007629397,-1.8166500329971316,-5.053537368774414,2,3
228,-3.156960964202881,-0.7720639705657959,-1.6341149806976318,1.1131999492645264,-1.485550045967102,-4.7286248207092285,2,3
229,-5.459171772003174,-0.2964810132980346,-1.8243999481201167,0.9031000137329102,-1.1459250450134275,-4.269237518310547,2,3
230,-7.396096229553223,0.0541579984128475,-1.4332369565963743,0.6807624697685242,-0.8245875239372253,-3.619275093078613,2,3
231,-8.603490829467773,0.4937269985675812,-1.215317964553833,0.5072374939918518,-0.5791500210762024,-2.853262424468994,2,3
232,-8.96092700958252,0.4420099854469299,-1.0286660194396973,0.3948999941349029,-0.4239124953746795,-2.0530123710632324,2,3
233,-8.23669719696045,0.3668879866600036,-1.3791389465332031,0.2873750030994415,-0.441100001335144,-1.269950032234192,2,3
234,-6.83915901184082,0.0083529995754361,-1.991963028907776,0.1225124970078468,-0.4519625008106231,-0.5931749939918518,2,3
235,-5.595225811004639,-0.4815729856491089,-1.974498987197876,-0.0827749967575073,-0.404387503862381,-0.0848374962806701,2,3
236,-4.727604866027832,-0.7683789730072021,-1.344859957695007,-0.2600125074386596,-0.3225750029087066,0.295074999332428,2,3
237,-4.382541179656982,-0.8815609812736511,-0.8096989989280701,-0.3491125106811523,-0.1868624985218048,0.635937511920929,2,3
238,-4.098450183868408,-1.1308109760284424,-0.6794970035552979,-0.3564000129699707,0.0109999999403953,0.981612503528595,2,3
239,-4.332658767700195,-1.304198980331421,-0.3659740090370178,-0.3454000055789947,0.1307625025510788,1.3103749752044678,2,3
240,-5.189484119415283,-1.1545660495758057,-0.2250269949436187,-0.3063499927520752,0.0695749968290329,1.6853375434875488,2,3
241,-5.972628116607666,-0.996969997882843,-0.2380000054836273,-0.2635875046253204,-0.0892374962568283,2.1434874534606934,2,3
242,-5.703020095825195,-1.1618030071258545,-0.8444780111312866,-0.2600125074386596,-0.2175250053405761,2.685925006866455,2,3
243,-3.589571952819824,-1.7145010232925415,-1.7206109762191772,-0.3515875041484833,-0.1991000026464462,3.207599878311157,2,3
244,-2.721160888671875,-1.97252094745636,-2.230024099349976,-0.5506874918937683,-0.0427624993026256,3.572937488555908,2,3
245,-1.9444899559021,-2.312386989593506,-2.3557519912719727,-0.7889750003814697,0.1331000030040741,3.8673250675201416,2,3
246,0.2919560074806213,-2.7866029739379883,-1.9546209573745728,-1.0870749950408936,0.1685750037431717,4.033562660217285,2,3
247,2.524110078811645,-2.7032830715179443,-2.5609049797058105,-1.3729374408721924,0.3860999941825866,3.960137367248535,2,3
248,5.19041919708252,-2.988136053085327,-2.323951005935669,-1.622087478637695,1.0396374464035034,3.730512380599976,2,3
249,6.469882965087891,-2.984039068222046,-0.3325580060482025,-1.83356249332428,1.6578375101089478,3.301650047302246,2,3
250,5.823573112487793,-2.404881000518799,3.071732997894287,-1.8298499584198,1.7751250267028809,2.734874963760376,2,3
251,4.572967052459717,-1.6266709566116333,6.273052215576172,-1.458462476730347,1.272974967956543,2.247299909591675,2,3
252,3.610032081604004,-1.1939270496368408,7.206381797790527,-0.7950249910354614,0.4398624897003174,1.8576250076293943,2,3
253,3.823781967163086,-0.9986690282821656,5.569447040557861,-0.0950125008821487,-0.3005749881267547,1.541237473487854,2,3
254,5.509261131286621,-0.917468011379242,2.6912219524383545,0.3691875040531158,-0.5912500023841858,1.2431374788284302,2,3
255,6.1264472007751465,-0.7242940068244934,0.5649060010910034,0.5219500064849854,-0.3958624899387359,0.8680375218391418,2,3
256,5.121140003204346,-0.3818289935588836,0.0435970015823841,0.466949999332428,-0.0574750006198883,0.4758875072002411,2,3
257,3.2957160472869877,-0.0949279963970184,0.5913609862327576,0.3741374909877777,0.0720499977469444,0.1960749924182891,2,3
258,2.170003890991211,0.0684560015797615,0.9078660011291504,0.3460874855518341,0.0367125011980533,0.0617375001311302,2,3
259,1.272758960723877,0.174248993396759,0.5491589903831482,0.3546124994754791,0.0378125011920928,0.016499999910593,2,3
260,0.5140079855918884,0.3436369895935058,0.0255410000681877,0.3313750028610229,0.167337492108345,0.0494999997317791,2,3
261,0.0939679965376854,0.3536899983882904,-0.1487739980220794,0.2593249976634979,0.3335750102996826,0.1557874977588653,2,3
262,0.371630996465683,0.1302839964628219,-0.1683789938688278,0.1786125004291534,0.4386250078678131,0.2975499927997589,2,3
263,1.0541549921035769,0.0534089989960193,-0.1195600032806396,0.110275000333786,0.4739624857902527,0.364650011062622,2,3
264,1.5134340524673462,0.0019369999645277,0.1449870020151138,0.06751249730587,0.4581499993801117,0.3280749917030334,2,3
265,1.7401920557022097,-0.1468800008296966,0.547353982925415,0.06751249730587,0.3701499998569488,0.2303124964237213,2,3
266,1.6431809663772583,-0.201101005077362,0.7694839835166931,0.1273249983787536,0.2480500042438507,0.0935000032186508,2,3
267,1.1439789533615112,-0.1149120032787323,0.5842639803886414,0.2177999913692474,0.1209999993443489,-0.0384999997913837,2,3
268,0.6103320121765137,-0.0864949971437454,-0.0495649985969066,0.2715624868869781,0.0257124993950128,-0.1105500012636184,2,3
269,0.2745319902896881,0.0472900010645389,-0.631650984287262,0.254375010728836,-0.0147124994546175,-0.1263625025749206,2,3
270,-0.0587820000946521,0.1095359995961189,-0.7451429963111877,0.1908500045537948,-0.0170499999076128,-0.1165999993681907,2,3
271,-0.3150660097599029,0.0781190022826194,-0.5632539987564087,0.1260875016450882,-0.0012374999932944,-0.0763124972581863,2,3
272,-0.3867439925670624,-0.0337500013411045,-0.1990679949522018,0.0808499976992607,0.0257124993950128,-0.0152624994516372,2,3
273,-0.3090650141239166,-0.1101849973201751,0.1522649973630905,0.0747999995946884,0.0354750007390975,0.0409750007092952,2,3
274,-0.2144300043582916,-0.2416079938411712,-0.0078619997948408,0.0980374962091445,0.0720499977469444,0.0910250023007392,2,3
275,0.1113630011677742,-0.3382549881935119,-0.4247159957885742,0.0955625027418136,0.1319999992847442,0.1362625062465667,2,3
276,0.4030179977416992,-0.3557280004024505,-0.6266059875488281,0.03575000166893,0.1637624949216842,0.1508374959230423,2,3
277,0.574088990688324,-0.3758330047130584,-0.4583620131015777,-0.0424874983727932,0.1440999954938888,0.1337874978780746,2,3
278,0.5109459757804871,-0.3275139927864074,-0.0808340013027191,-0.0900624990463256,0.0769999995827674,0.1020250022411346,2,3
279,0.3606570065021515,-0.2465949952602386,0.4354990124702453,-0.0974875018000602,-0.0134749999269843,0.0690250024199485,2,3
280,0.19547800719738,-0.1809139996767044,0.7913380265235901,-0.0595375001430511,-0.0867625027894973,0.0470249988138675,2,3
281,-0.0398069992661476,-0.1310500055551529,0.8884509801864624,0.0162249989807605,-0.0989999994635582,0.0457874983549118,2,3
282,-0.1764689981937408,-0.0835810005664825,0.6673200130462646,0.0967999994754791,-0.0585750006139278,0.073974996805191,2,3
283,-0.1733759939670562,-0.0611819997429847,0.252357006072998,0.1443749964237213,0.0134749999269843,0.1117874979972839,2,3
284,-0.1091990023851394,-0.1091890037059784,-0.1917400062084198,0.139562502503395,0.0672374963760376,0.141075000166893,2,3
285,0.0915429964661598,-0.2035679966211319,-0.3739250004291534,0.0943249985575676,0.0769999995827674,0.1618375033140182,2,3
286,0.2407169938087463,-0.2500630021095276,-0.2408799976110458,0.0467500016093254,0.0477125011384487,0.1570249944925308,2,3
287,0.21942700445652,-0.2547560036182403,0.035470001399517,0.0307999998331069,-0.0072874999605119,0.1313125044107437,2,3
288,0.1895399987697601,-0.2178840041160583,0.3930059969425201,0.0405624993145465,-0.0989999994635582,0.0995500013232231,2,3
289,0.124730996787548,-0.1938080042600631,0.5677499771118164,0.0895124971866607,-0.1771000027656555,0.066550001502037,2,3
290,0.1295679956674575,-0.1136730015277862,0.349700003862381,0.1578499972820282,-0.1845249980688095,0.0397375002503395,2,3
291,0.1649560034275055,-0.0776759982109069,-0.1420039981603622,0.1871374994516372,-0.1025749966502189,0.0226875003427267,2,3
292,-0.0605879984796047,-0.0757260024547576,-0.453449010848999,0.1640374958515167,0.0268124993890523,0.0214499998837709,2,3
293,-0.286529004573822,-0.0212360005825757,-0.3699379861354828,0.1090374961495399,0.1002374961972236,0.0532125011086463,2,3
294,-0.3523570001125335,0.0198509991168975,-0.0037559999618679,0.0613249987363815,0.0989999994635582,0.0995500013232231,2,3
295,-0.0986720025539398,-0.0420380011200904,0.1416019946336746,0.05884999781847,0.0488125011324882,0.1387374997138977,2,3
296,0.3240349888801574,-0.1170620024204254,-0.2504009902477264,0.0613249987363815,0.0085249999538064,0.1399749964475631,2,3
297,0.3818379938602447,-0.110616996884346,-0.4376179873943329,0.0247499998658895,0.0159499999135732,0.0995500013232231,2,3
298,0.2650780081748962,-0.063569001853466,-0.3490149974822998,-0.026537500321865,0.0280499998480081,0.0617375001311302,2,3
299,0.2699489891529083,-0.1142729967832565,-0.2056709975004196,-0.0607750006020069,0.0378125011920928,0.0360249988734722,2,3
300,0.0542760007083416,0.0097589995712041,-0.4156419932842254,0.0173249989748001,0.0452375002205371,0.0177375003695487,3,3
301,-0.0255619995296001,0.0355259999632835,-0.2482639998197555,-0.0290124993771314,0.0672374963760376,0.0177375003695487,3,3
302,-0.0751729980111122,0.0267999991774559,-0.1303309947252273,-0.0534874983131885,0.0562375001609325,0.0262624993920326,3,3
303,-0.0146409999579191,0.0168009996414184,0.1527269929647445,-0.0644875019788742,0.0122375003993511,0.0250249989330768,3,3
304,0.1540270000696182,0.0013139999937266,0.2949129939079284,-0.0437249988317489,-0.0268124993890523,0.014024999924004,3,3
305,0.1633960008621215,-0.0245489999651908,0.3132669925689697,0.0002749999985098,-0.0305249989032745,-0.0127875003963708,3,3
306,-0.0687450021505355,0.0671200007200241,0.2371699959039688,0.0405624993145465,-0.0342375002801418,-0.0274999998509883,3,3
307,-0.1527519971132278,0.0118110002949833,-0.0019000000320374,0.0650374963879585,-0.0257124993950128,-0.0090749999508261,3,3
308,-0.0604149997234344,-0.025110999122262,-0.1886219978332519,0.0625625029206276,-0.0049499999731779,0.0079749999567866,3,3
309,0.0179299991577863,-0.0273150000721216,-0.2307589948177337,0.0479874983429908,0.0072874999605119,0.014024999924004,3,3
310,0.0022539999336004,-0.0204879995435476,-0.3515309989452362,0.0283249989151954,0.0159499999135732,0.0127875003963708,3,3
311,-0.1630550026893615,0.0281479991972446,-0.364107996225357,0.0002749999985098,0.0159499999135732,0.014024999924004,3,3
312,-0.2103379964828491,0.088866002857685,-0.3672749996185303,-0.0327249988913536,-0.0109999999403953,0.0274999998509883,3,3
313,-0.2163120061159134,0.0806159973144531,-0.3170360028743744,-0.0632499977946281,-0.0268124993890523,0.0445500016212463,3,3
314,-0.1329749971628189,0.0897860005497932,-0.1574549973011016,-0.0803000032901763,-0.0170499999076128,0.0629749968647956,3,3
315,-0.0099999997764825,-0.0059609999880194,0.0751949995756149,-0.0864875018596649,-0.0109999999403953,0.0715000033378601,3,3
316,0.2977330088615417,-0.1050980016589164,0.3758989870548248,-0.0669625028967857,0.0012374999932944,0.073974996805191,3,3
317,0.6063709855079651,-0.1564909964799881,0.4102360010147095,-0.0180124994367361,0.0367125011980533,0.0445500016212463,3,3
318,0.8510050177574158,-0.1772930026054382,0.1887850016355514,0.0332750007510185,0.0695749968290329,-0.0177375003695487,3,3
319,2.236330986022949,-0.3922730088233948,-0.536683976650238,0.0295624993741512,0.0904750004410743,-0.098312497138977,3,3
320,3.1810638904571533,-0.4958930015563965,-0.9369540214538574,-0.0595375001430511,0.1808124929666519,-0.3145999908447265,3,3
321,4.809682846069336,-0.7656880021095276,-0.7015269994735718,-0.1622499972581863,0.2785750031471252,-0.6199874877929688,3,3
322,7.263885974884033,-1.4057550430297852,-0.3438949882984161,-0.258774995803833,0.2395250052213668,-1.1013749837875366,3,3
323,8.570383071899414,-1.1570290327072144,0.7083269953727722,-0.3015374839305877,0.1527625024318695,-1.861199975013733,3,3
324,9.686397552490234,-1.3517309427261353,0.9619020223617554,-0.3027749955654144,-0.0745249986648559,-2.7421624660491943,3,3
325,7.457037925720215,-1.335307002067566,1.2442560195922852,-0.2415875047445297,-0.1123374998569488,-3.63756251335144,3,3
326,2.928554058074951,-0.7337409853935242,2.8551909923553467,-0.0620125010609626,-0.0879999995231628,-4.1947126388549805,3,3
327,-0.0511410012841224,-0.3776170015335083,3.626009941101074,0.2128500044345855,-0.3518624901771545,-4.2912373542785645,3,3
328,2.3486850261688232,-1.146314024925232,2.4652349948883057,0.5354250073432922,-0.7550125122070312,-4.178899765014648,3,3
329,4.174398899078369,-1.7852790355682373,0.4205569922924042,0.7602375149726868,-1.036062479019165,-4.320525169372559,3,3
330,2.7521939277648926,-1.5825510025024414,-1.4382749795913696,0.7845749855041504,-1.1081124544143677,-4.705387592315674,3,3
331,-0.2967379987239837,-1.3648149967193604,-2.7295169830322266,0.6001874804496765,-1.0726374387741089,-4.937487602233887,3,3
332,-4.83519983291626,-0.95762699842453,-2.3165950775146484,0.2653749883174896,-0.957825005054474,-4.792150020599365,3,3
333,-9.763826370239258,0.0721009969711303,-0.7338830232620239,-0.0449624992907047,-0.8870124816894531,-4.190999984741211,3,3
334,-12.610791206359863,0.7065420150756836,0.3276709914207458,-0.1610125005245208,-0.7867749929428101,-3.1843624114990234,3,3
335,-12.540948867797852,0.7224599719047546,0.0761009976267814,-0.1207249984145164,-0.5937250256538391,-1.9894875288009644,3,3
336,-11.19766330718994,0.5875939726829529,-0.858722984790802,-0.1023000031709671,-0.2870999872684479,-0.890037477016449,3,3
337,-9.433080673217772,0.1367650032043457,-1.6500240564346311,-0.2098249942064285,0.1172875016927719,-0.0237875003367662,3,3
338,-8.397933006286621,-0.3326810002326965,-1.6756809949874878,-0.3980624973773956,0.4056249856948852,0.6029375195503235,3,3
339,-7.260767936706543,-1.0734690427780151,-1.5032010078430176,-0.5934500098228455,0.5571500062942505,1.10013747215271,3,3
340,-5.309934139251709,-1.7430599927902222,-1.4046499729156494,-0.7339749932289124,0.7367249727249146,1.4972374439239502,3,3
341,-4.27785587310791,-2.116262912750244,-0.6151549816131592,-0.81454998254776,0.9003499746322632,1.7782875299453735,3,3
342,-4.686314105987549,-1.953639030456543,0.0394820012152195,-0.7937874794006348,0.9248250126838684,2.022624969482422,3,3
343,-4.763901233673096,-2.029458999633789,0.014903999865055,-0.7132124900817871,0.7965375185012817,2.3084874153137207,3,3
344,-4.445220947265625,-1.9244519472122192,-0.5232369899749756,-0.7046874761581421,0.5559124946594238,2.594350099563598,3,3
345,-3.8187930583953857,-1.9604840278625488,-1.122288942337036,-0.7864999771118164,0.3763374984264374,2.91444993019104,3,3
346,-2.306297063827514,-2.2807769775390625,-0.9550930261611938,-0.9343125224113464,0.273624986410141,3.229599952697754,3,3
347,-1.4848580360412598,-2.0819780826568604,0.4003340005874634,-1.0405999422073364,0.111237496137619,3.4286999702453613,3,3
348,-0.7117210030555725,-2.067457914352417,2.1587018966674805,-0.9917874932289124,-0.107524998486042,3.499650001525879,3,3
349,-1.2306760549545288,-1.5524059534072876,2.628962993621826,-0.7804499864578247,-0.0464750006794929,3.492224931716919,3,3
350,-1.60167396068573,-1.887446045875549,2.481771945953369,-0.4713499844074249,0.3261500000953674,3.622987508773804,3,3
351,-0.1727599948644638,-2.100526094436645,1.3636770248413086,-0.2660624980926513,0.5351499915122986,3.823324918746948,3,3
352,4.809270858764648,-2.836155891418457,-0.8093559741973877,-0.2135374993085861,0.6975374817848206,3.877087593078613,3,3
353,8.428544044494629,-2.7947840690612797,-1.699260950088501,-0.3454000055789947,0.9321125149726868,3.44341254234314,3,3
354,8.687301635742188,-1.9125529527664185,-0.0899130031466484,-0.5286874771118164,0.9725375175476074,2.6113998889923096,3,3
355,6.537707805633545,-0.7797229886054993,2.822416067123413,-0.5299249887466431,0.524150013923645,1.785575032234192,3,3
356,3.855968952178955,-0.2186750024557113,4.483781814575195,-0.2367749959230423,-0.1966249942779541,1.203950047492981,3,3
357,1.957878947257996,0.0840710029006004,4.177962779998779,0.2396624982357025,-0.7953000068664551,0.9022749662399292,3,3
358,1.1468559503555298,0.5927919745445251,2.5657289028167725,0.6440500020980835,-1.081162452697754,0.7788000106811523,3,3
359,1.839377999305725,0.6006960272789001,0.1343670040369033,0.8640499711036682,-0.9468249678611756,0.7580375075340271,3,3
360,3.441118001937866,0.3065940141677856,-1.8996130228042605,0.843287467956543,-0.4801499843597412,0.6737499833106995,3,3
361,3.45271897315979,0.6052600145339966,-2.5384840965271,0.6282374858856201,-0.0367125011980533,0.4184125065803528,3,3
362,2.085913896560669,0.8888890147209167,-2.309962034225464,0.383899986743927,0.1857624948024749,0.1924999952316284,3,3
363,0.9738159775733948,0.9855579733848572,-1.9373949766159055,0.1651374995708465,0.1735250055789947,0.1057374998927116,3,3
364,0.5231689810752869,1.0312420129776,-1.8191269636154173,-0.0144375003874301,0.1160499975085258,0.1007874980568885,3,3
365,0.6651020050048828,0.8909459710121155,-1.5922789573669434,-0.1645874977111816,0.1771000027656555,0.11302500218153,3,3
366,0.5079349875450134,0.8334550261497498,-0.4261800050735473,-0.2563000023365021,0.3005749881267547,0.1117874979972839,3,3
367,0.0099400002509355,0.8138719797134399,0.9623960256576538,-0.2050125002861023,0.3518624901771545,0.1179749965667724,3,3
368,-0.3329209983348846,0.7041530013084412,1.6059759855270386,-0.0009624999947845,0.2198625057935714,0.1607374995946884,3,3
369,0.2280299961566925,0.5349109768867493,0.650409996509552,0.2116124927997589,-0.0268124993890523,0.2035000026226043,3,3
370,1.4279040098190308,0.2870500087738037,-0.8611900210380554,0.2763749957084656,-0.1440999954938888,0.1717374920845031,3,3
371,1.990424990653992,0.1746380031108856,-1.4205739498138428,0.1908500045537948,-0.0830499976873397,0.0312124993652105,3,3
372,1.4404540061950684,0.1507750004529953,-0.90692800283432,0.0747999995946884,-0.0292875003069639,-0.1447875052690506,3,3
373,0.5577279925346375,0.2180649936199188,-0.1020210012793541,0.0173249989748001,-0.0732875019311904,-0.2633124887943268,3,3
374,-0.3084389865398407,0.2708539962768554,0.3763810098171234,0.0467500016093254,-0.1270499974489212,-0.2961750030517578,3,3
375,-0.8890939950942993,0.3170419931411743,0.1775909960269928,0.1077999994158744,-0.1405249983072281,-0.2425500005483627,3,3
376,-1.1011669635772705,0.2699829936027527,-0.2692669928073883,0.1200374960899353,-0.1123374998569488,-0.1350249946117401,3,3
377,-0.9928359985351562,0.2011629939079284,-0.5608189702033997,0.0735625028610229,-0.0390499979257583,-0.0152624994516372,3,3
378,-0.9101020097732544,0.052046999335289,-0.5558670163154602,0.010037500411272,0.0488125011324882,0.1093124970793724,3,3
379,-0.3239139914512634,-0.1149619966745376,-0.4766600131988525,-0.0547249987721443,0.0892374962568283,0.2070749998092651,3,3
380,0.3109349906444549,-0.1902070045471191,-0.2941370010375976,-0.1207249984145164,0.1025749966502189,0.2193125039339065,3,3
381,0.95556902885437,-0.3437600135803222,0.1496450006961822,-0.1572999954223632,0.1331000030040741,0.1607374995946884,3,3
382,0.9993410110473632,-0.2717950046062469,0.726186990737915,-0.136537492275238,0.1197625026106834,0.0470249988138675,3,3
383,0.4778650104999542,-0.1519510000944137,0.957414984703064,-0.0595375001430511,0.0477125011384487,-0.0715000033378601,3,3
384,-0.1886679977178573,-0.0473939999938011,0.7044510245323181,0.0270875003188848,-0.0427624993026256,-0.1215500012040138,3,3
385,-0.5790240168571472,0.1256600022315979,0.2109290063381195,0.0710875019431114,-0.111237496137619,-0.1105500012636184,3,3
386,-0.6268929839134216,0.141867995262146,-0.1178010031580925,0.063799999654293,-0.111237496137619,-0.0653124973177909,3,3
387,-0.5694969892501831,0.1245390027761459,-0.0740379989147186,0.0307999998331069,-0.0659999996423721,-0.0127875003963708,3,3
388,-0.4836170077323913,0.0858509987592697,0.2209829986095428,0.0125124994665384,-0.0378125011920928,0.0299750007688999,3,3
389,-0.4344440102577209,0.0652730017900466,0.3957149982452392,0.0259875003248453,-0.0598125010728836,0.0507375001907348,3,3
390,-0.1087379977107048,-0.0240839999169111,0.1433829963207245,0.0540375001728534,-0.0695749968290329,0.0592624992132186,3,3
391,-0.0147660002112388,-0.0546820014715194,-0.2671990096569061,0.0515624992549419,-0.0147124994546175,0.0445500016212463,3,3
392,-0.0988159999251365,-0.0248809996992349,-0.443571001291275,0.0087999999523162,0.0390499979257583,0.0312124993652105,3,3
393,-0.2317119985818863,-0.066270999610424,-0.2724300026893616,-0.0437249988317489,0.053762499243021,0.0336874984204769,3,3
394,-0.2775309979915619,-0.0208529997617006,0.0896719992160797,-0.0644875019788742,0.0049499999731779,0.0409750007092952,3,3
395,-0.2910589873790741,0.0935800001025199,0.4293879866600036,-0.0437249988317489,-0.075762502849102,0.0494999997317791,3,3
396,-0.1596489995718002,0.1138650029897689,0.5782690048217773,0.0112749999389052,-0.1392875015735626,0.0555500015616416,3,3
397,-0.0178169999271631,0.133785992860794,0.3184579908847809,0.0760374963283538,-0.1319999992847442,0.0494999997317791,3,3
398,0.052166998386383,0.1142420023679733,-0.135560005903244,0.1077999994158744,-0.0647625029087066,0.0397375002503395,3,3
399,0.0326690003275871,0.0502520017325878,-0.4428189992904663,0.091849997639656,0.0060499999672174,0.0372624993324279,3,3
400,-0.0606179982423782,0.0403119996190071,0.1274629980325698,-0.0474375002086162,0.0317624993622303,-0.0067374999634921,4,3
401,-0.0763930007815361,0.0756869986653328,0.3846000134944916,-0.0192499998956918,-0.0195249989628791,-0.0067374999634921,4,3
402,0.0524180009961128,0.0353090018033981,0.3221420049667358,0.0307999998331069,-0.0732875019311904,-0.0115499999374151,4,3
403,0.0883940011262893,0.0067099998705089,0.0556569993495941,0.063799999654293,-0.0940499976277351,-0.0274999998509883,4,3
404,0.0019059999613091,-0.0033209999091923,-0.2426490038633346,0.06751249730587,-0.0818125009536743,-0.0323125012218952,4,3
405,0.0699630007147789,-0.0340019986033439,-0.5902090072631836,0.0332750007510185,-0.0305249989032745,-0.0250249989330768,4,3
406,0.0419600009918212,-0.0348410010337829,-0.6631720066070557,-0.0314874984323978,0.0477125011384487,-0.0225499998778104,4,3
407,-0.0131919998675584,-0.0112260002642869,-0.3948589861392975,-0.0962499976158142,0.0928125008940696,-0.0189750008285045,4,3
408,-0.1432909965515136,0.0037380000576376,0.1711540073156356,-0.1219625025987625,0.0952875018119812,-0.0127875003963708,4,3
409,-0.2657999992370605,0.0373580008745193,0.6458560228347778,-0.0803000032901763,0.0574750006198883,0.0017874999903142,4,3
410,-0.138151004910469,-0.0464500002562999,0.6877130270004272,0.0027499999850988,-0.0109999999403953,0.014024999924004,4,3
411,-0.0575359985232353,-0.0467340014874935,0.426488995552063,0.0710875019431114,-0.075762502849102,0.0092124994844198,4,3
412,0.0780609995126724,-0.0878639966249466,0.0093780001625418,0.110275000333786,-0.1025749966502189,0.0104499999433755,4,3
413,0.2685180008411407,-0.1353210061788559,-0.3319959938526153,0.0955625027418136,-0.0915749967098236,0.0030249999836087,4,3
414,0.300476998090744,-0.1132249981164932,-0.468519002199173,0.0479874983429908,-0.0390499979257583,-0.0189750008285045,4,3
415,0.6889190077781677,-0.2048819959163665,-0.5168229937553406,-0.0094875004142522,0.0427624993026256,-0.0507375001907348,4,3
416,1.1536730527877808,-0.2040760070085525,-0.4778220057487488,-0.0815375000238418,0.1502874940633773,-0.1215500012040138,4,3
417,0.9011710286140442,-0.1762080043554306,0.0633099973201751,-0.1255374997854232,0.2675749957561493,-0.2326499968767166,4,3
418,0.4569529891014099,-0.0817689970135688,0.6801900267601013,-0.104774996638298,0.2492875009775161,-0.3170749843120575,4,3
419,0.6571059823036194,-0.1209309995174408,0.6973599791526794,-0.0412499979138374,0.1392875015735626,-0.371937483549118,4,3
420,2.389436960220337,-0.2147170007228851,0.0705970004200935,-0.002199999988079,0.0842875018715858,-0.494174987077713,4,3
421,3.981405019760132,-0.3265140056610107,-0.6673399806022644,-0.0351999998092651,0.3139125108718872,-0.7959874868392944,4,3
422,6.902475833892822,-0.9889330267906188,-0.6741740107536316,-0.1255374997854232,0.7097749710083008,-1.252900004386902,4,3
423,8.439276695251465,-1.5411850214004517,0.3621259927749634,-0.2183499932289123,1.018875002861023,-1.9772499799728396,4,3
424,9.004602432250977,-1.9490820169448853,1.8026180267333984,-0.1658249944448471,0.9395374655723572,-2.8545000553131104,4,3
425,7.631543159484863,-2.208970069885254,3.1380789279937744,0.0222750008106231,0.3676750063896179,-3.736562490463257,4,3
426,4.4612298011779785,-1.9534770250320437,3.717062950134277,0.3460874855518341,-0.3823874890804291,-4.440287590026856,4,3
427,1.8505480289459229,-1.9703669548034668,3.26865291595459,0.6672874689102173,-1.2289749383926392,-4.843437671661377,4,3
428,0.5353410243988037,-2.1027650833129883,1.515321969985962,0.9068124890327454,-1.875362515449524,-4.98877477645874,4,3
429,0.3651779890060425,-1.989812970161438,-0.9184820055961608,0.9495750069618224,-2.134274959564209,-5.004724979400635,4,3
430,-1.9814029932022093,-1.3315069675445557,-2.5249390602111816,0.8029999732971191,-1.822837471961975,-4.899674892425537,4,3
431,-4.971023082733154,-0.5839729905128479,-2.695810079574585,0.5341874957084656,-1.2607375383377075,-4.538050174713135,4,3
432,-8.06645393371582,0.5062900185585022,-2.060375928878784,0.1896124929189682,-0.8124874830245972,-3.917375087738037,4,3
433,-9.274720191955566,0.8539630174636841,-1.5449490547180176,-0.1035374999046325,-0.4947249889373779,-3.079312562942505,4,3
434,-7.613678932189941,0.4410179853439331,-1.5174620151519775,-0.2978250086307525,-0.3909125030040741,-2.2424874305725098,4,3
435,-5.48566198348999,0.1879439949989318,-1.8875809907913208,-0.4236375093460083,-0.3348124921321869,-1.5827624797821045,4,3
436,-3.4021809101104736,-0.1577599942684173,-2.3757710456848145,-0.5739250183105469,-0.2455749958753585,-1.1441375017166138,4,3
437,-2.616503953933716,-0.4683910012245178,-2.1384589672088623,-0.8047875165939331,-0.1465750038623809,-0.916849970817566,4,3
438,-2.3856279850006104,-0.7522879838943481,-0.6830639839172363,-1.0260249376296997,-0.1050499975681305,-0.8093249797821045,4,3
439,-2.8506710529327397,-0.7990999817848206,0.9832710027694702,-1.0553125143051147,-0.0659999996423721,-0.6835125088691711,4,3
440,-3.9407010078430176,-0.8320819735527039,2.5633809566497803,-0.8414999842643738,-0.0354750007390975,-0.4562250077724457,4,3
441,-5.1143999099731445,-0.7534250020980835,3.556225061416626,-0.4518249928951263,-0.1490499973297119,-0.1203124970197677,4,3
442,-6.112071990966797,-0.547465980052948,3.385312080383301,-0.0131999999284744,-0.3689124882221222,0.2620750069618225,4,3
443,-6.923421859741211,-0.5601180195808411,2.240739107131958,0.3423750102519989,-0.5131499767303467,0.705512523651123,4,3
444,-6.895833015441895,-0.8119109869003296,0.4963659942150116,0.5464249849319458,-0.441100001335144,1.2394249439239502,4,3
445,-6.63744592666626,-1.155359983444214,-0.3723219931125641,0.5647125244140625,-0.2065249979496002,1.7770500183105469,4,3
446,-7.0154337882995605,-1.4394619464874268,-0.5989260077476501,0.5084750056266785,0.0805749967694282,2.3535873889923096,4,3
447,-7.787346839904785,-1.7059760093688965,-0.4340620040893554,0.4499000012874603,0.3018124997615814,2.996262550354004,4,3
448,-7.631853103637695,-1.886783003807068,-0.7615910172462463,0.383899986743927,0.3371500074863434,3.699987411499024,4,3
449,-4.178003787994385,-2.803061008453369,-2.14798903465271,0.2128500044345855,0.2761000096797943,4.34871244430542,4,3
450,-0.3168489933013916,-3.276516914367676,-3.53147292137146,-0.1622499972581863,0.2700499892234802,4.638287544250488,4,3
451,2.2631239891052246,-3.3022611141204834,-4.3246002197265625,-0.6741625070571899,0.6132500171661377,4.540524959564209,4,3
452,1.4440159797668457,-2.963223934173584,-2.619102001190185,-1.140837550163269,1.2522125244140625,4.2912373542785645,4,3
453,-0.2493190020322799,-2.388978958129883,0.971638023853302,-1.3546500205993652,1.55649995803833,4.2069501876831055,4,3
454,-0.364764004945755,-2.4077670574188232,3.641401052474976,-1.2189375162124634,1.2266374826431274,4.263187408447266,4,3
455,4.686310768127441,-3.356611013412476,2.415864944458008,-0.865975022315979,0.6547750234603882,4.220425128936768,4,3
456,10.408120155334473,-3.492793083190918,0.447627991437912,-0.6399250030517578,0.3873375058174133,3.679224967956543,4,3
457,12.327890396118164,-2.444056987762451,0.4630120098590851,-0.5776374936103821,0.3628624975681305,2.596824884414673,4,3
458,9.9037504196167,-1.1230930089950562,2.512700080871582,-0.5153499841690063,0.1392875015735626,1.4190000295639038,4,3
459,5.8571882247924805,-0.3511309921741485,4.387034893035889,-0.2710124850273132,-0.3653374910354614,0.5674625039100647,4,3
460,2.482717990875244,0.0364330001175403,4.801914215087891,0.1725624948740005,-0.8234875202178955,0.1508374959230423,4,3
461,0.7468420267105103,0.3311629891395569,3.427661895751953,0.6050000190734863,-1.049399971961975,0.0507375001907348,4,3
462,0.0911469981074333,0.4727599918842315,1.43779194355011,0.868862509727478,-0.9125875234603882,0.1252624988555908,4,3
463,0.1805749982595443,0.3739080131053924,-0.217166006565094,0.9153375029563904,-0.5937250256538391,0.2583625018596649,4,3
464,0.6511589884757996,0.2360610067844391,-1.494318962097168,0.7955750226974487,-0.2675749957561493,0.3756499886512756,4,3
465,2.0470120906829834,-0.2177820056676864,-2.68795108795166,0.558662474155426,-0.0060499999672174,0.4246000051498413,4,3
466,3.2090859413146973,-0.4441759884357452,-3.0407960414886475,0.2201374918222427,0.1918125003576278,0.3341250121593475,4,3
467,3.282435894012451,-0.2249089926481247,-1.8770090341567995,-0.1243000030517578,0.2688125073909759,0.1264999955892563,4,3
468,2.7722690105438232,-0.1299449950456619,-0.3158220052719116,-0.3295874893665313,0.2088624984025955,-0.1117874979972839,4,3
469,1.7023509740829468,-0.1151039972901344,1.0597219467163086,-0.3271124958992004,0.1918125003576278,-0.2986499965190887,4,3
470,0.1257990002632141,0.1001280024647712,2.2280020713806152,-0.1622499972581863,0.1502874940633773,-0.382937490940094,4,3
471,-1.0220019817352295,0.1997870057821273,2.6696739196777344,0.0967999994754791,-0.0037124999798834,-0.3121249973773956,4,3
472,-1.1899709701538086,0.2109130024909973,1.6459590196609497,0.3496625125408172,-0.1295250058174133,-0.1557874977588653,4,3
473,-0.6611379981040955,0.1039180010557174,0.05918800085783,0.4621374905109405,-0.0769999995827674,-0.0042624999769032,4,3
474,0.1385650038719177,-0.1641560047864914,-1.0552990436553955,0.3961375057697296,0.0842875018715858,0.0910250023007392,4,3
475,0.8312950134277344,-0.4411619901657104,-1.4142179489135742,0.2421374917030334,0.2578125,0.1190750002861023,4,3
476,1.0437259674072266,-0.5015569925308228,-0.9974730014801024,0.0870374962687492,0.3420999944210052,0.073974996805191,4,3
477,0.6468250155448914,-0.4466600120067596,-0.331615000963211,-0.0094875004142522,0.2846249938011169,0.0079749999567866,4,3
478,0.4337680041790008,-0.3835000097751617,-0.0164509993046522,-0.0400125011801719,0.1123374998569488,-0.0360249988734722,4,3
479,0.1140810027718544,-0.2067980021238327,0.0086179999634623,-0.0461999997496604,-0.0342375002801418,-0.0763124972581863,4,3
480,-0.2899160087108612,-0.1348679959774017,0.1982100009918213,-0.026537500321865,-0.0659999996423721,-0.0725999996066093,4,3
481,-0.5167530179023743,-0.0741349980235099,0.446929007768631,0.0063249999657273,-0.0500499978661537,-0.0274999998509883,4,3
482,-0.6032480001449585,-0.0603079982101917,0.8734449744224548,0.0662750005722045,-0.0488125011324882,0.042212501168251,4,3
483,-0.4013479948043823,-0.1023240014910698,0.7333850264549255,0.1603250056505203,-0.053762499243021,0.1155000030994415,4,3
484,-0.0181750003248453,-0.2001570016145706,0.2029850035905838,0.2275625020265579,-0.0219999998807907,0.1618375033140182,4,3
485,0.6170579791069031,-0.2649869918823242,-0.4517939984798431,0.2177999913692474,0.032999999821186,0.172837495803833,4,3
486,0.9440270066261292,-0.3751760125160217,-0.7706090211868286,0.1407999992370605,0.0965249985456466,0.1313125044107437,4,3
487,0.7297890186309814,-0.2628859877586365,-0.4623430073261261,0.0527999997138977,0.0952875018119812,0.0592624992132186,4,3
488,0.4774590134620666,-0.1798859983682632,0.0165950004011392,0.0075624999590218,0.0207624994218349,0.0042624999769032,4,3
489,0.1821620017290115,-0.1014159992337226,0.3535920083522796,0.0210375003516674,-0.0574750006198883,-0.0335500016808509,4,3
490,-0.2070470005273819,-0.0203089993447065,0.312855988740921,0.0600874982774257,-0.107524998486042,-0.0470249988138675,4,3
491,-0.4044069945812225,-0.0553370006382465,0.2256640046834945,0.0895124971866607,-0.111237496137619,-0.0274999998509883,4,3
492,-0.5557569861412048,-0.0114529998973011,0.1622640043497085,0.1090374961495399,-0.0867625027894973,0.0189750008285045,4,3
493,-0.2765530049800873,-0.1079770028591156,-0.0292029995471239,0.1175625026226043,-0.0439999997615814,0.0752125009894371,4,3
494,0.0396049991250038,-0.115457996726036,-0.1831659972667694,0.1040875017642974,0.0219999998807907,0.1020250022411346,4,3
495,0.1676259934902191,-0.1557410061359405,-0.3037639856338501,0.0808499976992607,0.0940499976277351,0.1044999957084655,4,3
496,0.1723870038986206,-0.1935220062732696,-0.3276509940624237,0.0455125011503696,0.1295250058174133,0.098312497138977,4,3
497,0.1314840018749237,-0.2077839970588684,-0.2545790076255798,0.0075624999590218,0.0867625027894973,0.0862125009298324,4,3
498,0.1273410022258758,-0.1583860069513321,-0.2443580031394958,-0.0144375003874301,0.0219999998807907,0.070262499153614,4,3
499,0.0321649983525276,-0.0973389968276023,-0.0388970002532005,-0.0277750007808208,-0.0464750006794929,0.0397375002503395,4,3
500,-0.0525889992713928,0.0385570004582405,0.006624000146985,-0.0217249989509582,-0.0072874999605119,-0.0103124994784593,5,3
501,-0.0504099987447261,0.007957000285387,-0.0250070001929998,-0.0217249989509582,0.032999999821186,0.0054999999701976,5,3
502,-0.0306320004165172,0.0412340015172958,0.0789659991860389,-0.0290124993771314,0.0477125011384487,0.0127875003963708,5,3
503,-0.0235980004072189,-0.0394040010869503,0.2446829974651336,-0.0241999998688697,0.0354750007390975,0.0177375003695487,5,3
504,0.0157510004937648,-0.0624600015580654,0.2776350080966949,0.0027499999850988,0.0,0.0250249989330768,5,3
505,0.1414429992437362,-0.044293001294136,0.196042001247406,0.0247499998658895,-0.0512874983251094,0.016499999910593,5,3
506,0.1589010059833526,0.034180000424385,0.0654760003089904,0.0369874984025955,-0.0805749967694282,-0.0030249999836087,5,3
507,0.1671330034732818,0.0572159998118877,-0.0457100011408329,0.038087498396635,-0.0585750006139278,-0.0213124994188547,5,3
508,0.0252659991383552,0.0666690021753311,-0.0632539987564086,0.0307999998331069,-0.0147124994546175,-0.0310750007629394,5,3
509,-0.1122839972376823,0.0719470009207725,-0.076954998075962,0.0222750008106231,0.0037124999798834,-0.0310750007629394,5,3
510,-0.1115659996867179,0.0615790002048015,-0.1379780024290084,0.0087999999523162,0.0134749999269843,-0.0225499998778104,5,3
511,-0.1932870000600814,0.0663350000977516,-0.090658999979496,-0.0107249999418854,0.0232375003397464,-0.0115499999374151,5,3
512,-0.1953019946813583,0.0140909999608993,-0.0473310016095638,-0.0180124994367361,0.0477125011384487,0.0092124994844198,5,3
513,-0.1586119979619979,-0.0211859997361898,0.0438500009477138,-0.0204875003546476,0.0500499978661537,0.0274999998509883,5,3
514,-0.0153759997338056,-0.0447290018200874,0.0218349993228912,-0.0167750008404254,0.0122375003993511,0.0360249988734722,5,3
515,0.170316994190216,-0.0768100023269653,0.0503269992768764,-0.0167750008404254,-0.0268124993890523,0.0250249989330768,5,3
516,0.1155989989638328,-0.0312150008976459,0.190881997346878,-0.0119624994695186,-0.0390499979257583,-0.0017874999903142,5,3
517,-0.03931799903512,-0.0607049986720085,0.3325540125370025,0.0112749999389052,-0.0342375002801418,-0.0127875003963708,5,3
518,-0.0818879976868629,-0.0730689987540245,0.3636749982833862,0.0430375002324581,-0.0354750007390975,-0.0115499999374151,5,3
519,-0.0820690020918846,-0.0307359993457794,0.2585780024528503,0.0760374963283538,-0.0439999997615814,-0.0079749999567866,5,3
520,0.1565500050783157,-0.1278630048036575,-0.1629029959440231,0.0882750004529953,-0.0244750007987022,-0.0042624999769032,5,3
521,0.5301420092582703,-0.198289006948471,-0.4674260020256042,0.0540375001728534,0.0342375002801418,-0.0250249989330768,5,3
522,1.2116390466690063,-0.2847079932689667,-0.6305590271949768,-0.002199999988079,0.108762502670288,-0.0812624990940094,5,3
523,2.4136340618133545,-0.5025320053100586,-0.4114640057086944,-0.0644875019788742,0.1918125003576278,-0.2155999988317489,5,3
524,2.8332860469818115,-0.4439559876918793,0.096960000693798,-0.0900624990463256,0.2920500040054321,-0.4806999862194061,5,3
525,2.4256980419158936,-0.2015150040388107,0.9090129733085632,-0.0327249988913536,0.393387496471405,-0.7727500200271606,5,3
526,2.8500120639801025,-0.1335570067167282,0.9283729791641236,0.0369874984025955,0.441100001335144,-1.0586124658584597,5,3
527,3.969283103942871,-0.4051539897918701,0.4544680118560791,0.1040875017642974,0.6169624924659729,-1.370187520980835,5,3
528,7.411468029022217,-1.1803799867630005,-0.4706040024757385,0.1163249984383583,0.6927250027656555,-1.790387511253357,5,3
529,9.54090976715088,-1.5513620376586914,-0.6210100054740906,0.0442750006914138,0.5669124722480774,-2.5306875705718994,5,3
530,10.966232299804688,-2.007230043411255,0.3243910074234009,0.0052249999716877,0.20762500166893,-3.465412378311157,5,3
531,10.142640113830566,-2.588529109954834,1.741392970085144,0.0662750005722045,-0.3983374834060669,-4.451287269592285,5,3
532,6.55145788192749,-2.5423378944396973,2.9922540187835693,0.2678500115871429,-0.9663500189781188,-5.315062522888184,5,3
533,2.388780117034912,-2.2881569862365723,3.95328688621521,0.5549499988555908,-1.469737529754639,-5.786550045013428,5,3
534,-1.973492980003357,-1.9888839721679688,2.909945011138916,0.8835750222206116,-1.6150749921798706,-5.830550193786621,5,3
535,-6.12317419052124,-1.1881170272827148,1.3324700593948364,1.1389124393463137,-1.3829749822616575,-5.4274001121521,5,3
536,-8.926392555236816,-0.2001689970493316,0.2375950068235397,1.2109625339508057,-1.0481624603271484,-4.678575038909912,5,3
537,-9.732430458068848,0.4744420051574707,-0.5350549817085266,1.1131999492645264,-0.7440124750137329,-3.7768499851226807,5,3
538,-8.715127944946289,0.4138540029525757,-0.9453740119934082,0.9226250052452089,-0.5607249736785889,-2.899737596511841,5,3
539,-7.3067097663879395,0.1413850039243698,-1.7139830589294434,0.7112874984741211,-0.4691500067710876,-2.164249897003174,5,3
540,-6.367975234985352,-0.2132239937782287,-2.4327280521392822,0.4877125024795532,-0.3628624975681305,-1.558287501335144,5,3
541,-5.465962886810303,-0.6450650095939636,-2.2330551147460938,0.2128500044345855,-0.3689124882221222,-1.0513249635696411,5,3
542,-4.961995124816895,-0.884660005569458,-1.3706610202789309,-0.0522499978542327,-0.5119125247001648,-0.6395124793052673,5,3
543,-5.209561824798584,-1.043761968612671,-0.0883940011262893,-0.1707749962806701,-0.669487476348877,-0.2436500042676925,5,3
544,-5.629157066345215,-0.9871569871902466,0.59135502576828,-0.1340624988079071,-0.7635374665260315,0.1618375033140182,5,3
545,-6.328326225280762,-1.0408530235290527,1.0297900438308716,-0.0192499998956918,-0.7232499718666077,0.5821750164031982,5,3
546,-7.274139881134033,-1.035773992538452,1.4092559814453125,0.1297999918460846,-0.6682500243186951,1.059849977493286,5,3
547,-7.953193187713623,-1.0183130502700806,1.2309540510177612,0.317900002002716,-0.6352499723434448,1.6292375326156616,5,3
548,-6.914844989776611,-1.29987895488739,0.0587269999086856,0.4632374942302704,-0.5827249884605408,2.2302498817443848,5,3
549,-5.10748291015625,-1.8125669956207275,-1.7249490022659302,0.4474250078201294,-0.3603875041007995,2.7359750270843506,5,3
550,-2.359431028366089,-2.436167001724243,-3.188415050506592,0.2446125000715255,0.0072874999605119,3.1196000576019287,5,3
551,0.2728070020675659,-2.742248058319092,-3.905220031738281,-0.152487501502037,0.5081999897956848,3.267549991607666,5,3
552,0.2106900066137313,-2.579011917114258,-3.015471935272217,-0.5824499726295471,1.0690624713897705,3.2405998706817627,5,3
553,-0.5701029896736145,-2.3963840007781982,-0.6024619936943054,-0.8780750036239624,1.29868745803833,3.2503623962402344,5,3
554,-1.3494750261306765,-1.854343056678772,1.783568024635315,-0.9514999985694884,0.9858750104904176,3.318837404251098,5,3
555,-1.1848269701004028,-1.889474987983704,2.584069967269897,-0.7754999995231628,0.4300999939441681,3.4128875732421875,5,3
556,0.513821005821228,-2.025578022003174,1.1631879806518557,-0.521399974822998,-0.0109999999403953,3.4544124603271484,5,3
557,3.650700092315674,-2.0850670337677,-0.9329630136489868,-0.4151124954223633,-0.0769999995827674,3.367650032043457,5,3
558,6.872341156005859,-1.739089012145996,-2.0923750400543213,-0.5409250259399414,0.2272875010967254,2.995024919509888,5,3
559,7.774240970611572,-1.298967957496643,-1.5982520580291748,-0.7376874685287476,0.7953000068664551,2.3255374431610107,5,3
560,5.887301921844482,-0.7327449917793274,0.7949339747428894,-0.8305000066757202,1.1093499660491943,1.6267625093460083,5,3
561,3.4549930095672607,-0.05536799877882,2.850123882293701,-0.6924499869346619,0.9028249979019164,1.157612442970276,5,3
562,1.6861350536346436,0.1375779956579208,3.508936882019043,-0.3723500072956085,0.4006749987602234,0.8925125002861023,5,3
563,0.8709530234336853,0.2763409912586212,2.338324069976806,-0.026537500321865,-0.0647625029087066,0.7690374851226807,5,3
564,0.9810609817504884,0.3958899974822998,0.8453689813613892,0.1542750000953674,-0.2175250053405761,0.7385125160217285,5,3
565,1.1641099452972412,0.4367780089378357,0.0381029993295669,0.1786125004291534,-0.0928125008940696,0.7104625105857849,5,3
566,1.723554015159607,0.2155259996652603,-0.1392509937286377,0.142037495970726,0.1233374997973442,0.644462525844574,5,3
567,1.9101200103759768,0.0550849996507167,0.007594000082463,0.1115124970674514,0.2431000024080276,0.5124624967575073,5,3
568,1.83815598487854,0.0893149971961975,0.0645510032773017,0.1016125008463859,0.2345750033855438,0.3280749917030334,5,3
569,1.4852080345153809,0.0400549992918968,-0.1009339988231659,0.0955625027418136,0.1991000026464462,0.1557874977588653,5,3
570,0.884443998336792,0.0207310002297163,-0.2151730060577392,0.0710875019431114,0.2113374918699264,0.0237875003367662,5,3
571,0.1442350000143051,0.1723069995641708,0.1365330070257187,0.0417999997735023,0.1868624985218048,-0.0470249988138675,5,3
572,-0.3620069921016693,0.3076960146427154,0.356451004743576,0.0467500016093254,0.0952875018119812,-0.0580249987542629,5,3
573,-0.6362749934196472,0.3736310005187988,0.5805420279502869,0.0698499977588653,-0.0232375003397464,-0.0397375002503395,5,3
574,-0.7706639766693115,0.4813759922981262,0.7395480275154114,0.1126125007867813,-0.0965249985456466,-0.0042624999769032,5,3
575,-0.7096359729766846,0.35486701130867,0.525439977645874,0.1750375032424926,-0.0805749967694282,0.0445500016212463,5,3
576,-0.5661249756813049,0.2269980013370514,-0.0476309992372989,0.2018499970436096,0.0207624994218349,0.0897874981164932,5,3
577,-0.05137500166893,0.0155579997226595,-0.5797290205955505,0.166374996304512,0.1710499972105026,0.130074992775917,5,3
578,0.4401220083236694,-0.1208849996328353,-0.6550390124320984,0.0723249986767768,0.2540999948978424,0.1155000030994415,5,3
579,0.5984960198402405,-0.1697749942541122,-0.3268550038337707,-0.022962499409914,0.2186249941587448,0.0409750007092952,5,3
580,0.330471009016037,-0.1631450057029724,0.1626520007848739,-0.0620125010609626,0.1135749965906143,-0.0420750007033348,5,3
581,-0.2064319998025894,0.0014789999695494,0.6929230093955994,-0.0474375002086162,-0.0085249999538064,-0.0995500013232231,5,3
582,-0.6635169982910156,0.1017640009522438,1.1310889720916748,0.0259875003248453,-0.1025749966502189,-0.1044999957084655,5,3
583,-0.8668019771575928,0.11370799690485,1.1439510583877563,0.1370874941349029,-0.1220999956130981,-0.0617375001311302,5,3
584,-0.8211960196495056,0.1439110040664672,0.6748549938201904,0.2396624982357025,-0.0782374963164329,-0.0030249999836087,5,3
585,-0.4860379993915558,0.0586640015244483,-0.2040040045976638,0.2739000022411346,0.0049499999731779,0.0494999997317791,5,3
586,0.1194249987602233,-0.1304740011692047,-0.8498560190200806,0.2128500044345855,0.1258125007152557,0.073974996805191,5,3
587,0.4182539880275726,-0.2078700065612793,-0.956160008907318,0.0943249985575676,0.2186249941587448,0.0482624992728233,5,3
588,0.351745992898941,-0.2529740035533905,-0.5888329744338989,-0.0167750008404254,0.1930499970912933,-0.0067374999634921,5,3
589,-0.0078059998340904,-0.1630129963159561,0.0391650013625621,-0.0717749968171119,0.0892374962568283,-0.0555500015616416,5,3
590,-0.2772350013256073,0.021331999450922,0.5531880259513855,-0.0644875019788742,-0.0598125010728836,-0.0922624990344047,5,3
591,-0.5130559802055359,0.0771209970116615,0.678542971611023,-0.0009624999947845,-0.1233374997973442,-0.1055999994277954,5,3
592,-0.7946959733963013,0.0953459963202476,0.4757860004901886,0.0820875018835067,-0.0732875019311904,-0.0787874981760978,5,3
593,-0.8555709719657898,0.138043999671936,0.0414620004594326,0.1310375034809112,0.0232375003397464,-0.0250249989330768,5,3
594,-0.8085010051727295,0.1048899963498115,-0.1618099957704544,0.1273249983787536,0.075762502849102,0.0372624993324279,5,3
595,-0.4461829960346222,-0.0171789992600679,-0.3982050120830536,0.0967999994754791,0.0855249986052513,0.0837375000119209,5,3
596,-0.1738699972629547,-0.0686680004000663,-0.5009670257568359,0.0540375001728534,0.0965249985456466,0.0935000032186508,5,3
597,-0.1439689993858337,-0.1326739937067031,-0.3783780038356781,0.0087999999523162,0.0904750004410743,0.0824999958276748,5,3
598,-0.292726993560791,-0.1660600006580352,-0.0731709972023963,-0.0167750008404254,0.0439999997615814,0.0763124972581863,5,3
599,-0.2578069865703583,-0.1620520055294037,-0.1061440035700798,-0.0107249999418854,-0.0012374999932944,0.0763124972581863,5,3
600,-0.1130980029702186,-0.0111029995605349,0.4231930077075958,-0.0217249989509582,-0.1050499975681305,-0.0237875003367662,6,3
601,-0.0004189999890513,-0.0363180004060268,0.149836003780365,0.0087999999523162,-0.0903374999761581,-0.0017874999903142,6,3
602,0.188739001750946,-0.0109360003843903,-0.1600970029830932,0.0039874999783933,-0.0378125011920928,0.0054999999701976,6,3
603,0.1409049928188324,0.0728129968047142,0.0139790000393986,-0.0277750007808208,0.0219999998807907,-0.0017874999903142,6,3
604,0.2292470037937164,-0.0082360003143548,0.2427629977464676,-0.0375375002622604,0.0574750006198883,-0.0090749999508261,6,3
605,0.0987339988350868,0.0341399982571601,0.4906730055809021,-0.0119624994695186,0.0732875019311904,-0.0347874984145164,6,3
606,-0.0958440005779266,0.0231619998812675,0.4833920001983642,0.0320375002920627,0.0477125011384487,-0.0482624992728233,6,3
607,-0.1806260049343109,0.0012430000351741,0.2397519946098327,0.0613249987363815,0.0049499999731779,-0.0420750007033348,6,3
608,-0.2369090020656585,0.0635560005903244,-0.0206920001655817,0.06751249730587,-0.0415249988436698,-0.0287375003099441,6,3
609,-0.1328220069408416,0.0294630005955696,-0.2515789866447449,0.0527999997138977,-0.0549999997019767,-0.0079749999567866,6,3
610,-0.1502240002155304,0.0427360013127327,-0.2175479978322982,0.0210375003516674,-0.0378125011920928,0.0006874999962747,6,3
611,-0.2555620074272156,0.0781470015645027,0.0287699997425079,0.0027499999850988,-0.0232375003397464,0.014024999924004,6,3
612,-0.1590870022773742,-0.0048050000332295,0.0828580036759376,0.0112749999389052,-0.0109999999403953,0.0324499979615211,6,3
613,-0.0615970008075237,-0.0364079996943473,-0.0463979989290237,0.0247499998658895,0.0219999998807907,0.0324499979615211,6,3
614,-0.1589100062847137,-0.0052709998562932,-0.1737380027770996,0.0247499998658895,0.058712501078844,0.0336874984204769,6,3
615,-0.1248089969158172,-0.0210389997810125,-0.2381789982318878,0.0112749999389052,0.0684750005602836,0.0470249988138675,6,3
616,-0.0098160002380609,-0.0605150014162063,-0.2509250044822693,-0.0057749999687075,0.0562375001609325,0.0555500015616416,6,3
617,-0.0017480000387877,-0.0468450002372264,-0.159621000289917,-0.0167750008404254,0.0427624993026256,0.0532125011086463,6,3
618,-0.0038320000749081,-0.0376950018107891,-0.0505240000784397,-0.0217249989509582,0.0280499998480081,0.0544499978423118,6,3
619,-0.0985789969563484,-0.0300600007176399,-0.0018919999711215,-0.0180124994367361,0.0122375003993511,0.0629749968647956,6,3
620,0.4638260006904602,-0.1402270048856735,-0.2416020035743713,-0.0119624994695186,-0.0109999999403953,0.0837375000119209,6,3
621,1.7290469408035278,-0.3062640130519867,-0.4231480062007904,-0.0497750006616115,0.0097624994814395,0.0299750007688999,6,3
622,3.507071018218994,-0.5958960056304932,-0.6214550137519836,-0.101062498986721,0.1185249984264373,-0.1398375034332275,6,3
623,5.67592716217041,-0.996533989906311,-0.7832379937171936,-0.1645874977111816,0.3041499853134155,-0.4648874998092651,6,3
624,6.002773761749268,-0.9361600279808044,-0.0030469999182969,-0.2391124963760376,0.3958624899387359,-0.9743250012397766,6,3
625,5.199409008026123,-0.6244869828224182,1.416159987449646,-0.2525874972343445,0.167337492108345,-1.5192375183105469,6,3
626,4.15342378616333,-0.5331739783287048,1.8832629919052124,-0.1610125005245208,-0.3323374986648559,-1.9687249660491943,6,3
627,5.726364135742188,-0.6603289842605591,1.484766960144043,-0.0217249989509582,-0.817300021648407,-2.363349914550781,6,3
628,7.317080020904541,-0.9776039719581604,0.50136798620224,0.063799999654293,-1.2436875104904177,-2.9217374324798584,6,3
629,7.43133020401001,-1.0032939910888672,0.3083460032939911,0.0808499976992607,-1.5283124446868896,-3.626562595367432,6,3
630,7.350417137145996,-1.345234990119934,-0.3798539936542511,0.091849997639656,-1.565024971961975,-4.287525177001953,6,3
631,3.5402491092681885,-1.1284550428390503,-0.6065160036087036,0.1163249984383583,-1.17645001411438,-4.847149848937988,6,3
632,-0.8750060200691223,-0.3980439901351928,0.4409630000591278,0.1590874940156936,-0.808775007724762,-5.025487422943115,6,3
633,-4.674589157104492,0.0167590007185935,1.4126490354537964,0.2153249979019165,-0.7697250247001648,-4.812912464141846,6,3
634,-6.406144142150879,0.1406980007886886,2.036227941513061,0.3386625051498413,-0.9211124777793884,-4.351049900054932,6,3
635,-5.6266608238220215,-0.2172369956970214,0.9642019867897034,0.4974749982357025,-1.3144999742507937,-3.802562475204468,6,3
636,-4.074277877807617,-0.6672220230102539,-0.8343440294265747,0.5732374787330627,-1.5405499935150146,-3.32488751411438,6,3
637,-2.9257121086120605,-0.8208780288696289,-2.507059097290039,0.4694249927997589,-1.525974988937378,-2.9375500679016118,6,3
638,-2.778947114944458,-0.786873996257782,-3.264012098312378,0.1860374957323074,-1.3451625108718872,-2.644399881362915,6,3
639,-3.4938459396362305,-0.7922419905662537,-2.6248319149017334,-0.1927749961614608,-1.1631125211715698,-2.412299871444702,6,3
640,-4.3323588371276855,-0.7085809707641602,-1.0455080270767212,-0.5348749756813049,-1.0971125364303589,-2.153249979019165,6,3
641,-5.451265811920166,-0.5901659727096558,0.1242600008845329,-0.7119749784469604,-0.9663500189781188,-1.7806249856948853,6,3
642,-6.591038227081299,-0.6781349778175354,1.238922953605652,-0.6972625255584717,-0.6951999664306641,-1.2552374601364136,6,3
643,-7.455473899841309,-0.7459779977798462,2.2267799377441406,-0.5299249887466431,-0.4361499845981598,-0.6249374747276306,6,3
644,-8.004284858703613,-0.6631410121917725,2.6712379455566406,-0.2513499855995178,-0.2723875045776367,0.0214499998837709,6,3
645,-8.441536903381348,-0.6142629981040955,2.829195022583008,0.0332750007510185,-0.2492875009775161,0.6689375042915344,6,3
646,-7.939365863800049,-1.1184120178222656,2.305295944213867,0.2470874935388565,-0.2723875045776367,1.3201375007629397,6,3
647,-7.20985221862793,-1.4475640058517456,1.353060960769653,0.3948999941349029,-0.1625249981880188,1.930912494659424,6,3
648,-6.798964023590088,-1.6843769550323486,0.5978289842605591,0.4864749908447265,0.1808124929666519,2.5271124839782715,6,3
649,-6.324825763702393,-2.034248113632202,0.2943809926509857,0.4901874959468841,0.6621999740600586,3.118499994277954,6,3
650,-6.745125770568848,-2.195574998855591,0.2374420017004013,0.4254249930381775,1.210687518119812,3.685275077819824,6,3
651,-6.64794397354126,-2.447016954421997,0.273593008518219,0.3191374838352203,1.651787519454956,4.221662521362305,6,3
652,-5.1842451095581055,-2.844881057739258,0.4246450066566467,0.1443749964237213,1.760550022125244,4.672387599945068,6,3
653,-2.816654920578003,-3.194232940673828,-0.1320880055427551,-0.0522499978542327,1.6248375177383425,4.971724987030029,6,3
654,0.871599018573761,-4.050478935241699,-1.2133070230484009,-0.216012492775917,1.5833125114440918,5.103724956512451,6,3
655,3.7392499446868896,-3.932949066162109,-1.722468018531799,-0.4334000051021576,1.568737506866455,4.895962238311768,6,3
656,4.50068998336792,-3.010951042175293,-1.4767359495162964,-0.6802124977111816,1.5063124895095823,4.437950134277344,6,3
657,4.190067768096924,-2.439517021179199,-0.1354890018701553,-0.8560749888420105,1.4049749374389648,3.946799993515015,6,3
658,3.269925117492676,-1.9950239658355715,2.353965997695923,-0.8305000066757202,1.144687533378601,3.5094125270843506,6,3
659,3.835669040679932,-1.5914690494537354,3.520555019378662,-0.5409250259399414,0.7244874835014343,3.146549940109253,6,3
660,5.538432121276856,-1.5403079986572266,2.579412937164306,-0.1670625060796737,0.3566749989986419,2.7128748893737797,6,3
661,6.716509819030762,-1.031201958656311,0.7256879806518555,0.0735625028610229,0.2590500116348266,2.1434874534606934,6,3
662,7.0160231590271,-0.5938779711723328,0.0454280003905296,0.1028499975800514,0.3151499927043915,1.515524983406067,6,3
663,5.820444107055664,-0.2326399981975555,0.8990910053253174,0.0820875018835067,0.2602874934673309,0.8998000025749207,6,3
664,4.079153060913086,0.1488309949636459,2.333759069442749,0.1750375032424926,-0.0782374963164329,0.395312488079071,6,3
665,2.4521279335021973,0.3583250045776367,2.691899061203003,0.392425000667572,-0.5449125170707703,0.0507375001907348,6,3
666,1.116657018661499,0.5562270283699036,1.9205509424209597,0.6539499759674072,-0.7647749781608582,-0.1105500012636184,6,3
667,0.3349170088768005,0.7900210022926331,0.6516389846801758,0.8225250244140625,-0.7207750082015991,-0.130074992775917,6,3
668,0.1569759994745254,0.750885009765625,-0.849943995475769,0.8468624949455261,-0.4984374940395355,-0.0715000033378601,6,3
669,0.1800599992275238,0.6552870273590088,-1.9860990047454836,0.733287513256073,-0.1698125004768371,0.0079749999567866,6,3
670,0.1678919941186905,0.602508008480072,-2.563160896301269,0.5256624817848206,0.1331000030040741,0.0947374999523162,6,3
671,0.6772860288619995,0.4318499863147735,-2.895979881286621,0.2739000022411346,0.3018124997615814,0.1607374995946884,6,3
672,1.3540489673614502,0.2842639982700348,-2.745615005493164,-0.007012499962002,0.3653374910354614,0.1375000029802322,6,3
673,1.3809549808502195,0.3123869895935058,-1.9332640171051023,-0.2391124963760376,0.3823874890804291,0.0262624993920326,6,3
674,0.6595029830932617,0.1632920056581497,-0.5452489852905273,-0.346637487411499,0.3481499850749969,-0.0835999995470047,6,3
675,-0.1411589980125427,0.2051340043544769,0.811057984828949,-0.3038749992847442,0.2223374992609024,-0.130074992775917,6,3
676,-0.7217559814453125,0.276760995388031,1.4562339782714844,-0.1328250020742416,0.0574750006198883,-0.1117874979972839,6,3
677,-0.8751829862594604,0.2620309889316559,1.4121479988098145,0.0797500014305114,-0.0585750006139278,-0.0433125011622905,6,3
678,-0.5699650049209595,0.1491560041904449,0.6427389979362488,0.2506625056266784,-0.0598125010728836,0.0409750007092952,6,3
679,0.0698539987206459,-0.0297619998455047,-0.6804640293121338,0.3130874931812286,0.0635249987244606,0.0885500013828277,6,3
680,0.481218010187149,-0.1031109988689422,-1.6624979972839355,0.2250874936580658,0.2565749883651733,0.0787874981760978,6,3
681,0.3088659942150116,-0.1486469954252243,-1.735545992851257,0.0455125011503696,0.3665750026702881,0.0567874982953071,6,3
682,-0.050330001860857,-0.2088219970464706,-1.1692800521850586,-0.1120624989271164,0.3249124884605407,0.0629749968647956,6,3
683,-0.1389659941196441,-0.0778129994869232,-0.4273200035095215,-0.1975875049829483,0.1575749963521957,0.0824999958276748,6,3
684,-0.1445720046758651,-0.038961999118328,0.2432219982147216,-0.2110625058412552,-0.0060499999672174,0.0947374999523162,6,3
685,-0.1345369964838028,-0.0323680005967617,0.8657979965209961,-0.1500124931335449,-0.0805749967694282,0.098312497138977,6,3
686,-0.0602380000054836,0.0074049998074769,1.0943080186843872,-0.0302499998360872,-0.075762502849102,0.1105500012636184,6,3
687,-0.1465580016374588,-0.0412550009787082,0.8371120095252991,0.0980374962091445,-0.015812499448657,0.1203124970197677,6,3
688,0.1205929964780807,-0.1076629981398582,0.1200070008635521,0.171324998140335,0.0390499979257583,0.141075000166893,6,3
689,0.6278359889984131,-0.1765010058879852,-0.5835239887237549,0.142037495970726,0.0842875018715858,0.1350249946117401,6,3
690,0.9588810205459596,-0.1777209937572479,-0.9176340103149414,0.0405624993145465,0.1319999992847442,0.0787874981760978,6,3
691,0.7890160083770752,-0.1304109990596771,-0.6277779936790466,-0.0705375000834465,0.1735250055789947,0.0104499999433755,6,3
692,0.4187250137329101,0.0150420004501938,0.1226280033588409,-0.1340624988079071,0.0977625027298927,-0.0457874983549118,6,3
693,0.0272579994052648,0.183471992611885,0.7508080005645752,-0.1207249984145164,-0.0427624993026256,-0.0848374962806701,6,3
694,-0.2712959945201874,0.226609006524086,1.0069010257720947,-0.0351999998092651,-0.1172875016927719,-0.0885500013828277,6,3
695,-0.5933160185813904,0.3150950074195862,0.925599992275238,0.0785124972462654,-0.1197625026106834,-0.0617375001311302,6,3
696,-0.7108500003814697,0.3202149868011474,0.2633289992809295,0.1615625023841858,-0.0622874982655048,-0.0054999999701976,6,3
697,-0.5382040143013,0.2419800013303756,-0.3927060067653656,0.1676124930381775,0.0390499979257583,0.0690250024199485,6,3
698,-0.0623309984803199,0.1204989999532699,-0.8020210266113281,0.1016125008463859,0.1135749965906143,0.1179749965667724,6,3
699,0.3256160020828247,-0.0330220013856887,-0.7513430118560791,0.0125124994665384,0.1417624950408935,0.1117874979972839,6,3
700,0.0392410010099411,-0.0863630026578903,-0.0693439990282058,-0.0155375003814697,-0.0049499999731779,0.0017874999903142,7,3
701,-0.0072039999067783,-0.0533949993550777,-0.130058005452156,-0.0192499998956918,0.0072874999605119,-0.0054999999701976,7,3
702,-0.1739799976348877,-0.0036259999033063,-6.60000005154e-05,-0.0254375003278255,0.0024749999865889,0.0006874999962747,7,3
703,-0.3323160111904144,-0.0124089997261762,0.2254540026187896,-0.0155375003814697,-0.0195249989628791,0.0152624994516372,7,3
704,-0.2339279949665069,-0.018758000805974,0.2358749955892563,0.0125124994665384,-0.0585750006139278,0.0397375002503395,7,3
705,-0.1274349987506866,-0.0533900000154972,0.0531550012528896,0.038087498396635,-0.0720499977469444,0.0494999997317791,7,3
706,-0.0614340007305145,-0.0452580004930496,-0.200773999094963,0.0417999997735023,-0.0635249987244606,0.0617375001311302,7,3
707,0.1079320013523101,-0.052505999803543,-0.4652830064296722,0.0112749999389052,-0.032999999821186,0.066550001502037,7,3
708,0.1761839985847473,-0.0343189984560012,-0.3914999961853027,-0.0364375002682209,-0.0060499999672174,0.0580249987542629,7,3
709,0.2056999951601028,-0.0073689999990165,-0.2203550040721893,-0.0754875019192695,-0.0134749999269843,0.0409750007092952,7,3
710,0.193011999130249,0.0083959996700286,0.0496039986610412,-0.0962499976158142,-0.0134749999269843,0.0127875003963708,7,3
711,0.0261710006743669,0.009527999907732,0.5183029770851135,-0.0815375000238418,0.0037124999798834,-0.0090749999508261,7,3
712,-0.1191869974136352,0.0833709985017776,0.5834929943084717,-0.0302499998360872,0.0147124994546175,-0.0054999999701976,7,3
713,-0.2585070133209228,0.019336000084877,0.6450369954109192,0.0222750008106231,0.0072874999605119,0.0054999999701976,7,3
714,-0.288908988237381,0.0198190007358789,0.3618659973144531,0.0772750005125999,-0.015812499448657,0.0434499979019165,7,3
715,0.050815999507904,0.0010310000507161,-0.0654150024056434,0.0980374962091445,-0.0207624994218349,0.0617375001311302,7,3
716,0.2571119964122772,0.037916999310255,-0.4078699946403503,0.0698499977588653,0.0037124999798834,0.0532125011086463,7,3
717,0.9781169891357422,-0.1398729979991912,-0.7513059973716736,0.0125124994665384,0.079475000500679,0.016499999910593,7,3
718,1.5657750368118286,-0.1543010026216507,-0.653768002986908,-0.077962502837181,0.2175250053405761,-0.0958374962210655,7,3
719,1.9637409448623655,-0.2372259944677353,-0.1449279934167862,-0.1317249983549118,0.3641000092029571,-0.2534124851226806,7,3
720,2.893346071243286,-0.2975890040397644,0.0762830004096031,-0.1512500047683715,0.3701499998569488,-0.4844124913215637,7,3
721,3.098805904388428,-0.3289690017700195,0.1273159980773925,-0.1512500047683715,0.3531000018119812,-0.8130375146865845,7,3
722,4.185916900634766,-0.3469370007514953,-0.2220849990844726,-0.1622499972581863,0.3823874890804291,-1.1673749685287476,7,3
723,7.397013187408447,-1.1651619672775269,-1.0795559883117676,-0.2257750034332275,0.6132500171661377,-1.624287486076355,7,3
724,10.34947395324707,-1.9242680072784424,-1.2489219903945925,-0.3381125032901764,0.8673499822616577,-2.351112604141236,7,3
725,11.576684951782228,-2.3197569847106934,-0.6466789841651917,-0.468874990940094,0.7917249798774719,-3.385937452316284,7,3
726,11.141817092895508,-3.3080899715423584,0.7297409772872925,-0.5079249739646912,0.3873375058174133,-4.448812484741211,7,3
727,7.327463150024414,-3.4037671089172363,3.026473999023437,-0.3283500075340271,-0.1588124930858612,-5.388350009918213,7,3
728,2.6616780757904053,-2.8341801166534424,4.229743003845215,0.0405624993145465,-0.8454874753952026,-5.932024955749512,7,3
729,-1.9232330322265625,-2.165601968765259,4.0031819343566895,0.4523749947547912,-1.459975004196167,-6.024837493896484,7,3
730,-6.766551971435547,-0.6443600058555603,3.261168956756592,0.7870500087738037,-1.722599983215332,-5.721787452697754,7,3
731,-10.25041389465332,0.5397430062294006,2.2616870403289795,0.9641500115394592,-1.622362494468689,-4.985199928283691,7,3
732,-12.798279762268066,1.0841269493103027,1.2062829732894895,1.0289125442504885,-1.211925029754639,-3.9258999824523926,7,3
733,-13.164316177368164,1.1416349411010742,0.0988319963216781,1.055862545967102,-0.6377249956130981,-2.691974878311157,7,3
734,-11.718632698059082,0.7945029735565186,-1.1406060457229614,0.9678624868392944,-0.1880999952554702,-1.515524983406067,7,3
735,-9.304101943969728,0.1643290072679519,-2.6294500827789307,0.733287513256073,0.0195249989628791,-0.5809375047683716,7,3
736,-5.842239856719971,-0.7702170014381409,-3.455648899078369,0.3948999941349029,0.0574750006198883,0.0787874981760978,7,3
737,-2.9164090156555176,-1.590796947479248,-3.9083120822906494,0.0015124999918043,-0.0342375002801418,0.4636499881744385,7,3
738,-1.260601043701172,-1.978935956954956,-3.9667539596557617,-0.3760625123977661,0.1002374961972236,0.5821750164031982,7,3
739,-1.3166110515594482,-1.9843839406967163,-2.306956052780152,-0.6667374968528748,0.3433375060558319,0.5772249698638916,7,3
740,-2.257474899291992,-1.7720890045166016,-0.0246970001608133,-0.7669749855995178,0.3665750026702881,0.605412483215332,7,3
741,-3.4855499267578125,-1.4562339782714844,1.676460027694702,-0.622737467288971,0.1478125005960464,0.7324625253677368,7,3
742,-4.593705177307129,-1.1574480533599854,2.344917058944702,-0.3271124958992004,-0.1820500046014785,0.9572749733924866,7,3
743,-6.109480857849121,-0.7997390031814575,2.344352960586548,-0.0217249989509582,-0.5264874696731567,1.2761374711990356,7,3
744,-7.360918998718262,-0.778465986251831,2.1483800411224365,0.2531374990940094,-0.9040625095367432,1.7428125143051147,7,3
745,-7.219837188720703,-1.000972032546997,1.0949389934539795,0.4523749947547912,-1.259637475013733,2.309725046157837,7,3
746,-6.017457962036133,-1.353065013885498,-0.7365589737892151,0.4987125098705292,-1.3842124938964844,2.831399917602539,7,3
747,-3.229032039642334,-1.9085760116577148,-3.5196681022644043,0.3154250085353851,-1.0653499364852903,3.2357873916625977,7,3
748,-1.6792500019073486,-2.241486072540283,-5.509550094604492,-0.104774996638298,-0.0585750006139278,3.48122501373291,7,3
749,-0.7199249863624573,-2.799633026123047,-4.229761123657227,-0.6472125053405762,0.9418749809265136,3.673037528991699,7,3
750,0.6414459943771362,-3.0373709201812744,-1.3985860347747805,-1.0808874368667605,1.3561625480651855,3.775749921798706,7,3
751,0.7960699796676636,-2.542258977890014,1.927517056465149,-1.1750749349594116,1.3231624364852903,3.7134625911712646,7,3
752,1.2025690078735352,-2.1690609455108643,4.139017105102539,-0.9305999875068665,0.8893499970436096,3.5509374141693115,7,3
753,2.062407970428467,-1.8786920309066768,4.126719951629639,-0.5103999972343445,0.3249124884605407,3.320075035095215,7,3
754,3.703990936279297,-1.6288859844207764,2.082387924194336,-0.1402499973773956,-0.0122375003993511,3.036550045013428,7,3
755,5.385807991027832,-1.437862992286682,0.1039709970355033,0.0087999999523162,0.0904750004410743,2.6749250888824463,7,3
756,6.393222808837891,-1.213603973388672,-0.5540419816970825,-0.0277750007808208,0.340862512588501,2.189962387084961,7,3
757,7.284566879272461,-0.9211549758911132,-0.575543999671936,-0.1317249983549118,0.520437479019165,1.6182374954223633,7,3
758,7.168857097625732,-0.658685028553009,-0.064749002456665,-0.2062499970197677,0.5876749753952026,0.9645624756813048,7,3
759,5.676948070526123,-0.2297929972410202,1.1709389686584473,-0.2220624983310699,0.4141499996185303,0.3243624866008758,7,3
760,3.10749888420105,0.1110929995775222,2.717884063720703,-0.1182499974966049,0.0427624993026256,-0.1508374959230423,7,3
761,0.6698219776153564,0.2630760073661804,3.8117189407348633,0.1578499972820282,-0.3139125108718872,-0.3316499888896942,7,3
762,-0.6708149909973145,0.3677819967269897,3.566559076309204,0.5317124724388123,-0.5924875140190125,-0.2620750069618225,7,3
763,-0.843559980392456,0.5733759999275208,1.9015510082244875,0.8140000104904175,-0.7097749710083008,-0.1105500012636184,7,3
764,-0.3713200092315674,0.4668650031089782,-0.1911330074071884,0.8920999765396118,-0.5339124798774719,0.0262624993920326,7,3
765,0.3358669877052307,0.1919209957122802,-1.754775047302246,0.7822374701499939,-0.1820500046014785,0.1447875052690506,7,3
766,1.3338489532470703,-0.0026509999297559,-2.929258108139038,0.5256624817848206,0.1440999954938888,0.2070749998092651,7,3
767,1.733610987663269,0.0913179963827133,-3.133126974105835,0.1750375032424926,0.3689124882221222,0.1595000028610229,7,3
768,1.7383630275726318,0.166481003165245,-2.2804861068725586,-0.1732500046491623,0.4629625082015991,0.0629749968647956,7,3
769,1.2974220514297483,0.0737849995493888,-0.7008659839630127,-0.3845874965190887,0.4716250002384186,-0.0384999997913837,7,3
770,0.4761199951171875,0.0614119991660118,1.1761430501937866,-0.3821125030517578,0.3896749913692474,-0.1203124970197677,7,3
771,-0.3185960054397583,0.1630380004644394,2.3801889419555664,-0.195250004529953,0.1942874938249588,-0.1337874978780746,7,3
772,-0.6803280115127563,0.0797000005841255,2.383047103881836,0.0882750004529953,-0.0182875003665685,-0.0885500013828277,7,3
773,-0.646248996257782,0.0513850003480911,1.481029987335205,0.3326124846935272,-0.1539999991655349,-0.014024999924004,7,3
774,-0.1160589978098869,-0.0895840004086494,0.1643829941749572,0.4437125027179718,-0.1930499970912933,0.0555500015616416,7,3
775,0.6252099871635437,-0.3226760029792785,-1.0717829465866089,0.4144249856472015,-0.1282874941825866,0.073974996805191,7,3
776,0.999171018600464,-0.3771319985389709,-1.879310965538025,0.2703250050544739,0.0109999999403953,0.0384999997913837,7,3
777,0.84511798620224,-0.2670379877090454,-1.8725709915161133,0.0613249987363815,0.1270499974489212,-0.0189750008285045,7,3
778,0.40659299492836,-0.2077140063047409,-0.9815880060195924,-0.1255374997854232,0.1539999991655349,-0.0530750006437301,7,3
779,-0.0970619991421699,-0.1967470049858093,0.0794830024242401,-0.1988250017166137,0.1405249983072281,-0.0482624992728233,7,3
780,-0.6396039724349976,-0.1496739983558654,1.0709739923477173,-0.145062506198883,0.1025749966502189,0.0017874999903142,7,3
781,-0.7691680192947388,-0.1691190004348755,1.3799400329589844,-0.0131999999284744,0.0060499999672174,0.0935000032186508,7,3
782,-0.4999180138111114,-0.2145179957151413,1.1281230449676514,0.1260875016450882,-0.0745249986648559,0.172837495803833,7,3
783,0.1079220026731491,-0.2662490010261535,0.320358008146286,0.2188999950885772,-0.0842875018715858,0.2217874974012375,7,3
784,0.7206439971923828,-0.2968299984931946,-0.4206559956073761,0.2275625020265579,-0.0244750007987022,0.2230249941349029,7,3
785,0.9344630241394044,-0.3011359870433807,-0.7263529896736145,0.1615625023841858,0.0159499999135732,0.1667875051498413,7,3
786,0.7581239938735962,-0.2376389950513839,-0.6796429753303528,0.0723249986767768,0.0159499999135732,0.0935000032186508,7,3
787,0.3952099978923797,-0.1437249928712844,-0.5388230085372925,0.0015124999918043,0.0268124993890523,0.042212501168251,7,3
788,0.0708729997277259,-0.0874930024147033,-0.1842660009860992,-0.0412499979138374,0.0402874983847141,0.0250249989330768,7,3
789,-0.2688579857349396,0.0364420004189014,0.237308993935585,-0.0474375002086162,0.0122375003993511,0.0384999997913837,7,3
790,-0.4053800106048584,0.0787179991602897,0.4943459928035736,-0.0057749999687075,-0.0354750007390975,0.0763124972581863,7,3
791,-0.3114269971847534,0.1404439955949783,0.4586940109729767,0.0613249987363815,-0.0635249987244606,0.1190750002861023,7,3
792,0.0528739988803863,0.0348669998347759,0.044148001819849,0.110275000333786,-0.0244750007987022,0.146025002002716,7,3
793,0.4599579870700836,-0.0689840018749237,-0.3920409977436065,0.1163249984383583,0.0574750006198883,0.1325500011444091,7,3
794,0.601527988910675,-0.1378870010375976,-0.6542959809303284,0.0710875019431114,0.1233374997973442,0.0824999958276748,7,3
795,0.4330390095710754,-0.1784760057926178,-0.668379008769989,0.0015124999918043,0.1465750038623809,0.0324499979615211,7,3
796,0.1493320018053054,-0.1273880004882812,-0.3353720009326935,-0.0582999996840953,0.1209999993443489,0.0006874999962747,7,3
797,-0.1385370045900344,-0.1326600015163421,0.0575499981641769,-0.0791999995708465,0.0402874983847141,-0.0090749999508261,7,3
798,-0.2405409961938858,-0.1200489997863769,0.1779749989509582,-0.0607750006020069,-0.0488125011324882,-0.0017874999903142,7,3
799,-0.2653839886188507,-0.0825299993157386,0.1497659981250763,-0.0339624993503093,-0.0805749967694282,0.0042624999769032,7,3
800,-0.3822939991950989,0.0056790001690387,0.304390013217926,-0.007012499962002,0.0134749999269843,-0.0189750008285045,8,3
801,-0.3215020000934601,-0.045414999127388,0.1858720034360885,0.0210375003516674,-0.0085249999538064,0.0127875003963708,8,3
802,-0.1858420073986053,-0.0310670007020235,0.1526899933815002,0.03575000166893,-0.0257124993950128,0.0360249988734722,8,3
803,0.0896729975938797,-0.0633039996027946,0.0518769994378089,0.0527999997138977,-0.0195249989628791,0.0445500016212463,8,3
804,0.1621930003166198,-0.0566979981958866,0.0267360005527734,0.063799999654293,0.0049499999731779,0.0274999998509883,8,3
805,0.2045290023088455,-0.0626130029559135,-0.2470690011978149,0.0625625029206276,0.0,0.0042624999769032,8,3
806,0.1726479977369308,-0.0707449987530708,-0.3785060048103332,0.03575000166893,0.0024749999865889,-0.014024999924004,8,3
807,-0.0633099973201751,0.0121090002357959,-0.3049860000610351,0.0002749999985098,0.0,-0.0250249989330768,8,3
808,-0.1538060009479522,0.0288619995117187,-0.1596270054578781,-0.0131999999284744,-0.0072874999605119,-0.0177375003695487,8,3
809,-0.2266270071268081,0.0629310011863708,-0.0890320017933845,-0.0155375003814697,-0.0232375003397464,-0.0054999999701976,8,3
810,-0.1903180032968521,0.1102830022573471,-0.060903001576662,-0.0107249999418854,-0.0232375003397464,0.0104499999433755,8,3
811,-0.0433310009539127,0.0546340011060237,0.0169040001928806,-0.007012499962002,0.0,0.0202124994248151,8,3
812,-0.0566690005362033,0.0532599985599517,0.181329995393753,0.0063249999657273,0.0159499999135732,0.0202124994248151,8,3
813,-0.0508649982511997,-0.0113469995558261,0.0828699991106987,0.0332750007510185,-0.0049499999731779,0.0202124994248151,8,3
814,0.1053410023450851,-0.0557219982147216,-0.3014819920063019,0.0369874984025955,-0.0109999999403953,0.0189750008285045,8,3
815,0.0962660014629364,-0.0161010008305311,-0.3637030124664306,0.0027499999850988,0.0219999998807907,0.0067374999634921,8,3
816,0.0277789998799562,-0.0851489976048469,-0.2718049883842468,-0.0339624993503093,0.061049997806549,0.0067374999634921,8,3
817,0.1034919992089271,-0.0876460000872612,-0.0932599976658821,-0.0582999996840953,0.0562375001609325,0.0054999999701976,8,3
818,0.1072070002555847,-0.022223999723792,0.0561419986188411,-0.0681999996304512,0.0488125011324882,-0.0103124994784593,8,3
819,0.3078550100326538,-0.0914589986205101,0.1178399994969368,-0.0595375001430511,0.079475000500679,-0.0262624993920326,8,3
820,0.3600879907608032,-0.1015620008111,0.1811410039663314,-0.0485375002026557,0.1430000066757202,-0.0567874982953071,8,3
821,1.2071239948272705,-0.2703559994697571,0.0577949993312358,-0.0364375002682209,0.2235749959945678,-0.1007874980568885,8,3
822,2.789486885070801,-0.3856779932975769,-0.6010609865188599,-0.0607750006020069,0.4166249930858612,-0.2534124851226806,8,3
823,4.494843006134033,-0.6464539766311646,-1.3149299621582031,-0.152487501502037,0.7562500238418579,-0.566224992275238,8,3
824,7.041687965393066,-1.0955979824066162,-1.8960089683532717,-0.3454000055789947,1.2046375274658203,-1.0403250455856323,8,3
825,8.154211044311523,-1.2669130563735962,-1.1092820167541504,-0.5409250259399414,1.6420249938964844,-1.734149932861328,8,3
826,7.983698844909668,-1.5160449743270874,0.9120090007781982,-0.634975016117096,1.7653625011444092,-2.5503499507904053,8,3
827,6.914675235748291,-1.7683860063552856,2.481571912765503,-0.5153499841690063,1.4355000257492063,-3.2686500549316406,8,3
828,6.912261962890625,-2.153214931488037,2.945570945739746,-0.2391124963760376,0.7195374965667725,-3.87461256980896,8,3
829,5.807785987854004,-1.982432961463928,2.305712938308716,0.0625625029206276,0.0500499978661537,-4.503812313079834,8,3
830,3.19877290725708,-1.681102991104126,0.886909008026123,0.2910875082015991,-0.2443374991416931,-4.966774940490723,8,3
831,-0.3729029893875122,-1.0291379690170288,-0.671019971370697,0.3997125029563904,-0.1258125007152557,-5.109775066375732,8,3
832,-3.147134065628052,-0.2623350024223327,-1.3965450525283811,0.3716624975204468,0.107524998486042,-4.903249740600586,8,3
833,-4.479556083679199,0.1308300048112869,-1.7378050088882446,0.2275625020265579,0.135574996471405,-4.461050033569336,8,3
834,-5.809717178344727,0.4199379980564117,-1.3548200130462646,0.0162249989807605,0.0097624994814395,-3.9906625747680655,8,3
835,-5.699794769287109,0.3507960140705108,-0.7124840021133423,-0.1500124931335449,-0.2040500044822693,-3.4482250213623047,8,3
836,-5.314200878143311,0.1149670034646987,-0.6534519791603088,-0.2183499932289123,-0.3506250083446502,-2.9082624912261963,8,3
837,-5.261508941650391,-0.0019020000472664,-0.9434469938278198,-0.2415875047445297,-0.3628624975681305,-2.429349899291992,8,3
838,-5.613555908203125,-0.2406820058822631,-0.6530799865722656,-0.2990624904632568,-0.3445749878883362,-1.967487454414368,8,3
839,-6.4365739822387695,-0.4620389938354492,0.2541860044002533,-0.3553000092506408,-0.4263874888420105,-1.487475037574768,8,3
840,-6.919923782348633,-0.6995300054550171,1.2040059566497805,-0.2855874896049499,-0.5387250185012817,-0.9486125111579896,8,3
841,-6.664041042327881,-0.9776139855384828,1.5836470127105713,-0.0889625027775764,-0.6402000188827515,-0.3964124917984009,8,3
842,-6.20816707611084,-1.111134052276611,1.051367998123169,0.134612500667572,-0.6682500243186951,0.0972125008702278,8,3
843,-6.015480995178223,-1.1658270359039309,0.2654480040073395,0.2861374914646148,-0.6010124683380127,0.5198875069618225,8,3
844,-5.954006195068359,-1.4472240209579468,-0.5326089859008789,0.3228499889373779,-0.46543750166893,0.9083250164985656,8,3
845,-6.622091770172119,-1.4543050527572632,-0.3709940016269684,0.2923249900341034,-0.3201000094413757,1.3201375007629397,8,3
846,-7.086023807525635,-1.4032039642333984,0.0951939970254898,0.2836624979972839,-0.2980999946594238,1.833150029182434,8,3
847,-7.515934944152832,-1.5817450284957886,0.4990200102329254,0.3141874969005584,-0.4593875110149383,2.380537509918213,8,3
848,-7.228954792022705,-1.9088040590286253,0.2483109980821609,0.3631374835968017,-0.808775007724762,2.9644999504089355,8,3
849,-5.145194053649902,-2.604857921600342,-1.5287740230560305,0.3338499963283539,-1.04458749294281,3.4959375858306885,8,3
850,-4.256403923034668,-2.701227903366089,-2.71121597290039,0.1640374958515167,-0.8355875015258789,3.888087511062622,8,3
851,-4.133961200714111,-2.836064100265503,-2.399822950363159,-0.0962499976158142,-0.4483875036239624,4.23018741607666,8,3
852,-3.934367895126343,-2.9573891162872314,-0.8688200116157532,-0.3478749990463257,-0.2308624982833862,4.539287567138672,8,3
853,-1.692522048950195,-3.1929941177368164,0.2706820070743561,-0.4321624934673309,-0.1918125003576278,4.8190999031066895,8,3
854,3.760601997375488,-3.5595059394836426,-1.9789979457855225,-0.4553999900817871,0.3518624901771545,4.833674907684326,8,3
855,6.978031158447266,-3.2187819480896,-2.25349497795105,-0.5946875214576721,1.4404499530792236,4.408524990081787,8,3
856,7.188101768493652,-2.506788969039917,-0.1851190030574798,-0.7816874980926514,2.063462495803833,3.736562490463257,8,3
857,6.295423984527588,-1.9444119930267332,2.7553870677948,-0.7497875094413757,1.7763625383377075,3.0549750328063965,8,3
858,4.765523910522461,-1.187620997428894,4.726747989654541,-0.4298250079154968,0.7037249803543091,2.416012525558472,8,3
859,3.1662299633026123,-0.56113201379776,4.990426063537598,0.0503249987959861,-0.5924875140190125,1.8893874883651731,8,3
860,4.35205602645874,-0.3957529962062835,2.992928028106689,0.4950000047683716,-1.373212456703186,1.5217125415802002,8,3
861,7.930448055267334,-0.3444429934024811,-0.3892000019550323,0.7027624845504761,-1.1178749799728394,1.033037543296814,8,3
862,8.754596710205078,-0.5845959782600403,-1.670712947845459,0.668524980545044,-0.1868624985218048,0.3316499888896942,8,3
863,5.691792964935303,0.16006900370121,-0.4223740100860595,0.4939000010490417,0.2516250014305115,-0.3573625087738037,8,3
864,2.3922390937805176,0.8833860158920288,0.7292850017547607,0.4169000089168548,0.0635249987244606,-0.7543249726295471,8,3
865,-0.5584589838981628,1.0161349773406982,1.4618929624557495,0.4499000012874603,-0.3603875041007995,-0.854562520980835,8,3
866,-2.0452980995178223,1.325103998184204,1.3227880001068115,0.5354250073432922,-0.7062000036239624,-0.688462495803833,8,3
867,-1.9330919981002808,1.346537947654724,0.2875120043754577,0.6111875176429749,-0.6634374856948853,-0.4001249969005584,8,3
868,-1.2891720533370972,1.1104029417037964,-0.8216379880905151,0.5867124795913696,-0.3053874969482422,-0.1313125044107437,8,3
869,-0.6342459917068481,0.8313779830932617,-1.3472729921340942,0.4609000086784363,0.107524998486042,0.0642125010490417,8,3
870,-0.2382189929485321,0.5043330192565918,-1.5573400259017944,0.3056625127792358,0.3628624975681305,0.1827374994754791,8,3
871,0.4525710046291351,0.2022729963064193,-1.853193044662476,0.139562502503395,0.4849624931812286,0.2375999987125396,8,3
872,1.0598139762878418,-0.1184479966759681,-1.7730239629745483,-0.0387750007212162,0.520437479019165,0.2180749922990799,8,3
873,1.6963640451431274,-0.4754430055618286,-1.416738986968994,-0.1964875012636184,0.4373874962329864,0.1337874978780746,8,3
874,1.4912530183792114,-0.2970719933509826,-0.6966779828071594,-0.2818749845027923,0.3518624901771545,-0.0274999998509883,8,3
875,0.963953971862793,-0.0295059997588396,0.7942579984664917,-0.2892999947071075,0.1368124932050705,-0.1643124967813491,8,3
876,0.3565270006656647,0.0046520000323653,1.207453966140747,-0.1744875013828277,-0.0965249985456466,-0.2693625092506408,8,3
877,-0.6622620224952698,0.1385570019483566,1.1322530508041382,0.010037500411272,-0.1563374996185302,-0.295074999332428,8,3
878,-1.3963409662246704,0.3746010065078735,0.6653860211372375,0.1493249982595443,-0.1148125007748603,-0.2083124965429306,8,3
879,-1.373587965965271,0.3394060134887695,-0.0708739981055259,0.2091374993324279,0.0,-0.0457874983549118,8,3
880,-0.6609969735145569,0.021136000752449,-1.0262730121612549,0.1871374994516372,0.183287501335144,0.1203124970197677,8,3
881,-0.207517996430397,-0.1649069935083389,-1.3239870071411133,0.0747999995946884,0.3359124958515167,0.2290749996900558,8,3
882,0.4710339903831482,-0.3280239999294281,-1.305997014045715,-0.0534874983131885,0.3273875117301941,0.292600005865097,8,3
883,1.0357929468154907,-0.389721006155014,-1.1132500171661377,-0.1744875013828277,0.215049996972084,0.2865499854087829,8,3
884,1.0604480504989624,-0.1963209956884384,-0.5944160223007202,-0.283112496137619,0.075762502849102,0.2058375030755996,8,3
885,0.9372450113296508,-0.0833339989185333,0.1582249999046325,-0.3356375098228454,0.0085249999538064,0.1215500012040138,8,3
886,0.5435240268707275,-0.0866099968552589,0.903742015361786,-0.2855874896049499,0.0159499999135732,0.0507375001907348,8,3
887,-0.1210569962859153,0.0010199999669566,1.2412240505218506,-0.1463000029325485,0.061049997806549,0.0177375003695487,8,3
888,-0.2480760067701339,0.045423999428749,1.1699830293655396,-0.0119624994695186,0.0562375001609325,0.0189750008285045,8,3
889,-0.2436919957399368,0.1080399975180625,0.6442509889602661,0.0710875019431114,0.0012374999932944,0.0152624994516372,8,3
890,-0.2245289981365203,0.115335002541542,-0.1181790009140968,0.1225124970078468,0.0134749999269843,0.0250249989330768,8,3
891,-0.0222890004515647,0.1091289967298507,-0.5509629845619202,0.1175625026226043,0.0672374963760376,0.0494999997317791,8,3
892,0.1157680004835128,0.1110469996929168,-0.3133459985256195,0.0577500015497207,0.0684750005602836,0.0519750006496906,8,3
893,0.2694329917430877,-0.0391459986567497,0.2493920028209686,0.010037500411272,-0.0500499978661537,0.0299750007688999,8,3
894,0.6347339749336243,-0.3127630054950714,0.3282470107078552,0.0162249989807605,-0.1868624985218048,-0.0287375003099441,8,3
895,0.5795040130615234,-0.2884269952774048,-0.0311789996922016,0.0332750007510185,-0.215049996972084,-0.1252624988555908,8,3
896,-0.0074450001120567,0.0741960033774375,-0.4494520127773285,0.0430375002324581,-0.0977625027298927,-0.1825999915599823,8,3
897,-0.4761430025100708,0.2825919985771179,-0.6971480250358582,0.0063249999657273,0.0439999997615814,-0.141075000166893,8,3
898,-0.5706850290298462,0.3222459852695465,-0.3600710034370422,-0.0644875019788742,0.1050499975681305,-0.0787874981760978,8,3
899,0.0365459993481636,-0.0499130003154277,0.2340610027313232,-0.0974875018000602,0.1197625026106834,-0.0310750007629394,8,3
900,0.3965699970722198,0.0074689998291432,0.3980590105056762,-0.0877249985933303,0.1123374998569488,-0.0054999999701976,9,3
901,0.1045989990234375,0.0554899983108043,0.7133439779281616,-0.0889625027775764,0.079475000500679,-0.0555500015616416,9,3
902,-0.2080010026693344,0.1220479980111122,0.746982991695404,-0.0387750007212162,0.0159499999135732,-0.0945999994874,9,3
903,-0.3370749950408935,0.090379998087883,0.3192340135574341,0.038087498396635,-0.0439999997615814,-0.1093124970793724,9,3
904,-0.5038689970970154,0.1535010039806366,-0.1301610022783279,0.1040875017642974,-0.0708125010132789,-0.0970750004053115,9,3
905,-0.3262769877910614,0.0986810028553009,-0.4258800148963928,0.1200374960899353,-0.0647625029087066,-0.0617375001311302,9,3
906,-0.0602530017495155,-0.0280799996107816,-0.6299780011177063,0.0882750004529953,-0.0525249987840652,-0.0103124994784593,9,3
907,0.2530589997768402,-0.1194769963622093,-0.5064030289649963,0.0320375002920627,0.0012374999932944,0.0214499998837709,9,3
908,0.2491330057382583,-0.1019370034337043,0.019073000177741,-0.0290124993771314,0.0915749967098236,0.0214499998837709,9,3
909,0.0360190011560916,-0.0882520005106926,0.4769609868526459,-0.076724998652935,0.1233374997973442,-0.0103124994784593,9,3
910,-0.2083539962768554,-0.033985000103712,0.7120400071144104,-0.0657249987125396,0.0892374962568283,-0.0445500016212463,9,3
911,-0.4562020003795624,0.04670400172472,0.5312870144844055,0.0002749999985098,0.0170499999076128,-0.0543125011026859,9,3
912,-0.5364440083503723,0.0927520021796226,-5.50000004295e-05,0.0808499976992607,-0.0805749967694282,-0.0384999997913837,9,3
913,-0.4776369929313659,0.0485350005328655,-0.3163520097732544,0.1248499974608421,-0.1331000030040741,0.0006874999962747,9,3
914,-0.0954060032963752,-0.0666569992899894,-0.4734489917755127,0.1150875017046928,-0.103812500834465,0.0532125011086463,9,3
915,0.2388309985399246,-0.1294520050287246,-0.4024290144443512,0.0747999995946884,-0.0317624993622303,0.0922624990344047,9,3
916,0.3012950122356415,-0.1711699962615966,-0.0711459964513778,0.0259875003248453,0.0488125011324882,0.0922624990344047,9,3
917,0.2467090040445327,-0.1637559980154037,0.0895920023322105,-0.004674999974668,0.079475000500679,0.0617375001311302,9,3
918,-0.035615000873804,-0.0835110023617744,0.0387520007789135,-0.002199999988079,0.0659999996423721,0.0202124994248151,9,3
919,-0.0966830030083656,-0.0183109994977712,-0.1521449983119964,0.0162249989807605,0.0598125010728836,-0.0054999999701976,9,3
920,0.275748997926712,-0.0757320001721382,-0.389164000749588,0.0125124994665384,0.0439999997615814,0.0006874999962747,9,3
921,1.2389060258865356,-0.1730999946594238,-0.5678730010986328,-0.0192499998956918,0.0598125010728836,0.0079749999567866,9,3
922,2.552797079086304,-0.3040870130062103,-0.5222880244255066,-0.0742499977350235,0.1392875015735626,-0.0287375003099441,9,3
923,3.0476560592651367,-0.310571014881134,0.0296069998294115,-0.147537499666214,0.282150000333786,-0.1801249980926513,9,3
924,2.647202968597412,-0.1700399965047836,0.8870220184326172,-0.195250004529953,0.4459125101566314,-0.4464625120162964,9,3
925,2.225790977478028,-0.0896729975938797,1.5456479787826538,-0.1817750036716461,0.5106750130653381,-0.7519875168800354,9,3
926,2.636281013488769,-0.2484689950942993,1.8635090589523315,-0.0937749966979026,0.4972000122070312,-1.0183249711990356,9,3
927,3.3528239727020264,-0.2333679944276809,0.5446850061416626,0.056512501090765,0.2688125073909759,-1.2639000415802002,9,3
928,4.941175937652588,-0.4877150058746338,-0.130511000752449,0.2373249977827072,0.0500499978661537,-1.5595250129699707,9,3
929,6.321434020996094,-0.8519570231437683,-0.6426590085029602,0.2641375064849853,-0.1845249980688095,-1.930912494659424,9,3
930,5.681549072265625,-1.0373510122299194,-0.1245260015130043,0.198137491941452,-0.4886749982833862,-2.45740008354187,9,3
931,3.9583311080932617,-0.7736690044403076,1.262645959854126,0.1627999991178512,-0.6634374856948853,-3.0720250606536865,9,3
932,1.8220449686050413,-0.659637987613678,1.9279240369796755,0.173799991607666,-1.022587537765503,-3.603462457656861,9,3
933,-0.7685359716415405,-0.3744120001792907,1.9248909950256348,0.2923249900341034,-1.4294500350952148,-3.9638500213623047,9,3
934,-2.465467929840088,-0.1189310029149055,1.0571630001068115,0.4742375016212463,-1.6981250047683716,-4.106712341308594,9,3
935,-2.862283945083618,-0.0586499981582164,-0.5307379961013794,0.6294749975204468,-1.7738875150680542,-3.985850095748901,9,3
936,-1.977614998817444,-0.3201630115509033,-2.3748650550842285,0.7039999961853027,-1.5295499563217163,-3.626562595367432,9,3
937,-1.58270001411438,-0.372622013092041,-3.354063034057617,0.6184750199317932,-1.0641125440597534,-3.179412364959717,9,3
938,-1.3349230289459229,-0.491250991821289,-2.9358251094818115,0.3471874892711639,-0.5607249736785889,-2.831262588500977,9,3
939,-2.099497079849243,-0.4498479962348938,-1.0525219440460205,-0.0400125011801719,-0.2565749883651733,-2.617449998855591,9,3
940,-3.2522380352020264,-0.4201090037822723,0.9733330011367798,-0.3931125104427337,-0.2613874971866607,-2.494112491607666,9,3
941,-4.071780204772949,-0.571403980255127,2.231642007827759,-0.5384500026702881,-0.4972000122070312,-2.330349922180176,9,3
942,-4.86834716796875,-0.6667280197143555,2.4424920082092285,-0.4431625008583069,-0.7709624767303467,-2.056725025177002,9,3
943,-5.551399230957031,-0.7462199926376343,1.8946609497070312,-0.1854874938726425,-0.8673499822616577,-1.7109124660491943,9,3
944,-5.602013111114502,-0.6936410069465637,0.8583809733390808,0.1005124971270561,-0.8185374736785889,-1.2724249362945557,9,3
945,-5.555902004241943,-0.6598939895629883,0.0900650024414062,0.2788499891757965,-0.6975374817848206,-0.7812749743461609,9,3
946,-5.78781795501709,-0.8464069962501526,-0.0983659997582435,0.3166624903678894,-0.4618625044822693,-0.3378374874591827,9,3
947,-5.725183963775635,-0.9804239869117736,-0.2780419886112213,0.2715624868869781,-0.2125750035047531,0.0580249987542629,9,3
948,-5.090072154998779,-1.262292981147766,-0.3060620129108429,0.2165624946355819,0.0195249989628791,0.469837486743927,9,3
949,-4.321915149688721,-1.5228660106658936,-0.1982280015945434,0.1700875014066696,0.2798124849796295,0.9083250164985656,9,3
950,-3.883738040924072,-1.6328760385513306,-0.1873500049114227,0.142037495970726,0.5167250037193298,1.3396625518798828,9,3
951,-3.929152011871338,-1.5620579719543457,-0.1851949989795684,0.1468500047922134,0.7049624919891357,1.7305749654769895,9,3
952,-4.648338794708252,-1.3037530183792114,0.2287430018186569,0.1370874941349029,0.8002499938011169,2.0922000408172607,9,3
953,-4.850352764129639,-1.39205002784729,0.6796389818191528,0.0698499977588653,0.7110124826431274,2.4598748683929443,9,3
954,-3.541361093521118,-1.8771450519561768,0.8501099944114685,0.0125124994665384,0.4263874888420105,2.9119749069213867,9,3
955,-2.152026891708374,-1.9072049856185915,0.7572429776191711,0.0075624999590218,0.1392875015735626,3.350600004196167,9,3
956,-1.0952800512313845,-1.8403990268707275,0.6542140245437622,0.0417999997735023,0.0598125010728836,3.630275011062622,9,3
957,0.7241929769515991,-1.897408962249756,-0.4230729937553406,0.0687500014901161,0.167337492108345,3.7732748985290527,9,3
958,2.358505964279175,-2.0411059856414795,-1.8778020143508911,0.0479874983429908,0.4556750059127807,3.822087526321411,9,3
959,3.803986072540283,-2.1192870140075684,-1.985779047012329,-0.0497750006616115,1.0751124620437622,3.745224952697754,9,3
960,4.671395778656006,-1.9526540040969849,-0.9933930039405824,-0.2465374916791916,1.7018375396728516,3.583937406539917,9,3
961,5.081758975982666,-1.4220410585403442,0.3872730135917663,-0.4431625008583069,1.915650010108948,3.32488751411438,9,3
962,5.452809810638428,-0.975928008556366,1.5228890180587769,-0.5238749980926514,1.5710749626159668,2.913212537765503,9,3
963,5.029423236846924,-0.4508489966392517,2.0148279666900635,-0.4676375091075897,0.8002499938011169,2.3878250122070312,9,3
964,5.049681186676025,-0.1915269941091537,1.5905870199203491,-0.3125374913215637,-0.0439999997615814,1.8233875036239624,9,3
965,6.298346996307373,-0.0991230010986328,0.350600004196167,-0.0852499976754188,-0.5143874883651733,1.3604249954223633,9,3
966,6.136748790740967,-0.0523080006241798,0.0838529989123344,0.0870374962687492,-0.3884375095367431,0.9315624833106996,9,3
967,4.951261043548584,0.2493679970502853,0.463575005531311,0.1761374920606613,0.0830499976873397,0.4318875074386596,9,3
968,2.831989049911499,0.6408669948577881,0.8913630247116089,0.1970375031232834,0.329862505197525,-0.0213124994188547,9,3
969,0.7147840261459351,0.9377449750900269,1.1937309503555298,0.2739000022411346,0.3469125032424927,-0.3158375024795532,9,3
970,-0.6243699789047241,1.2152899503707886,0.7848230004310608,0.3826625049114227,0.1185249984264373,-0.4244624972343445,9,3
971,-0.5231670141220093,1.0659979581832886,-0.1913840025663375,0.4596624970436096,-0.2528625130653381,-0.3524124920368194,9,3
