,acc_x,acc_y,acc_z,gyr_x,gyr_y,gyr_z,sample,label
0,0.0260540004819631,-0.0634049996733665,-0.3253650069236755,-0.0889625027775764,-0.0280499998480081,0.0071499999612569,0,4
1,0.1461150050163269,-0.0665040016174316,-0.210887998342514,-0.1256749927997589,-0.0219999998807907,0.0010999999940395,0,4
2,0.1327950060367584,-0.0936719998717308,-0.1370719969272613,-0.1476749926805496,-0.0012374999932944,-0.0148499999195337,0,4
3,0.0172620005905628,-0.0453980006277561,-0.1214520037174224,-0.1610125005245208,0.0255750007927417,-0.0270875003188848,0,4
4,-0.1472170054912567,0.091618999838829,-0.0683090016245842,-0.1817750036716461,0.0207624994218349,-0.0185624994337558,0,4
5,-0.2044820040464401,0.0642220005393028,-0.0419839993119239,-0.2001999914646148,0.0122375003993511,0.002199999988079,0,4
6,-0.2830049991607666,0.0642879977822303,0.1672269999980926,-0.2074874937534332,0.0024749999865889,0.0241999998688697,0,4
7,-0.3329089879989624,0.0585229992866516,0.4227299988269806,-0.191674992442131,-0.0232375003397464,0.0536249987781047,0,4
8,-0.330592006444931,0.0321139991283416,0.625823974609375,-0.1427250057458877,-0.0598125010728836,0.0829124972224235,0,4
9,-0.3848569989204407,-0.0050130002200603,0.7267799973487854,-0.0681999996304512,-0.1417624950408935,0.1146750003099441,0,4
10,-0.2181629985570907,-0.0436370000243186,0.5052260160446167,0.0111375004053115,-0.2358125001192093,0.1512500047683715,0,4
11,-0.0515539981424808,-0.0422919988632202,0.2542789876461029,0.055137500166893,-0.3286249935626983,0.1684374958276748,0,4
12,-0.044183000922203,0.0640970021486282,-0.038927000015974,0.0625625029206276,-0.40191251039505,0.1819124966859817,0,4
13,0.1603509932756424,0.0777250006794929,0.120167002081871,0.0270875003188848,-0.4313375055789947,0.195250004529953,0,4
14,0.2170740067958831,0.2461650073528289,0.5947579741477966,-0.004674999974668,-0.3860999941825866,0.1904374957084655,0,4
15,0.0064530000090599,0.3101209998130798,1.6657719612121582,0.0208999998867511,-0.2725250124931335,0.191674992442131,0,4
16,-0.2739560008049011,0.4314590096473694,3.064809083938598,0.1419000029563903,-0.2297624945640564,0.2062499970197677,0,4
17,-0.143654003739357,0.249891996383667,4.408711910247803,0.408237487077713,-0.2272875010967254,0.2527250051498413,0,4
18,0.4249500036239624,-0.0123539995402097,5.718846797943115,0.7968124747276306,-0.2748624980449676,0.2747249901294708,0,4
19,1.2342300415039062,-0.2416269928216934,6.364867210388184,1.29277503490448,-0.2932874858379364,0.2356749922037124,0,4
20,2.408642053604126,-0.5752390027046204,6.192637920379639,1.813212513923645,-0.2700499892234802,0.1231999993324279,0,4
21,4.254999160766602,-0.9762899875640868,5.566874980926514,2.2481250762939453,-0.2297624945640564,-0.1003749966621398,0,4
22,5.509579181671143,-1.131948947906494,4.909882068634033,2.584174871444702,-0.1527625024318695,-0.5132874846458435,0,4
23,4.547604084014893,-0.972337007522583,3.445004940032959,2.8357999324798584,-0.0134749999269843,-1.0092500448226929,0,4
24,2.5931060314178467,-0.853314995765686,2.3855059146881104,2.9628500938415527,0.107524998486042,-1.3330625295639038,0,4
25,0.7929109930992126,-0.5908380150794983,1.4073779582977295,2.9786624908447266,0.0952875018119812,-1.3965874910354614,0,4
26,-0.0473220013082027,-0.517100989818573,0.4051960110664367,2.946899890899658,0.0354750007390975,-1.2780624628067017,0,4
27,0.454908013343811,-0.5923349857330322,-0.3741750121116638,2.87003755569458,-0.0109999999403953,-1.143725037574768,0,4
28,2.0296308994293213,-0.7311859726905823,-0.7930489778518677,2.7637500762939453,-0.0269499998539686,-1.119249939918518,0,4
29,3.4233510494232178,-1.0466639995574951,-1.5944370031356812,2.670799970626831,0.0195249989628791,-1.297587513923645,0,4
30,3.746890068054199,-1.2125489711761477,-2.959197998046875,2.5511748790740967,0.1209999993443489,-1.6201624870300293,0,4
31,3.0894529819488525,-1.3863439559936523,-4.566105842590332,2.284837484359741,0.17586250603199,-1.921975016593933,0,4
32,2.002751111984253,-1.4173630475997925,-5.878246784210205,1.8535000085830688,0.1428624987602234,-2.0893125534057617,0,4
33,0.74481201171875,-1.4405640363693235,-6.751105785369873,1.350250005722046,0.1490499973297119,-2.125887393951416,0,4
34,-0.3236370086669922,-1.4819890260696411,-7.669933795928955,0.8016250133514404,0.2235749959945678,-2.0477874279022217,0,4
35,-1.101449966430664,-1.4970790147781372,-8.550539016723633,0.1834249943494796,0.4153875112533569,-1.8865000009536743,0,4
36,-0.6759840250015259,-1.6037989854812622,-8.893681526184082,-0.4873000085353851,0.6010124683380127,-1.6946874856948853,0,4
37,1.288790941238403,-1.5942399501800537,-7.7970452308654785,-1.1603624820709229,0.5411999821662903,-1.6421624422073364,0,4
38,2.407335042953491,-1.4944939613342283,-6.034811973571777,-1.6759874820709229,0.2846249938011169,-1.848687529563904,0,4
39,1.2433029413223269,-1.7889879941940308,-4.337441921234131,-1.9716124534606931,0.0549999997019767,-2.1698875427246094,0,4
40,-1.125918984413147,-1.8556749820709229,-2.9897379875183105,-2.1170876026153564,-0.0647625029087066,-2.283600091934204,0,4
41,-3.463534116744995,-1.7473880052566528,-2.740633964538574,-2.1939499378204346,-0.1222374960780143,-2.0990750789642334,0,4
42,-4.783662796020508,-1.4736089706420898,-2.349772930145264,-2.22694993019104,-0.1307625025510788,-1.709399938583374,0,4
43,-4.71106481552124,-1.3872079849243164,-2.8185079097747803,-2.267237424850464,-0.2308624982833862,-1.223062515258789,0,4
44,-3.761388063430786,-1.4908210039138794,-3.105196952819824,-2.423712491989136,-0.4496249854564667,-0.7271000146865845,0,4
45,-2.851327896118164,-1.5781949758529663,-3.310746908187866,-2.7095749378204346,-0.7697250247001648,-0.3056625127792358,0,4
46,-2.1914150714874268,-1.9840190410614011,-3.447581052780152,-3.01743745803833,-1.0298750400543213,0.0254375003278255,0,4
47,-1.9527850151062007,-2.417695999145508,-3.6197669506073,-3.3070125579833984,-1.193637490272522,0.2942500114440918,0,4
48,-1.913105010986328,-2.639241933822632,-3.0862390995025635,-3.5989248752593994,-1.364687442779541,0.5238749980926514,0,4
49,-2.698503017425537,-2.1757171154022217,-1.2642680406570437,-3.908025026321411,-1.7726500034332275,0.6888750195503235,0,4
50,-2.6797099113464355,-2.207298040390014,-0.6035760045051575,-4.075362682342529,-2.1672749519348145,0.905162513256073,0,4
51,-1.7898919582366943,-2.9193639755249023,0.3811750113964081,-4.084024906158447,-2.267512559890747,1.198312520980835,0,4
52,-1.4007899761199951,-2.8764889240264893,1.2784160375595093,-3.936212539672852,-2.188037395477295,1.473175048828125,0,4
53,-1.5221600532531738,-2.560610055923462,2.017091989517212,-3.677162408828736,-2.0304625034332275,1.69798743724823,0,4
54,-2.082698106765747,-2.007030963897705,2.3894689083099365,-3.3912999629974365,-1.954699993133545,1.9240374565124512,0,4
55,-2.031632900238037,-1.554664969444275,2.6589889526367188,-3.1152000427246094,-1.9962249994277956,2.196424961090088,0,4
56,-1.6990230083465576,-1.102431058883667,2.66635799407959,-2.8708624839782715,-2.084224939346313,2.418762445449829,0,4
57,-0.9517539739608764,-0.7584499716758728,2.434546947479248,-2.664337396621704,-2.070749998092652,2.5775749683380127,0,4
58,0.0642540007829666,-0.5317670106887817,3.181682109832764,-2.5165250301361084,-1.8863624334335327,2.6680500507354736,0,4
59,0.4772610068321228,0.0388889983296394,5.387808799743652,-2.3504250049591064,-1.6370749473571775,2.658287525177002,0,4
60,1.1522719860076904,0.4945749938488006,8.009195327758789,-1.9703749418258667,-1.2339249849319458,2.6032874584198,0,4
61,1.8463159799575808,0.6960819959640503,10.628119468688965,-1.311887502670288,-0.681725025177002,2.5055248737335205,0,4
62,1.7024940252304075,0.6968759894371033,11.494023323059082,-0.4140124917030334,-0.0598125010728836,2.406524896621704,0,4
63,3.116831064224243,0.1856929957866668,10.651396751403809,0.6183375120162964,0.5802500247955322,2.3674750328063965,0,4
64,4.967601776123047,-0.518966019153595,8.333688735961914,1.6153500080108645,1.0726374387741089,2.1511874198913574,0,4
65,5.862094879150391,-0.7829210162162781,5.193939208984375,2.29583740234375,1.280400037765503,1.7994624376296997,0,4
66,6.820048809051514,-0.6683440208435059,2.3116331100463867,2.4888875484466557,1.1423499584197998,1.456125020980835,0,4
67,7.168190002441406,-0.30172199010849,0.592943012714386,2.340937376022339,0.9223499894142152,1.0895500183105469,0,4
68,6.92241907119751,0.1824070066213607,0.3814780116081238,2.068549871444702,0.7965375185012817,0.699874997138977,0,4
69,6.10745906829834,0.5736590027809143,0.9925619959831238,1.8632625341415403,0.808775007724762,0.3382500112056732,0,4
70,4.747931957244873,0.7944920063018799,1.753432035446167,1.8082624673843384,0.9480624794960022,0.0926750004291534,0,4
71,3.405277967453003,0.9063050150871276,2.1041030883789062,1.8767374753952024,1.0921624898910522,0.002199999988079,0,4
72,2.7623438835144043,0.8347619771957397,1.3123420476913452,2.000075101852417,1.1826374530792236,0.0339624993503093,0,4
73,3.054619073867798,0.3537139892578125,-0.3031170070171356,2.046550035476685,1.2326874732971191,0.1011999994516372,0,4
74,4.052917003631592,-0.061999000608921,-1.835281014442444,1.932974934577942,1.227737545967102,0.1159124970436096,0,4
75,4.72096586227417,-0.1719059944152832,-2.834929943084717,1.708162546157837,1.184975028038025,0.0071499999612569,0,4
76,4.259696960449219,-0.1011169999837875,-2.91438102722168,1.4405875205993652,1.0946375131607056,-0.1931875050067901,0,4
77,3.2799079418182373,-0.001230000052601,-2.269547939300537,1.197487473487854,0.9003499746322632,-0.3617624938488006,0,4
78,2.310991048812866,-0.2423000037670135,-1.6766480207443235,1.0619125366210938,0.6560124754905701,-0.4217124879360199,0,4
79,1.614928960800171,-0.3323340117931366,-0.847108006477356,1.03496253490448,0.3371500074863434,-0.408237487077713,0,4
80,1.084293007850647,-0.1831690073013305,-0.913776993751526,1.088724970817566,0.0708125010132789,-0.3715249896049499,0,4
81,1.1893190145492554,-0.3196249902248382,-1.747380018234253,1.1424875259399414,0.0097624994814395,-0.2982375025749206,0,4
82,1.5429049730300903,-0.4583599865436554,-2.6986470222473145,1.071674942970276,0.0683375000953674,-0.2347124963998794,0,4
83,1.6179490089416504,-0.4330770075321197,-3.375328063964844,0.8786249756813049,0.22605000436306,-0.2054249942302703,0,4
84,1.490254044532776,-0.4915980100631714,-3.2302069664001465,0.6245250105857849,0.3909125030040741,-0.1896124929189682,0,4
85,1.2338919639587402,-0.6049469709396362,-2.803899049758911,0.3849999904632568,0.4459125101566314,-0.1651374995708465,0,4
86,1.0578190088272097,-0.6960499882698059,-2.2871499061584477,0.201712504029274,0.393387496471405,-0.1333750039339065,0,4
87,1.0499240159988403,-0.7095360159873962,-1.6649500131607056,0.0735625028610229,0.2052875012159347,-0.0941874980926513,0,4
88,1.2406129837036133,-0.7359499931335449,-1.161304950714111,0.0001374999992549,-0.0659999996423721,-0.0673749968409538,0,4
89,1.481199026107788,-0.7086989879608154,-0.95591801404953,-0.0351999998092651,-0.3005749881267547,-0.0771375000476837,0,4
90,1.6393680572509766,-0.5344070196151733,-0.4671970009803772,-0.0571999996900558,-0.4214375019073486,-0.1174250021576881,0,4
91,1.5020439624786377,-0.339493989944458,-0.2255800068378448,-0.0499125011265277,-0.3860999941825866,-0.1761374920606613,0,4
92,0.9858610033988952,-0.3089190125465393,0.0170489996671676,-0.0144375003874301,-0.2320999950170517,-0.2201374918222427,0,4
93,0.2968040108680725,-0.1424559950828552,0.2169719934463501,0.0160875003784894,-0.1270499974489212,-0.2201374918222427,0,4
94,-0.0766870006918907,-0.054211001843214,0.0660569965839386,0.0478499978780746,-0.075762502849102,-0.1516624987125396,0,4
95,0.2455340027809143,-0.2259009927511215,-0.4039260149002075,0.0503249987959861,-0.0525249987840652,-0.05884999781847,0,4
96,0.6306560039520264,-0.2756679952144623,-0.808601975440979,-0.0096249999478459,-0.0439999997615814,0.0010999999940395,0,4
97,1.3942309617996216,-0.2819440066814422,-0.3772250115871429,-0.216012492775917,-0.1185249984264373,-0.0295624993741512,0,4
98,1.1342899799346924,-0.219759002327919,0.1990499943494796,-0.258774995803833,-0.1942874938249588,-0.1186624988913536,0,4
99,0.727599024772644,-0.18019999563694,0.8386800289154053,-0.2404875010251999,-0.2370499968528747,-0.1834249943494796,0,4
100,-0.2527619898319244,-0.0993539988994598,-0.3470230102539062,-0.1464374959468841,0.015812499448657,0.022962499409914,1,4
101,-0.1142000034451484,-0.1274410039186477,-0.0833889991044998,-0.1707749962806701,0.0109999999403953,0.0351999998092651,1,4
102,-0.0713760033249855,-0.1197019964456558,0.2236369997262954,-0.1586750000715255,0.0012374999932944,0.0351999998092651,1,4
103,-0.0392410010099411,-0.0416329987347126,0.4056169986724853,-0.113437496125698,-0.0292875003069639,0.0303875003010034,1,4
104,0.0391339994966983,-0.0610020011663436,0.162099003791809,-0.0571999996900558,-0.017187500372529,0.0279124993830919,1,4
105,0.0717289969325065,-0.1233579963445663,-0.091389000415802,-0.031624998897314,0.0072874999605119,0.031624998897314,1,4
106,0.0358810015022754,-0.0781660005450248,-0.3259310126304626,-0.0474375002086162,-0.0061874999664723,0.0351999998092651,1,4
107,-0.0626230016350746,-0.0144029995426535,-0.149737000465393,-0.077962502837181,-0.0427624993026256,0.0426249988377094,1,4
108,-0.2139859944581985,0.0089769996702671,0.1391939967870712,-0.0829124972224235,-0.108762502670288,0.0571999996900558,1,4
109,-0.3547900021076202,0.0565019994974136,0.397830992937088,-0.0499125011265277,-0.1710499972105026,0.080437496304512,1,4
110,-0.4951269924640655,0.1026040017604827,0.4410000145435333,0.0075624999590218,-0.2211000025272369,0.1183874979615211,1,4
111,-0.356795996427536,0.1072660014033317,0.2997179925441742,0.0613249987363815,-0.2382874935865402,0.1684374958276748,1,4
112,-0.2466489970684051,0.1364469975233078,0.1982569992542266,0.088137499988079,-0.2345750033855438,0.2050125002861023,1,4
113,-0.012632000260055,0.0888300016522407,0.3850359916687011,0.0966624990105629,-0.22605000436306,0.2367749959230423,1,4
114,0.5802680253982544,0.1429509967565536,1.333340048789978,0.1126125007867813,-0.2077624946832656,0.2282499969005584,1,4
115,0.4763379991054535,0.1362289935350418,2.573896884918213,0.2444749921560287,-0.0904750004410743,0.1854874938726425,1,4
116,0.321476012468338,0.1095379963517189,4.0577569007873535,0.488812506198883,-0.0024749999865889,0.1402499973773956,1,4
117,-0.233937993645668,0.2163030058145523,5.313094139099121,0.8223875164985657,-0.0219999998807907,0.1183874979615211,1,4
118,-0.5118619799613953,0.1609169989824295,6.736248016357422,1.26829993724823,-0.1014750003814697,0.1891999989748001,1,4
119,0.8559849858283997,-0.3209939897060394,7.786030769348144,1.8339749574661253,-0.1722874939441681,0.2539624869823456,1,4
120,2.8893790245056152,-0.8587740063667297,7.283249855041504,2.4974124431610107,-0.0574750006198883,0.1757249981164932,1,4
121,5.357219219207764,-1.176203966140747,5.758430004119873,3.025137424468994,0.1905750036239624,-0.1321374922990799,1,4
122,6.183862209320068,-1.1613229513168335,3.679248094558716,3.335474967956543,0.5997750163078308,-0.6305750012397766,1,4
123,5.5599517822265625,-1.2352240085601809,2.6842041015625,3.456475019454956,0.9638749957084656,-1.1375374794006348,1,4
124,4.043291091918945,-1.053676962852478,2.4820380210876465,3.48933744430542,1.035925030708313,-1.5041124820709229,1,4
125,2.8716509342193604,-0.9476869702339172,2.2293429374694824,3.5773375034332275,0.970062494277954,-1.6763999462127686,1,4
126,1.851817011833191,-0.8864039778709412,0.9903969764709472,3.678812503814697,0.8588249683380127,-1.730162501335144,1,4
127,1.2749409675598145,-0.8006380200386047,-0.2901929914951324,3.706862449645996,0.6841999888420105,-1.712975025177002,1,4
128,1.3924200534820557,-0.8599349856376648,-2.3961780071258545,3.629862546920776,0.5302000045776367,-1.6654000282287598,1,4
129,1.8829100131988523,-1.1735520362854004,-4.843307018280029,3.3709499835968018,0.3689124882221222,-1.6286875009536743,1,4
130,2.7528939247131348,-1.2216860055923462,-6.531644821166992,2.872375011444092,0.0635249987244606,-1.6984000205993652,1,4
131,3.4268479347229004,-1.1681760549545288,-7.567033767700195,2.2323124408721924,-0.2725250124931335,-1.9427374601364136,1,4
132,2.6101529598236084,-1.290215015411377,-7.898197174072266,1.5846874713897705,-0.3873375058174133,-2.2481250762939453,1,4
133,0.4820500016212463,-1.480855941772461,-8.334824562072754,0.9506750106811525,-0.2932874858379364,-2.41065001487732,1,4
134,-1.5759869813919067,-1.6074069738388062,-9.48267936706543,0.2934249937534332,0.0659999996423721,-2.3018875122070312,1,4
135,-2.6681079864501958,-1.7060949802398682,-9.759906768798828,-0.4518249928951263,0.4606249928474426,-2.000075101852417,1,4
136,-2.409686088562012,-1.7516340017318726,-9.055602073669434,-1.216599941253662,0.5741999745368958,-1.6909749507904053,1,4
137,-1.4889370203018188,-1.9337799549102783,-8.450773239135742,-1.9166125059127808,0.3420999944210052,-1.468637466430664,1,4
138,-1.1970659494400024,-2.1360208988189697,-6.568230152130127,-2.539762496948242,-0.2028124928474426,-1.355062484741211,1,4
139,-1.0696680545806885,-2.301162004470825,-4.781521797180176,-2.9979124069213867,-0.8234875202178955,-1.2878249883651731,1,4
140,-0.6483250260353088,-3.110076904296875,-3.409498929977417,-3.2690625190734863,-1.1948750019073486,-1.1852500438690186,1,4
141,-0.7104700207710266,-3.465512990951538,-2.305569887161255,-3.4145374298095703,-1.502737522125244,-1.065487504005432,1,4
142,-1.1355730295181274,-3.3192789554595947,-1.7331550121307373,-3.441349983215332,-1.8423625230789185,-0.9226250052452089,1,4
143,-1.7340960502624512,-3.1182820796966557,-0.8598880171775818,-3.436537504196167,-2.373800039291382,-0.7588624954223633,1,4
144,-3.0199599266052246,-2.5131590366363525,0.0594800002872943,-3.453587532043457,-3.034762382507324,-0.554812490940094,1,4
145,-4.476545810699463,-2.3420300483703613,0.6293929815292358,-3.405874967575073,-3.3463375568389893,-0.1883749961853027,1,4
146,-5.973490238189697,-2.337048053741455,1.13754403591156,-3.258062601089477,-3.1972875595092773,0.3675374984741211,1,4
147,-6.701385974884033,-2.024055957794189,1.3240660429000854,-3.00038743019104,-2.8026623725891118,1.0675499439239502,1,4
148,-5.820974826812744,-1.615020990371704,0.4137809872627258,-2.7693874835968018,-2.487375020980835,1.7859874963760376,1,4
149,-4.432627201080322,-1.5228359699249268,-0.1067589968442916,-2.75962495803833,-2.397037506103516,2.3161873817443848,1,4
150,-3.876463890075684,-1.595790982246399,0.4758220016956329,-2.89520001411438,-2.397037506103516,2.650862455368042,1,4
151,-3.64949893951416,-1.8887749910354612,2.349195957183838,-2.907437562942505,-2.238224983215332,2.961199998855591,1,4
152,-2.472709894180298,-2.1683990955352783,4.570309162139893,-2.6716248989105225,-2.0268874168396,3.286249876022339,1,4
153,0.051656000316143,-2.4456980228424072,5.858148097991943,-2.189137458801269,-1.6798374652862549,3.5098249912261963,1,4
154,1.9050450325012207,-2.115973949432373,6.423810005187988,-1.5954124927520752,-1.0823999643325806,3.468299865722656,1,4
155,3.208638906478882,-1.341539978981018,5.952645778656006,-1.057787537574768,-0.3726249933242798,3.223962545394897,1,4
156,4.175990104675293,-0.9415839910507202,5.717483997344971,-0.6949250102043152,0.2028124928474426,2.887912511825561,1,4
157,3.8051350116729736,-0.8136900067329407,5.968280792236328,-0.4005374908447265,0.456912487745285,2.50923752784729,1,4
158,3.360603094100952,-0.995468020439148,6.163928031921387,-0.0181499999016523,0.3163875043392181,2.2123749256134038,1,4
159,2.902456045150757,-0.8741729855537415,5.505423069000244,0.3997125029563904,-0.1453374922275543,1.9630874395370483,1,4
160,3.7804360389709473,-0.4897539913654327,3.9748029708862314,0.7198125123977661,-0.6047250032424927,1.7517499923706057,1,4
161,5.572289943695068,-0.3335649967193603,1.8499499559402464,0.8701000213623047,-0.5326749682426453,1.473175048828125,1,4
162,6.855045795440674,-0.4451310038566589,0.1955229938030243,0.8383374810218811,0.1405249983072281,1.0737375020980835,1,4
163,6.733146190643311,0.0977559983730316,0.4836190044879913,0.6183375120162964,0.8540124893188477,0.5556374788284302,1,4
164,4.808626174926758,0.89444899559021,1.637279987335205,0.4449499845504761,1.3670250177383425,0.0987249985337257,1,4
165,3.269901990890503,0.7642650008201599,3.025408983230591,0.4877125024795532,1.6028374433517456,-0.1211374998092651,1,4
166,2.186816930770874,0.5123350024223328,3.4270830154418945,0.6892874836921692,1.473312497138977,-0.2041874974966049,1,4
167,1.7336900234222412,0.1616010069847107,2.7443130016326904,0.973912477493286,1.1093499660491943,-0.1786125004291534,1,4
168,2.3087730407714844,0.0256859995424747,1.3539149761199951,1.195012450218201,0.6254875063896179,-0.1126125007867813,1,4
169,2.713828086853028,0.1316390037536621,-0.3368409872055053,1.2707749605178833,0.3335750102996826,-0.1431374996900558,1,4
170,2.7386488914489746,0.1614959985017776,-2.004801988601685,1.1987249851226809,0.3176249861717224,-0.238425001502037,1,4
171,2.821661949157715,0.0600120015442371,-3.0211970806121826,0.973912477493286,0.4349125027656555,-0.3227125108242035,1,4
172,2.382848024368286,0.0064880000427365,-3.033355951309204,0.6708624958992004,0.5644375085830688,-0.4021874964237213,1,4
173,1.9484989643096924,-0.0037269999738782,-2.131256103515625,0.4289999902248382,0.6584874987602234,-0.4595249891281128,1,4
174,1.612684965133667,-0.1884890049695968,-1.302780032157898,0.3154250085353851,0.7170624732971191,-0.5095750093460083,1,4
175,1.0319080352783203,-0.3975270092487335,-0.7354900240898132,0.3079999983310699,0.7697250247001648,-0.5438125133514404,1,4
176,0.6762740015983582,-0.518775999546051,-0.3882899880409241,0.353237509727478,0.7598249912261963,-0.5328124761581421,1,4
177,0.244156002998352,-0.7282649874687195,-0.3740249872207641,0.4339500069618225,0.6743000149726868,-0.4754749834537506,1,4
178,0.0125439995899796,-0.8149740099906921,-0.6595110297203064,0.5035250186920166,0.4739624857902527,-0.3777124881744385,1,4
179,-0.0454760007560253,-0.7117319703102112,-1.0635089874267578,0.519474983215332,0.2223374992609024,-0.2739000022411346,1,4
180,0.3562799990177154,-0.8598819971084595,-1.723235011100769,0.4705249965190887,0.032999999821186,-0.1871374994516372,1,4
181,0.9892650246620178,-0.9918339848518372,-2.214097023010254,0.333712488412857,-0.0012374999932944,-0.1601874977350235,1,4
182,1.1955419778823853,-0.9923670291900636,-1.9715410470962524,0.1504250019788742,0.0952875018119812,-0.1944250017404556,1,4
183,1.1565580368041992,-0.9346179962158204,-1.2244499921798706,0.0038499999791383,0.1905750036239624,-0.2554749846458435,1,4
184,0.6086180210113525,-0.8051999807357788,-0.2571119964122772,-0.0657249987125396,0.215049996972084,-0.3202374875545501,1,4
185,0.071952998638153,-0.7262579798698425,0.4447459876537323,-0.048675000667572,0.1478125005960464,-0.3386625051498413,1,4
186,-0.2711000144481659,-0.732437014579773,0.7048490047454834,0.0208999998867511,0.0475750006735324,-0.3031874895095825,1,4
187,-0.5453720092773438,-0.7131109833717346,0.758538007736206,0.1138499975204467,-0.0635249987244606,-0.2237125039100647,1,4
188,-0.3810079991817474,-0.5990020036697388,0.3367260098457336,0.1944250017404556,-0.1870000064373016,-0.1186624988913536,1,4
189,-0.0679769963026046,-0.5447999835014343,-0.3292509913444519,0.2054249942302703,-0.2370499968528747,-0.0356125012040138,1,4
190,0.3900189995765686,-0.4645340144634247,-0.931762993335724,0.1333750039339065,-0.1710499972105026,0.0059124999679625,1,4
191,0.8450769782066345,-0.4193600118160248,-1.114819049835205,-0.0009624999947845,-0.0598125010728836,-0.0001374999992549,1,4
192,0.9548969864845276,-0.3127880096435547,-0.8407620191574097,-0.1451999992132187,0.0365750007331371,-0.055137500166893,1,4
193,0.7402499914169312,-0.2209720015525818,-0.1103219985961914,-0.2392500042915344,0.1197625026106834,-0.127187505364418,1,4
194,0.2632420063018799,-0.181888997554779,0.6971349716186523,-0.2490125000476837,0.1502874940633773,-0.1724250018596649,1,4
195,-0.2479470074176788,-0.1427430063486099,1.2985700368881226,-0.1634874939918518,0.1099999994039535,-0.1736624985933303,1,4
196,-0.5306419730186462,-0.118318997323513,1.4418790340423584,-0.0181499999016523,-0.0049499999731779,-0.134612500667572,1,4
197,-0.6834200024604797,-0.1335120052099228,1.015802025794983,0.1186624988913536,-0.1527625024318695,-0.0698499977588653,1,4
198,-0.5198320150375366,-0.1082839965820312,0.2983439862728119,0.1896124929189682,-0.2602874934673309,0.0131999999284744,1,4
199,-0.0872410014271736,-0.0849839970469474,-0.412551999092102,0.1724250018596649,-0.3078624904155731,0.0829124972224235,1,4
200,0.2261919975280761,0.0313990004360675,-0.0446619987487793,-0.0596750006079673,-0.0879999995231628,-0.0563750006258487,2,4
201,0.0314599983394146,-0.0128680001944303,-0.0656450018286705,-0.0644875019788742,-0.0928125008940696,-0.0833249986171722,2,4
202,-0.0989300012588501,0.0830819979310035,-0.1185190007090568,-0.0754875019192695,-0.032999999821186,-0.0856624990701675,2,4
203,-0.2001540064811706,0.1141479983925819,-0.066211000084877,-0.0962499976158142,0.0622874982655048,-0.0698499977588653,2,4
204,-0.3443619906902313,0.0623200014233589,0.1655019968748092,-0.1084875017404556,0.1343374997377395,-0.0428999997675418,2,4
205,-0.3309819996356964,0.0018510000081732,0.4117879867553711,-0.0939124971628189,0.1465750038623809,-0.0026124999858438,2,4
206,-0.2337819933891296,0.0017659999430179,0.6112040281295776,-0.0474375002086162,0.0977625027298927,0.0291499998420476,2,4
207,-0.0346780009567737,-0.0175090003758668,0.5359330177307129,0.0208999998867511,0.0244750007987022,0.0389125011861324,2,4
208,0.1849929988384246,-0.061439998447895,0.1699209958314895,0.0735625028610229,-0.0525249987840652,0.022962499409914,2,4
209,0.0862559974193573,-0.0119350003078579,-0.2956239879131317,0.0796125009655952,-0.0892374962568283,-0.0050874999724328,2,4
210,-0.104823999106884,0.0024520000442862,-0.5206220149993896,0.0331375002861022,-0.0904750004410743,-0.0111375004053115,2,4
211,-0.2105109989643097,0.0178919993340969,-0.4963020086288452,-0.031624998897314,-0.0598125010728836,0.0083875004202127,2,4
212,-0.3797709941864013,0.0371799990534782,-0.2855849862098694,-0.081675000488758,0.0170499999076128,0.0364375002682209,2,4
213,-0.6708620190620422,0.1114860028028488,0.2557139992713928,-0.1061500012874603,0.0452375002205371,0.077962502837181,2,4
214,-0.9766839742660522,0.1226140037178993,0.9929199814796448,-0.0719124972820282,0.0232375003397464,0.1464374959468841,2,4
215,-0.990692973136902,0.0832279995083808,1.7166719436645508,0.0503249987959861,-0.0292875003069639,0.2392500042915344,2,4
216,-0.5433459877967834,0.0508720017969608,2.305166006088257,0.2469500005245208,-0.0720499977469444,0.3199625015258789,2,4
217,0.1099689975380897,0.0356450006365776,2.5119640827178955,0.4839999973773956,-0.0635249987244606,0.3504875004291534,2,4
218,0.8167539834976196,-0.0433119982481002,2.8062469959259038,0.7038624882698059,0.0122375003993511,0.3040125072002411,2,4
219,0.9782260060310364,-0.0611959993839263,3.561645030975342,0.934862494468689,0.167337492108345,0.2197249978780746,2,4
220,1.597311019897461,0.0262770000845193,5.554315090179443,1.226775050163269,0.3225750029087066,0.113437496125698,2,4
221,1.256404995918274,0.0965680032968521,6.863354206085205,1.710637450218201,0.6169624924659729,-0.0246124994009733,2,4
222,2.092737913131714,-0.5569660067558289,7.720648765563965,2.3018875122070312,0.9113500118255616,-0.1431374996900558,2,4
223,2.495274066925049,-1.024865984916687,6.2398681640625,2.904137372970581,1.214400053024292,-0.278712511062622,2,4
224,2.6609020233154297,-1.338608980178833,3.7958829402923584,3.3379499912261963,1.543025016784668,-0.3911874890327453,2,4
225,3.941459894180298,-1.1048849821090698,1.881474018096924,3.461287498474121,1.6798374652862549,-0.5047624707221985,2,4
226,4.797994136810303,-0.7719539999961853,-0.1972350031137466,3.3965249061584477,1.8423625230789185,-0.729574978351593,2,4
227,4.309048175811768,-0.8743209838867188,-1.632694959640503,3.2230000495910645,2.128225088119507,-1.0301499366760254,2,4
228,4.259181022644043,-0.6057990193367004,-1.1068329811096191,2.9616124629974365,2.1855623722076416,-1.2744874954223633,2,4
229,3.76329493522644,-0.375883013010025,-0.4955309927463531,2.7990875244140625,2.1074624061584477,-1.5053499937057495,2,4
230,2.867511034011841,-0.7240750193595886,0.1865610033273697,2.7955124378204346,1.9461749792099,-1.7154500484466553,2,4
231,1.5070199966430664,-0.802649974822998,-0.3947469890117645,2.861375093460083,1.7115999460220337,-1.8620250225067136,2,4
232,-0.5499230027198792,-0.8219990134239197,-2.0492970943450928,2.8895623683929443,1.551550030708313,-1.8327374458312988,2,4
233,-1.902351975440979,-0.8850870132446289,-3.989979982376098,2.745325088500977,1.2704999446868896,-1.5981625318527222,2,4
234,-0.9714959859848022,-1.0030720233917236,-5.90826416015625,2.3568875789642334,0.7488250136375427,-1.3440624475479126,2,4
235,0.5314980149269104,-0.9328359961509703,-7.193999767303467,1.7582124471664429,0.135574996471405,-1.3135374784469604,2,4
236,1.0998929738998413,-1.0872520208358765,-8.027103424072266,1.080199956893921,-0.2492875009775161,-1.5065875053405762,2,4
237,0.8579180240631104,-1.630033016204834,-8.42006778717041,0.3727625012397766,-0.3115749955177307,-1.7374500036239624,2,4
238,-0.0138400001451373,-2.049436092376709,-8.446859359741211,-0.3272500038146972,-0.151525005698204,-1.8865000009536743,2,4
239,-1.312211990356445,-2.269850015640259,-7.917366027832031,-0.9637374877929688,-0.0097624994814395,-1.9450750350952148,2,4
240,-2.8219709396362305,-2.0862479209899902,-7.177416801452637,-1.5379375219345093,-0.2395250052213668,-1.9280250072479248,2,4
241,-3.1258060932159424,-2.462932109832764,-6.047900199890137,-2.043662548065185,-0.9713000059127808,-1.80097496509552,2,4
242,-2.015347003936768,-2.9762959480285645,-5.3176350593566895,-2.441999912261963,-2.009700059890747,-1.6654000282287598,2,4
243,-1.067613959312439,-3.279278039932251,-4.270744800567627,-2.7230498790740967,-3.0665249824523926,-1.5871624946594238,2,4
244,-2.209217071533203,-3.19795298576355,-3.2911200523376465,-2.931912422180176,-3.8667750358581534,-1.5199249982833862,2,4
245,-4.272101879119873,-3.358442068099976,-2.7276270389556885,-3.0687248706817627,-4.195399761199951,-1.27201247215271,2,4
246,-5.7647199630737305,-3.534218072891236,-2.0407330989837646,-3.1579625606536865,-4.07687520980835,-0.8053374886512756,2,4
247,-6.003330230712891,-3.127657890319824,-1.1373599767684937,-3.162775039672852,-3.731062412261963,-0.1919499933719635,2,4
248,-5.231994152069092,-2.53574800491333,-0.6197180151939392,-3.056487560272217,-3.558912515640259,0.4005374908447265,2,4
249,-4.26712703704834,-2.256340980529785,-1.8014830350875852,-2.926962375640869,-3.552725076675415,0.8819249868392944,2,4
250,-2.82737398147583,-2.528872013092041,-3.887708902359009,-3.0076749324798584,-3.6284875869750977,1.3021249771118164,2,4
251,-1.7586549520492554,-2.80116605758667,-4.471106052398682,-3.401062488555908,-3.672487497329712,1.5941749811172483,2,4
252,-1.8947219848632808,-2.833559989929199,-2.699321985244751,-3.8702125549316406,-3.551487445831299,1.7822749614715576,2,4
253,-2.0849449634552,-2.370574951171875,1.3851569890975952,-4.097362518310547,-3.211862564086914,1.9618500471115112,2,4
254,-2.3356471061706543,-1.6264270544052124,5.82428503036499,-3.8934500217437744,-2.5876123905181885,2.1170876026153564,2,4
255,-2.8351941108703613,-0.772508978843689,9.451199531555176,-3.2275373935699463,-1.6578375101089478,2.239187479019165,2,4
256,-3.616426944732666,-0.266288012266159,11.527932167053224,-2.26847505569458,-0.7562500238418579,2.389474868774414,2,4
257,-3.631908893585205,-0.2460609972476959,11.862009048461914,-1.205600023269653,-0.183287501335144,2.6191000938415527,2,4
258,-2.104259967803955,-0.3413969874382019,10.262003898620604,-0.1927749961614608,0.1648624986410141,2.863574981689453,2,4
259,0.0976089984178543,-0.6473090052604675,6.992855072021484,0.5805249810218811,0.4984374940395355,2.9906249046325684,2,4
260,3.74737000465393,-1.3113280534744265,3.5200119018554688,0.9421499967575072,0.6890124678611755,2.942912578582764,2,4
261,6.522750854492188,-1.5867120027542114,1.1382540464401243,0.9189124703407288,0.805062472820282,2.591049909591675,2,4
262,7.791888236999512,-1.0883640050888062,0.7485610246658325,0.668524980545044,0.8600624799728394,1.981374979019165,2,4
263,7.30082893371582,-0.131411001086235,1.9106329679489136,0.4241875112056732,0.9724000096321106,1.2655500173568726,2,4
264,5.264102935791016,0.4781759977340698,4.8698320388793945,0.416762501001358,1.1826374530792236,0.6791124939918518,2,4
265,2.8907599449157715,0.7837200164794922,6.940079212188721,0.7418124675750732,1.3182125091552734,0.3345375061035156,2,4
266,0.7221310138702393,0.8798320293426514,7.212441921234131,1.2792999744415283,1.4282125234603882,0.234437495470047,2,4
267,-0.2988539934158325,0.6435139775276184,5.50104284286499,1.7851624488830566,1.3670250177383425,0.3492499887943268,2,4
268,0.0704429969191551,0.3252640068531036,2.680182933807373,2.080787420272827,1.0775874853134155,0.5655375123023987,2,4
269,1.4510829448699951,0.3417580127716064,-0.0684669986367225,2.106362581253052,0.7170624732971191,0.7023500204086304,2,4
270,3.451467037200928,0.3123970031738281,-2.658263921737671,1.909737467765808,0.550962507724762,0.6619250178337097,2,4
271,5.529627799987793,0.1632899940013885,-4.088813781738281,1.5285874605178833,0.6743000149726868,0.4005374908447265,2,4
272,5.230888843536377,0.4709610044956207,-4.365313053131104,1.0594375133514404,1.0091124773025513,-0.0514249987900257,2,4
273,3.173845052719116,0.7407540082931519,-2.621875047683716,0.6782875061035156,1.3242624998092651,-0.4179999828338623,2,4
274,0.8877170085906982,0.6253640055656433,-0.9385690093040466,0.510812520980835,1.3462624549865725,-0.5413374900817871,2,4
275,-0.4134399890899658,0.3260850012302398,0.1612820029258728,0.5695250034332275,1.0971125364303589,-0.4607625007629394,2,4
276,-0.6644319891929626,0.2912859916687011,0.1718489974737167,0.7123875021934509,0.612012505531311,-0.2934249937534332,2,4
277,-0.0254040006548166,0.1439390033483505,-0.907379984855652,0.8236249685287476,0.2480500042438507,-0.1504250019788742,2,4
278,0.8132579922676086,-0.1657309979200363,-1.902693033218384,0.812624990940094,0.0915749967098236,-0.1028499975800514,2,4
279,1.1653319597244265,-0.2642250061035156,-2.66284704208374,0.6990500092506409,0.0745249986648559,-0.1369500011205673,2,4
280,1.0449910163879397,-0.3970659971237182,-3.1053900718688965,0.5182374715805054,0.0903374999761581,-0.1956624984741211,2,4
281,0.6417019963264465,-0.5653809905052185,-3.1397058963775635,0.2946625053882599,0.0745249986648559,-0.2371875047683715,2,4
282,0.2470580041408538,-0.6203640103340149,-2.443281888961792,0.0808499976992607,0.0122375003993511,-0.2421374917030334,2,4
283,-0.0100079998373985,-0.6389529705047607,-1.6617599725723269,-0.0547249987721443,-0.0085249999538064,-0.2261874973773956,2,4
284,-0.2755579948425293,-0.673740029335022,-1.0559250116348269,-0.1036750003695488,0.0842875018715858,-0.1871374994516372,2,4
285,-0.4630810022354126,-0.593038022518158,-0.4802620112895965,-0.1024374961853027,0.1648624986410141,-0.116187497973442,2,4
286,-0.4731119871139526,-0.4963929951190948,-0.2046650052070617,-0.0706750005483627,0.1428624987602234,-0.0306624993681907,2,4
287,-0.2272569984197616,-0.5134789943695068,-0.1713600009679794,-0.031624998897314,0.0207624994218349,0.0438624992966651,2,4
288,-0.0433310009539127,-0.4240429997444153,-0.2222799956798553,-0.0131999999284744,-0.1722874939441681,0.0841500014066696,2,4
289,0.1511230021715164,-0.4487070143222809,-0.3655450046062469,-0.0156750008463859,-0.3481499850749969,0.0963874980807304,2,4
290,0.682545006275177,-0.5329369902610779,-0.6313560009002686,-0.0389125011861324,-0.4105750024318695,0.080437496304512,2,4
291,1.069759964942932,-0.4478479921817779,-0.925255000591278,-0.0987249985337257,-0.2980999946594238,0.0120999999344348,2,4
292,1.0561360120773315,-0.4098019897937774,-0.8681399822235107,-0.1817750036716461,-0.0525249987840652,-0.0820875018835067,2,4
293,0.539035975933075,-0.3268559873104095,-0.3362480103969574,-0.2575374841690063,0.1502874940633773,-0.1614249944686889,2,4
294,-0.0940229967236518,-0.1750559955835342,0.4588199853897095,-0.2869625091552734,0.1808124929666519,-0.1919499933719635,2,4
295,-0.6513820290565491,-0.1385170072317123,1.2193870544433594,-0.2257750034332275,0.103812500834465,-0.1711875051259994,2,4
296,-0.8996120095252991,-0.1928700059652328,1.6490470170974731,-0.0829124972224235,-0.0500499978661537,-0.1076624989509582,2,4
297,-0.7628949880599976,-0.2253109961748123,1.3228269815444946,0.0906125009059906,-0.2187625020742416,-0.0368499979376792,2,4
298,-0.4431500136852264,-0.2175650000572204,0.5060139894485474,0.2054249942302703,-0.32133749127388,-0.0013749999925494,2,4
299,0.0106279999017715,-0.2261299937963485,-0.4419139921665191,0.2139499932527542,-0.3163875043392181,0.0071499999612569,2,4
300,0.2351980060338974,-0.0030169999226927,-0.7195259928703308,0.0173249989748001,-0.075762502849102,0.0206249989569187,3,4
301,0.3816890120506286,-0.0425890013575553,-0.837939977645874,-0.0621500015258789,-0.0512874983251094,0.0010999999940395,3,4
302,0.2806139886379242,-0.0330360010266304,-0.6467450261116028,-0.1476749926805496,-0.0182875003665685,-0.034375000745058,3,4
303,-0.014465999789536,0.0108449999243021,-0.4140230119228363,-0.2099625021219253,0.0134749999269843,-0.05884999781847,3,4
304,-0.2780590057373047,-0.0172310005873441,-0.0616220012307167,-0.2367749959230423,0.0475750006735324,-0.055137500166893,3,4
305,-0.5361469984054565,-0.0037909999955445,0.2894290089607239,-0.2222000062465667,0.053762499243021,-0.0295624993741512,3,4
306,-0.5831220149993896,-0.0295480005443096,0.4889909923076629,-0.1707749962806701,0.0024749999865889,0.0193875003606081,3,4
307,-0.5292620062828064,-0.10139100253582,0.3720299899578094,-0.0974875018000602,-0.079475000500679,0.0743874981999397,3,4
308,-0.3820619881153106,-0.1260319948196411,-0.0726910009980201,-0.0437249988317489,-0.1637624949216842,0.1219625025987625,3,4
309,-0.2902590036392212,-0.1707330048084259,-0.4515059888362884,-0.0474375002086162,-0.2345750033855438,0.1684374958276748,3,4
310,-0.2450080066919326,-0.161748006939888,-0.6892989873886108,-0.085387498140335,-0.2943874895572662,0.2099625021219253,3,4
311,-0.3424020111560821,-0.1483090072870254,-0.9063090085983276,-0.152487501502037,-0.3689124882221222,0.2404875010251999,3,4
312,-0.5526000261306763,-0.1611189991235733,-0.7923449873924255,-0.2441999912261963,-0.4838624894618988,0.2857249975204468,3,4
313,-0.770226001739502,-0.1862040013074875,-0.3182869851589203,-0.3187249898910522,-0.6364874839782715,0.3504875004291534,3,4
314,-1.044700026512146,-0.1308719962835312,0.8653020262718201,-0.3467749953269958,-0.8405374884605408,0.4188250005245209,3,4
315,-0.4756770133972168,0.0294809993356466,2.9740490913391118,-0.2539624869823456,-1.0971125364303589,0.4811125099658966,3,4
316,0.8475189805030823,0.1618240028619766,4.987449169158936,0.0307999998331069,-1.2181124687194824,0.4482499957084656,3,4
317,1.4225939512252808,0.073913998901844,6.140214920043945,0.5609999895095825,-0.9383000135421752,0.3102000057697296,3,4
318,1.7071969509124756,-0.081395998597145,6.68159294128418,1.152250051498413,-0.5974375009536743,0.1891999989748001,3,4
319,2.160693883895874,0.0366530008614063,6.071103096008301,1.664162516593933,-0.3873375058174133,0.048675000667572,3,4
320,2.6328940391540527,-0.2228920012712478,4.485645771026611,2.085599899291992,-0.1025749966502189,-0.088137499988079,3,4
321,3.079262018203736,-0.245945006608963,3.179210901260376,2.29583740234375,0.2040500044822693,-0.233474999666214,3,4
322,3.4484341144561768,0.0387400016188621,2.4252231121063232,2.3311750888824463,0.4849624931812286,-0.3825249969959259,3,4
323,3.5784010887146,0.1127490028738975,2.553942918777466,2.283600091934204,0.7195374965667725,-0.5730999708175659,3,4
324,3.72257399559021,0.0587350018322467,4.294981002807617,2.298175096511841,0.7977749705314636,-0.7893875241279602,3,4
325,3.8474159240722656,-0.2977379858493805,5.433850765228272,2.552412509918213,0.8185374736785889,-1.0117249488830566,3,4
326,3.474376916885376,-0.8434069752693176,4.925937175750732,3.0263750553131104,1.035925030708313,-1.2390124797821045,3,4
327,3.298564910888672,-1.2370450496673584,3.2623770236968994,3.460049867630005,1.2827374935150146,-1.3965874910354614,3,4
328,2.730057954788208,-1.2742550373077393,0.6216250061988831,3.681149959564209,1.5075500011444092,-1.4821125268936155,3,4
329,2.3382880687713623,-1.1796369552612305,-1.4395960569381714,3.65310001373291,1.5637874603271484,-1.5151125192642212,3,4
330,2.0225260257720947,-1.121222972869873,-3.351149082183838,3.461287498474121,1.5320249795913696,-1.534637451171875,3,4
331,2.500063896179199,-1.3862090110778809,-4.781714916229248,3.1521875858306885,1.5552624464035034,-1.5419249534606934,3,4
332,2.7344601154327397,-1.5038859844207764,-6.252795219421387,2.7099874019622803,1.530787467956543,-1.5896375179290771,3,4
333,2.6655728816986084,-1.2958650588989258,-7.169213771820068,2.1357874870300293,1.41349995136261,-1.699637532234192,3,4
334,2.5669939517974854,-1.0718729496002195,-7.338254928588867,1.4870624542236328,1.214400053024292,-1.891450047492981,3,4
335,1.2759050130844116,-0.9788900017738342,-7.555971145629883,0.8614374995231628,1.1386375427246094,-2.108837604522705,3,4
336,-0.6568009853363037,-1.2542710304260254,-7.524855136871338,0.2861374914646148,1.2094500064849854,-2.163837432861328,3,4
337,-2.006409883499145,-1.6459959745407104,-7.784914970397949,-0.2649624943733215,1.2912625074386597,-1.980549931526184,3,4
338,-2.4575929641723637,-1.918346047401428,-7.846746921539307,-0.8317375183105469,1.272974967956543,-1.6861624717712402,3,4
339,-1.1896460056304932,-2.310797929763794,-7.314458847045898,-1.4011249542236328,1.0604000091552734,-1.4491125345230105,3,4
340,0.2579919993877411,-2.596334934234619,-6.709662914276123,-1.9155124425888064,0.6316750049591064,-1.4075875282287598,3,4
341,0.106003001332283,-2.5016419887542725,-6.224582195281982,-2.334475040435791,0.1220999956130981,-1.4955874681472778,3,4
342,-0.3198609948158264,-2.536067008972168,-5.26649284362793,-2.699812412261963,-0.5889124870300293,-1.559112548828125,3,4
343,-1.9056129455566408,-2.483581066131592,-3.779642105102539,-3.0321500301361084,-1.5760250091552734,-1.55058753490448,3,4
344,-3.232027053833008,-2.6942009925842285,-2.820251941680908,-3.248300075531006,-2.5155625343322754,-1.3782999515533447,3,4
345,-3.6401290893554688,-3.328687906265259,-2.2406210899353027,-3.3130624294281006,-3.1618125438690186,-0.9836750030517578,3,4
346,-3.664638042449951,-3.631691932678223,-2.4098451137542725,-3.266587495803833,-3.50638747215271,-0.4790500104427337,3,4
347,-3.439220905303955,-3.3767940998077397,-3.46492600440979,-3.194537401199341,-3.529487371444702,0.0266750007867813,3,4
348,-3.371769905090332,-3.0157549381256104,-4.994534969329834,-3.27524995803833,-3.3804373741149902,0.4652999937534332,3,4
349,-3.584800958633423,-2.797616958618164,-6.09059476852417,-3.573349952697754,-3.139812469482422,0.8696874976158142,3,4
350,-2.927544116973877,-2.809886932373047,-6.1846442222595215,-4.038787364959717,-2.99076247215271,1.2471250295639038,3,4
351,-2.5198349952697754,-2.848839044570923,-4.597365856170654,-4.55317497253418,-3.056762456893921,1.5342249870300293,3,4
352,-2.429351091384888,-2.79115891456604,-1.766855001449585,-4.900087356567383,-3.222862482070923,1.7480374574661257,3,4
353,-2.3090569972991943,-2.42274808883667,2.6229310035705566,-4.920849800109863,-3.3255748748779297,1.9265124797821045,3,4
354,-2.0664520263671875,-1.3555690050125122,8.03444766998291,-4.490749835968018,-3.207050085067749,2.0498499870300293,3,4
355,-2.06500506401062,-0.206492006778717,12.201931953430176,-3.5403499603271484,-2.7659499645233154,2.09508752822876,3,4
356,-1.988353967666626,-0.0032009999267756,13.930251121520996,-2.2354750633239746,-2.021937370300293,2.093849897384644,3,4
357,-2.990731000900269,0.2018319964408874,13.42029857635498,-0.853737473487854,-1.1643500328063965,2.1634249687194824,3,4
358,-2.493349075317383,0.121918000280857,11.020017623901367,0.3324750065803528,-0.5094375014305115,2.4089999198913574,3,4
359,0.8933990001678467,-0.6490920186042786,7.16945219039917,1.1167750358581543,-0.1465750038623809,2.6032874584198,3,4
360,3.7180700302124015,-1.3986220359802246,3.2598910331726074,1.4565374851226809,0.2773374915122986,2.5030500888824463,3,4
361,5.931838035583496,-1.3096779584884644,1.3498300313949585,1.3612500429153442,0.6767749786376953,2.1768999099731445,3,4
362,6.759976863861084,-0.7210360169410706,0.5991250276565552,1.0117249488830566,1.089687466621399,1.6992249488830566,3,4
363,5.926161766052246,-0.1665530055761337,2.42808198928833,0.6868125200271606,1.5320249795913696,1.2020249366760254,3,4
364,4.530869007110596,0.2848579883575439,5.643683910369873,0.6037625074386597,1.5857875347137451,0.8109750151634216,3,4
365,2.97268295288086,0.5736160278320312,8.045782089233398,0.9164375066757202,1.3132624626159668,0.5508249998092651,3,4
366,2.004633903503418,0.6557049751281738,8.192680358886719,1.5090625286102295,0.9235875010490416,0.3993000090122223,3,4
367,1.7138530015945437,0.5887060165405273,6.140480995178223,2.1003124713897705,0.5974375009536743,0.3297249972820282,3,4
368,1.642645001411438,0.3514719903469085,3.059993028640747,2.461937427520752,0.3909125030040741,0.2991999983787536,3,4
369,2.077265977859497,0.0932200029492378,0.0024470000062137,2.5254623889923096,0.2798124849796295,0.2881999909877777,3,4
370,2.914825916290283,-0.1467379927635193,-2.4249870777130127,2.349600076675415,0.2663374841213226,0.2502500116825104,3,4
371,3.794318914413452,-0.1182269975543022,-4.054750919342041,1.996500015258789,0.3310999870300293,0.1011999994516372,3,4
372,3.7411179542541504,0.1000899970531463,-4.733701229095459,1.542062520980835,0.4776749908924103,-0.1614249944686889,3,4
373,2.640810012817383,0.2525320053100586,-4.057378768920898,1.1022000312805176,0.6829624772071838,-0.4070000052452087,3,4
374,1.013381004333496,0.2022300064563751,-2.6997320652008057,0.7796249985694885,0.7940624952316284,-0.5242875218391418,3,4
375,-0.1426869928836822,0.0485589988529682,-1.5604790449142456,0.6342874765396118,0.7488250136375427,-0.4864749908447265,3,4
376,-0.7380959987640381,-0.0635669976472854,-1.105533003807068,0.6220499873161316,0.5779125094413757,-0.3617624938488006,3,4
377,-0.7475519776344299,-0.2124370038509369,-1.321903944015503,0.6575250029563904,0.4031499922275543,-0.2114749997854232,3,4
378,-0.2433599978685379,-0.40276700258255,-1.8338119983673096,0.6598625183105469,0.2773374915122986,-0.084425002336502,3,4
379,0.3242650032043457,-0.5627269744873047,-2.3187689781188965,0.5975750088691711,0.2003374993801117,-0.0283249989151954,3,4
380,0.754925012588501,-0.6158999800682068,-2.741492986679077,0.480287492275238,0.1392875015735626,-0.0393249988555908,3,4
381,1.171481966972351,-0.6329460144042969,-2.896085023880005,0.3190000057220459,0.0415249988436698,-0.0979000031948089,3,4
382,1.0283759832382202,-0.5328390002250671,-2.8294780254364014,0.1394249945878982,-0.0562375001609325,-0.1859000027179718,3,4
383,0.4185520112514496,-0.4407089948654175,-2.182265043258667,-0.0241999998688697,-0.1270499974489212,-0.2554749846458435,3,4
384,-0.2955980002880096,-0.3555150032043457,-1.4597280025482178,-0.1304875016212463,-0.1380500048398971,-0.2604250013828277,3,4
385,-0.8859850168228149,-0.3111959993839264,-0.7802659869194031,-0.1561999917030334,-0.0219999998807907,-0.1859000027179718,3,4
386,-0.9908419847488404,-0.2598739862442016,-0.2876250147819519,-0.1269125044345855,0.1013374999165535,-0.062424998730421,3,4
387,-0.3395349979400635,-0.2414129972457885,-0.3419899940490722,-0.0829124972224235,0.1625249981880188,0.0449624992907047,3,4
388,0.2083380073308944,-0.2419870048761367,-0.6159650087356567,-0.0719124972820282,0.1868624985218048,0.0719124972820282,3,4
389,0.4932720065116882,-0.1817959994077682,-0.6699849963188171,-0.1097249984741211,0.1405249983072281,0.0438624992966651,3,4
390,0.5419939756393433,-0.1930550038814544,-0.4533909857273102,-0.1586750000715255,0.0145749999210238,0.0010999999940395,3,4
391,0.3939180076122284,-0.1558520048856735,-0.2022060006856918,-0.184249997138977,-0.1759999990463256,-0.0478499978780746,3,4
392,0.1515810042619705,-0.0401029996573925,0.038417998701334,-0.1806749999523162,-0.3335750102996826,-0.0856624990701675,3,4
393,0.0076290001161396,-0.0305499993264675,0.1777189970016479,-0.1659625023603439,-0.3896749913692474,-0.1016125008463859,3,4
394,-0.0052519999444484,0.0554220005869865,0.206163004040718,-0.1427250057458877,-0.3042874932289123,-0.1101374998688697,3,4
395,-0.0443370006978511,0.1174860000610351,0.258976012468338,-0.1159124970436096,-0.1282874941825866,-0.1101374998688697,3,4
396,-0.0123079996556043,0.1647710055112838,0.371845006942749,-0.0987249985337257,0.0182875003665685,-0.1076624989509582,3,4
397,-0.0359489992260932,0.1872279942035675,0.3477810025215149,-0.085387498140335,0.108762502670288,-0.1101374998688697,3,4
398,-0.1124050021171569,0.1395439952611923,0.3849830031394958,-0.080437496304512,0.1502874940633773,-0.1113749966025352,3,4
399,-0.1641909927129745,0.0100010000169277,0.398140013217926,-0.0754875019192695,0.1331000030040741,-0.0991374999284744,3,4
400,-0.2835620045661926,-0.0689549967646598,-0.3817059993743896,-0.152487501502037,0.0488125011324882,0.0193875003606081,4,4
401,-0.2457370012998581,-0.0978780016303062,-0.3440279960632324,-0.1806749999523162,0.0647625029087066,0.0499125011265277,4,4
402,-0.2573690116405487,-0.048650998622179,-0.1625310033559799,-0.2014375030994415,0.0500499978661537,0.077962502837181,4,4
403,-0.3403680026531219,-0.0753519982099533,0.0886939987540245,-0.2001999914646148,-0.0037124999798834,0.0999625027179718,4,4
404,-0.543254017829895,-0.0171070005744695,0.4696959853172302,-0.1610125005245208,-0.079475000500679,0.1304875016212463,4,4
405,-0.7491359710693359,0.0892869979143142,0.8554589748382568,-0.0901999995112419,-0.1979999989271164,0.1806749999523162,4,4
406,-0.6561220288276672,0.0068760002031922,0.8773549795150757,0.0208999998867511,-0.3238124847412109,0.2527250051498413,4,4
407,-0.1021239981055259,0.0213370006531476,0.708745002746582,0.1211374998092651,-0.4288625121116638,0.3102000057697296,4,4
408,0.4145790040493011,0.0825809985399246,0.2797630131244659,0.1748999953269958,-0.4336749911308288,0.3247750103473663,4,4
409,0.7241510152816772,0.2379619926214218,0.3161920011043548,0.1798499971628189,-0.32133749127388,0.2771999835968017,4,4
410,0.4889119863510132,0.4239549934864044,0.8736940026283264,0.1798499971628189,-0.1905750036239624,0.202674999833107,4,4
411,0.2786659896373749,0.3536649942398071,1.9303840398788448,0.2371875047683715,-0.1234750002622604,0.1586750000715255,4,4
412,-0.0506840012967586,0.2269739955663681,3.4986369609832764,0.4021874964237213,-0.151525005698204,0.1317249983549118,4,4
413,0.0492140017449855,0.1607429981231689,5.23395586013794,0.7343875169754028,-0.1735250055789947,0.1231999993324279,4,4
414,1.32177996635437,-0.190090999007225,6.119316101074219,1.2035374641418457,-0.0684750005602836,0.085387498140335,4,4
415,3.1379709243774414,-0.456629991531372,6.262453079223633,1.672687530517578,0.2283875048160553,-0.1016125008463859,4,4
416,3.805248022079468,-0.7482939958572388,5.7400431632995605,2.110074996948242,0.7525374889373779,-0.4375250041484833,4,4
417,3.3596410751342773,-0.8897680044174194,5.82004976272583,2.459462404251098,1.192399978637695,-0.7539125084877014,4,4
418,2.2611091136932373,-0.9096879959106444,5.812046051025391,2.808850049972534,1.390262484550476,-0.9579625129699708,4,4
419,1.1959019899368286,-1.2141560316085815,5.697238922119141,3.2059500217437744,1.3549250364303589,-1.000725030899048,4,4
420,1.4418309926986694,-1.2722610235214231,4.912014961242676,3.592050075531006,1.0176374912261963,-0.939674973487854,4,4
421,2.564982891082764,-1.2814229726791382,3.255500078201294,3.9071998596191406,0.6621999740600586,-0.951912522315979,4,4
422,3.226408004760742,-1.608031988143921,1.618224024772644,4.124724864959717,0.4336749911308288,-1.0862499475479126,4,4
423,4.217350006103516,-1.7923749685287476,0.6881399750709534,4.21382474899292,0.0928125008940696,-1.302537441253662,4,4
424,4.554442882537842,-1.7233710289001465,-0.0950020030140876,4.250537395477295,-0.340862512588501,-1.633637547492981,4,4
425,4.9161529541015625,-2.1524031162261963,-2.066135883331299,4.231012344360352,-0.6121500134468079,-2.0710248947143555,4,4
426,3.549034118652344,-2.386684894561768,-5.37565803527832,3.957249879837036,-0.6047250032424927,-2.4997498989105225,4,4
427,0.8822140097618103,-1.9447790384292605,-8.961387634277344,3.3269500732421875,-0.340862512588501,-2.708750009536743,4,4
428,-1.536679983139038,-1.6004029512405396,-11.178007125854492,2.3751749992370605,0.0292875003069639,-2.607275009155273,4,4
429,-3.1293089389801025,-1.7164839506149292,-11.824195861816406,1.2365374565124512,0.4226749837398529,-2.304362535476685,4,4
430,-3.340106010437012,-1.841402053833008,-11.053616523742676,0.1040875017642974,0.730537474155426,-1.9243124723434448,4,4
431,-1.6319019794464111,-2.172899007797241,-9.181591033935549,-0.8819249868392944,0.7684875130653381,-1.5908750295639038,4,4
432,-0.2938610017299652,-2.358805894851685,-7.793457984924316,-1.6307499408721924,0.5484874844551086,-1.468637466430664,4,4
433,0.215485006570816,-2.660245895385742,-6.179649829864502,-2.179374933242798,0.0097624994814395,-1.5199249982833862,4,4
434,0.0763429999351501,-2.742901086807251,-5.496147155761719,-2.581287384033203,-0.7623000144958496,-1.6116374731063845,4,4
435,0.3728480041027069,-3.346008062362671,-5.871178150177002,-2.9404375553131104,-1.525974988937378,-1.6604499816894531,4,4
436,-0.0536129996180534,-3.988004922866821,-6.100403785705566,-3.346062421798706,-2.20770001411438,-1.633637547492981,4,4
437,-1.7244110107421875,-4.242438793182373,-5.738992214202881,-3.740687370300293,-2.666949987411499,-1.4625874757766724,4,4
438,-4.267905235290527,-3.8996129035949703,-4.428789138793945,-4.08278751373291,-3.012762546539306,-1.119249939918518,4,4
439,-5.786436080932617,-3.4865849018096924,-2.5197079181671143,-4.350362300872803,-3.454962491989136,-0.5792874693870544,4,4
440,-6.400399208068848,-3.356981039047241,-1.09620201587677,-4.439462661743164,-3.7787749767303462,0.1194875016808509,4,4
441,-6.74891996383667,-3.2986159324646,-0.5161389708518982,-4.31983757019043,-3.729962587356568,0.853737473487854,4,4
442,-6.5649027824401855,-3.204758882522583,-0.6190530061721802,-4.148787498474121,-3.3780999183654785,1.5452250242233276,4,4
443,-5.613676071166992,-3.060113906860352,-0.94724702835083,-4.042500019073486,-2.800187587738037,2.1879000663757324,4,4
444,-4.035155773162842,-3.1268069744110107,-0.3267120122909546,-4.020500183105469,-2.1367499828338623,2.687575101852417,4,4
445,-2.400269031524658,-3.0445749759674072,1.532114028930664,-3.997262477874756,-1.6163125038146973,2.966150045394897,4,4
446,-1.0415070056915283,-2.974571943283081,4.502340793609619,-3.823737382888794,-1.2424499988555908,3.0797250270843506,4,4
447,0.3775660097599029,-2.474008083343506,7.885104179382324,-3.383874893188477,-0.9383000135421752,3.0479624271392822,4,4
448,1.1578470468521118,-1.7017320394515991,10.303194046020508,-2.6130499839782715,-0.5179625153541565,2.8708624839782715,4,4
449,0.7247779965400696,-1.2798000574111938,11.368657112121582,-1.631987452507019,-0.0024749999865889,2.688812494277954,4,4
450,0.2101610004901886,-1.269642949104309,11.216235160827637,-0.652162492275238,0.2590500116348266,2.631337404251098,4,4
451,0.4612630009651184,-1.44589102268219,9.662919044494627,0.1896124929189682,0.17586250603199,2.659524917602539,4,4
452,1.490329027175903,-1.8672460317611692,6.83939790725708,0.8003875017166138,0.0745249986648559,2.661862373352051,4,4
453,3.668823957443237,-1.949800968170166,3.6531128883361816,1.0997250080108645,0.2858625054359436,2.604525089263916,4,4
454,7.6561808586120605,-1.9034470319747925,0.8818089962005615,1.039912462234497,0.8270624876022339,2.363762378692627,4,4
455,10.271658897399902,-1.5623159408569336,-0.4122039973735809,0.681862473487854,1.5723124742507937,1.735937476158142,4,4
456,9.81165599822998,-0.9069629907608032,0.7800959944725037,0.270187497138977,2.2943248748779297,0.8329749703407288,4,4
457,6.959280967712402,-0.3742589950561523,4.433815002441406,0.0930875018239021,2.6229500770568848,0.0829124972224235,4,4
458,3.946789979934693,-0.1493649929761886,7.657495975494385,0.3409999907016754,2.4507999420166016,-0.3251875042915344,4,4
459,1.5324829816818235,-0.3122119903564453,9.158738136291504,0.995912492275238,1.993749976158142,-0.4130499958992004,4,4
460,0.4421530067920685,-0.3281329870223999,7.996623992919922,1.774162530899048,1.268162488937378,-0.2750000059604645,4,4
461,0.8462330102920532,-0.4624350070953369,4.559584140777588,2.3506999015808105,0.5081999897956848,-0.0600874982774257,4,4
462,2.0199899673461914,-0.6711869835853577,0.577826976776123,2.536462545394897,0.0378125011920928,0.0669625028967857,4,4
463,3.4890570640563965,-0.8445219993591309,-2.563525915145874,2.345887422561645,-0.0977625027298927,0.080437496304512,4,4
464,4.8602142333984375,-0.967628002166748,-4.607283115386963,1.874262452125549,-0.0049499999731779,-0.038087498396635,4,4
465,5.189279079437256,-0.8059260249137878,-5.198694229125977,1.2610124349594116,0.2503874897956848,-0.2824249863624573,4,4
466,4.153678894042969,-0.5414130091667175,-4.168642997741699,0.6905249953269958,0.5779125094413757,-0.5389999747276306,4,4
467,2.4908249378204346,-0.4222860038280487,-2.6327579021453857,0.3079999983310699,0.8380625247955322,-0.6793875098228455,4,4
468,0.7347090244293213,-0.4428170025348663,-1.1609779596328735,0.1333750039339065,0.927299976348877,-0.6708624958992004,4,4
469,-0.4926779866218567,-0.3582240045070648,0.0698070004582405,0.1174250021576881,0.7794874906539917,-0.5292375087738037,4,4
470,-0.6136639714241028,-0.5372220277786255,0.6359739899635315,0.2274249941110611,0.4617249965667724,-0.3031874895095825,4,4
471,-0.0246890000998973,-0.7060400247573853,0.4848000109195709,0.381424993276596,0.0965249985456466,-0.1126125007867813,4,4
472,0.9509239792823792,-0.7721400260925293,-0.076612003147602,0.5022875070571899,-0.2028124928474426,-0.0160875003784894,4,4
473,1.67848801612854,-0.9065399765968324,-0.7222930192947388,0.5524749755859375,-0.3591499924659729,-0.0306624993681907,4,4
474,2.0056939125061035,-1.0732430219650269,-1.301448941230774,0.5230500102043152,-0.4313375055789947,-0.1199000030755996,4,4
475,1.81807804107666,-1.0923149585723877,-2.119581937789917,0.4094749987125397,-0.3763374984264374,-0.2311374992132187,4,4
476,1.2101329565048218,-1.0394459962844849,-2.401118040084839,0.2188999950885772,-0.2125750035047531,-0.2934249937534332,4,4
477,0.4786829948425293,-0.9796159863471984,-1.9713799953460691,-0.0009624999947845,-0.0879999995231628,-0.2664749920368194,4,4
478,-0.0316580012440681,-0.8654919862747192,-1.2707380056381226,-0.1782000064849853,-0.0427624993026256,-0.1773750036954879,4,4
479,-0.1511189937591552,-0.7464780211448669,-0.3432550132274627,-0.2697750031948089,-0.0439999997615814,-0.05884999781847,4,4
480,-0.0481970012187957,-0.6313599944114685,0.3111740052700043,-0.2782999873161316,-0.0732875019311904,0.0511500015854835,4,4
481,0.3368569910526275,-0.6135950088500977,0.6469159722328186,-0.2197249978780746,-0.0782374963164329,0.1402499973773956,4,4
482,0.703253984451294,-0.5387309789657593,0.6288179755210876,-0.1489125043153762,-0.1172875016927719,0.1757249981164932,4,4
483,0.960215985774994,-0.5548719763755798,0.4777629971504211,-0.0951500013470649,-0.1967625021934509,0.1732500046491623,4,4
484,1.1512449979782104,-0.5572980046272278,0.2126040011644363,-0.0644875019788742,-0.2773374915122986,0.1342000067234039,4,4
485,1.3733370304107666,-0.4975929856300354,-0.0611689984798431,-0.0657249987125396,-0.2968625128269195,0.0743874981999397,4,4
486,1.4265650510787964,-0.393996000289917,-0.2337860018014907,-0.0974875018000602,-0.2345750033855438,-0.0098999999463558,4,4
487,1.088305950164795,-0.3128660023212433,-0.044939000159502,-0.1500124931335449,-0.1343374997377395,-0.0979000031948089,4,4
488,0.5578780174255371,-0.2431389987468719,0.2992370128631592,-0.1817750036716461,-0.0769999995827674,-0.1406625062227249,4,4
489,-0.0018309999722987,-0.1436759978532791,0.5068020224571228,-0.1732500046491623,-0.0367125011980533,-0.1223749965429306,4,4
490,-0.4188179969787597,-0.0315489992499351,0.6775360107421875,-0.1489125043153762,-0.0415249988436698,-0.062424998730421,4,4
491,-0.4929119944572449,0.0604560002684593,0.7346940040588379,-0.113437496125698,-0.0904750004410743,0.0144375003874301,4,4
492,-0.2577559947967529,0.0252250004559755,0.6375300288200378,-0.0754875019192695,-0.1563374996185302,0.085387498140335,4,4
493,0.3637399971485138,-0.0976779982447624,0.3902879953384399,-0.0559624992311,-0.1870000064373016,0.1244374960660934,4,4
494,0.8855019807815552,-0.1455859988927841,0.462796002626419,-0.0571999996900558,-0.1478125005960464,0.0974875018000602,4,4
495,0.937408983707428,-0.1630430072546005,0.527629017829895,-0.0389125011861324,-0.053762499243021,0.022962499409914,4,4
496,0.6928939819335938,-0.228192999958992,0.610289990901947,0.0001374999992549,0.0342375002801418,-0.0453750006854534,4,4
497,0.2704060077667236,-0.1611600071191787,0.6631039977073669,0.0405624993145465,0.0170499999076128,-0.0820875018835067,4,4
498,-0.0921320021152496,-0.1122329980134964,0.3824810087680816,0.0698499977588653,-0.0732875019311904,-0.0759000033140182,4,4
499,-0.1062000021338462,-0.0499959997832775,-0.0510619990527629,0.0636624991893768,-0.1380500048398971,-0.0416624993085861,4,4
500,-0.3038080036640167,0.0519799999892711,-0.1542370021343231,-0.0596750006079673,-0.0427624993026256,-0.0087999999523162,5,4
501,-0.3164989948272705,0.0493029989302158,-0.1706500053405761,-0.0719124972820282,-0.0097624994814395,0.0206249989569187,5,4
502,-0.0893250033259391,-0.0365279987454414,-0.0393919982016086,-0.0731500014662742,0.0500499978661537,0.048675000667572,5,4
503,0.0307340007275342,-0.0965579971671104,0.0127469999715685,-0.0621500015258789,0.0928125008940696,0.0559624992311,5,4
504,0.0439470000565052,-0.0823599994182586,0.0241749994456768,-0.0449624992907047,0.0782374963164329,0.0499125011265277,5,4
505,0.0774770006537437,-0.0907619968056678,-0.1790020018815994,-0.031624998897314,0.0390499979257583,0.0438624992966651,5,4
506,0.0109350001439452,-0.0783300027251243,-0.3038229942321777,-0.0389125011861324,-0.0049499999731779,0.0401500016450881,5,4
507,-0.0431770011782646,-0.035801000893116,-0.4123300015926361,-0.0596750006079673,-0.0512874983251094,0.0426249988377094,5,4
508,-0.1301539987325668,-0.0606199987232685,-0.5158609747886658,-0.0901999995112419,-0.0818125009536743,0.052387498319149,5,4
509,-0.3793199956417084,-0.0122279999777674,-0.4131050109863281,-0.1256749927997589,-0.1014750003814697,0.0756250023841857,5,4
510,-0.6927549839019775,0.1147219985723495,-0.0779799968004226,-0.1500124931335449,-0.1539999991655349,0.1194875016808509,5,4
511,-1.0698590278625488,0.1012080013751983,0.4023090004920959,-0.1379124969244003,-0.2492875009775161,0.1964875012636184,5,4
512,-1.2693150043487549,0.0200609993189573,0.9278600215911864,-0.0706750005483627,-0.4116750061511993,0.3040125072002411,5,4
513,-0.9142469763755798,0.0311019998043775,1.5760719776153564,0.0331375002861022,-0.6462500095367432,0.4200625121593475,5,4
514,0.5654469728469849,0.0330710001289844,2.202440023422241,0.1896124929189682,-0.7282000184059143,0.4835875034332275,5,4
515,2.5226969718933105,0.161080002784729,3.249983072280884,0.3887124955654144,-0.5399624705314636,0.3540624976158142,5,4
516,2.5896310806274414,0.1824419945478439,4.455560207366943,0.6635749936103821,-0.0989999994635582,0.0499125011265277,5,4
517,2.241447925567627,-0.3471739888191223,6.956779956817627,1.052150011062622,0.2198625057935714,-0.2188999950885772,5,4
518,0.5557640194892883,-0.6980950236320496,9.461553573608398,1.6691124439239502,0.2173874974250793,-0.3740000128746032,5,4
519,0.2512820065021515,-1.2702889442443848,10.28969669342041,2.527937412261963,-0.0477125011384487,-0.3605250120162964,5,4
520,1.6569490432739258,-1.4811749458312988,8.686898231506348,3.3697125911712646,-0.3946250081062317,-0.3507624864578247,5,4
521,4.022366046905518,-1.6900310516357422,5.567812919616699,3.969487428665161,-0.40191251039505,-0.5267624855041504,5,4
522,5.736043930053711,-1.628553032875061,2.11069393157959,4.218774795532227,-0.0708125010132789,-0.905437469482422,5,4
523,6.376755237579346,-1.3836669921875,0.0689530000090599,4.138062477111816,0.3909125030040741,-1.3415875434875488,5,4
524,5.671866893768311,-1.3987929821014404,-2.2001519203186035,3.855912446975708,0.7940624952316284,-1.7692124843597412,5,4
525,3.875179052352905,-1.0613110065460205,-2.9381699562072754,3.502812385559082,1.120350003242493,-2.0600249767303467,5,4
526,1.908435940742493,-0.4474329948425293,-3.119673013687134,3.119187593460083,1.0604000091552734,-2.1405999660491943,5,4
527,1.5680299997329712,-0.4151079952716827,-3.4376909732818604,2.707512378692627,0.6682500243186951,-2.091787576675415,5,4
528,2.0897910594940186,-0.3602440059185028,-4.134504795074463,2.288412570953369,0.3151499927043915,-2.09660005569458,5,4
529,1.38817298412323,-0.2178159952163696,-5.454935073852539,1.8694499731063845,0.2943874895572662,-2.1735999584198,5,4
530,0.3237890005111694,-0.3657839894294739,-6.951183795928955,1.3452999591827393,0.5021499991416931,-2.176074981689453,5,4
531,-0.5049239993095398,-0.6451900005340576,-8.166524887084961,0.6745749711990356,0.7708249688148499,-2.0404999256134038,5,4
532,-0.7189810276031494,-0.9103670120239258,-8.661613464355469,-0.0437249988317489,0.9565874934196472,-1.8645000457763672,5,4
533,-0.4323450028896332,-1.174599051475525,-8.487014770507812,-0.735212504863739,0.9748749732971193,-1.7509249448776243,5,4
534,-0.1867620050907135,-1.525696039199829,-8.16143798828125,-1.3681249618530271,0.7379624843597412,-1.7069250345230105,5,4
535,-0.6137549877166748,-2.009614944458008,-7.752906799316406,-1.9252749681472776,0.2480500042438507,-1.678874969482422,5,4
536,-1.1405190229415894,-2.3473949432373047,-6.907619953155518,-2.4151875972747803,-0.4251500070095062,-1.5981625318527222,5,4
537,-2.01842999458313,-2.3730580806732178,-6.843897819519043,-2.825624942779541,-1.1031625270843506,-1.468637466430664,5,4
538,-2.5239150524139404,-2.863513946533203,-6.713301181793213,-3.1994874477386475,-1.6627874374389648,-1.231724977493286,5,4
539,-3.148566961288452,-3.306679010391236,-6.374759197235107,-3.572112560272217,-2.199037551879883,-0.9164375066757202,5,4
540,-4.148334980010986,-3.4314959049224854,-5.434622764587402,-3.917787551879883,-2.7439498901367188,-0.5572875142097473,5,4
541,-4.7109150886535645,-3.6227290630340576,-4.858662128448486,-4.217124938964844,-3.2631499767303467,-0.1040875017642974,5,4
542,-5.072981834411621,-4.0306010246276855,-4.47301721572876,-4.451700210571289,-3.4769625663757324,0.4188250005245209,5,4
543,-4.930930137634277,-4.474149227142334,-3.827754020690918,-4.599512577056885,-3.3804373741149902,0.9674500226974488,5,4
544,-4.849696159362793,-4.437243938446045,-3.2030320167541504,-4.697275161743164,-3.115337371826172,1.4658875465393066,5,4
545,-4.759288787841797,-4.1932477951049805,-2.299004077911377,-4.755987644195557,-2.725662469863892,1.9093250036239624,5,4
546,-4.293266773223877,-3.643289089202881,-0.8779249787330627,-4.787749767303467,-2.349324941635132,2.2563750743865967,5,4
547,-4.158782005310059,-2.8349769115448,1.6254949569702148,-4.721749782562256,-2.023175001144409,2.507999897003174,5,4
548,-4.076551914215088,-2.129844903945923,5.677568912506104,-4.445650100708008,-1.795887470245361,2.714524984359741,5,4
549,-3.598865032196045,-1.2555190324783323,10.547344207763672,-3.8737874031066895,-1.7641249895095823,2.834150075912476,5,4
550,-3.028028964996338,-0.6545100212097168,14.364383697509766,-2.8451499938964844,-1.5918375253677368,2.8708624839782715,5,4
551,-2.154860019683838,-0.6117280125617981,15.605742454528809,-1.4156999588012695,-1.213162541389465,2.8744375705718994,5,4
552,-1.4225709438323977,-0.8392850160598755,13.286595344543455,0.0600874982774257,-0.8357250094413757,2.8696250915527344,5,4
553,-0.4450120031833648,-1.1189440488815308,8.9144926071167,1.159537434577942,-0.6414374709129333,2.8831000328063965,5,4
554,1.1641550064086914,-1.6945719718933103,4.515017986297607,1.672687530517578,-0.5924875140190125,2.851337432861328,5,4
555,2.264508008956909,-1.5894509553909302,1.3532429933547974,1.7252124547958374,-0.4226749837398529,2.743812561035156,5,4
556,4.765571117401123,-1.105605959892273,0.0151819996535778,1.4833500385284424,-0.1062875017523765,2.559287548065185,5,4
557,6.611362934112549,-0.6427249908447266,-0.3621430099010467,1.105912446975708,0.4214375019073486,2.1476125717163086,5,4
558,6.956977844238281,0.1606100052595138,1.3985559940338137,0.7735750079154968,1.0641125440597534,1.535462498664856,5,4
559,5.893463134765625,1.045943021774292,4.418341159820557,0.6513375043869019,1.4635499715805054,0.9039250016212464,5,4
560,4.077201843261719,1.280735969543457,6.582246780395508,0.90420001745224,1.631024956703186,0.4567750096321106,5,4
561,2.483449935913086,0.9843990206718444,6.965835094451904,1.4198249578475952,1.6321250200271606,0.2001999914646148,5,4
562,1.7216269969940186,0.7263399958610535,5.26873779296875,1.967212438583374,1.4269750118255615,0.1293874979019165,5,4
563,2.841691017150879,0.1340160071849823,2.0281870365142822,2.306837558746338,1.0604000091552734,0.1489125043153762,5,4
564,4.128493785858154,-0.1970359981060028,-1.413385987281799,2.3311750888824463,0.8222500085830688,0.0609125010669231,5,4
565,4.752225875854492,-0.4525029957294464,-3.823628902435303,2.0636000633239746,0.7402999997138977,-0.1541374921798706,5,4
566,4.49949312210083,-0.3466159999370575,-4.833946228027344,1.5786374807357788,0.6767749786376953,-0.4314749836921692,5,4
567,3.354224920272827,-0.0992769971489906,-4.376634120941162,1.0729124546051023,0.6657750010490417,-0.6610999703407288,5,4
568,2.376420021057129,-0.0319509990513324,-2.8181750774383545,0.6953374743461609,0.6450124979019165,-0.7893875241279602,5,4
569,0.8429089784622192,0.1259589940309524,-1.4398789405822754,0.5377625226974487,0.7170624732971191,-0.8456249833106995,5,4
570,-0.3804180026054382,0.1536760032176971,-0.3437260091304779,0.5622375011444092,0.8062999844551086,-0.7771499752998352,5,4
571,-0.832144021987915,0.0281419996172189,-0.204365000128746,0.6721000075340271,0.8343499898910522,-0.6085749864578247,5,4
572,-0.7186329960823059,-0.4009029865264892,-0.7445449829101562,0.7930999994277954,0.7440124750137329,-0.4107125103473663,5,4
573,0.1491219997406005,-0.7105910181999207,-1.813951015472412,0.8309124708175659,0.5131499767303467,-0.2591874897480011,5,4
574,0.7121769785881042,-0.7574329972267151,-2.5599019527435303,0.7210500240325928,0.2590500116348266,-0.2201374918222427,5,4
575,0.9506570100784302,-0.713612973690033,-2.5534310340881348,0.5475249886512756,0.0818125009536743,-0.2518999874591827,5,4
576,1.0155930519104004,-0.7111690044403076,-2.048580884933472,0.3935250043869018,-0.0354750007390975,-0.3129499852657318,5,4
577,1.0596580505371094,-0.7212979793548584,-1.775763988494873,0.3019500076770782,-0.0697124972939491,-0.3862375020980835,5,4
578,0.4743590056896209,-0.5672330260276794,-1.5731780529022217,0.2311374992132187,0.0037124999798834,-0.4607625007629394,5,4
579,-0.3245249986648559,-0.3376739919185638,-1.2420350313186646,0.1601874977350235,0.1343374997377395,-0.4729999899864197,5,4
580,-0.9309499859809875,-0.2743189930915832,-0.5744280219078064,0.1150875017046928,0.2113374918699264,-0.4107125103473663,5,4
581,-1.2994790077209473,-0.3438099920749664,-0.0349030010402202,0.134612500667572,0.1710499972105026,-0.2946625053882599,5,4
582,-1.2188040018081665,-0.3126049935817718,0.0288100000470876,0.1956624984741211,0.0292875003069639,-0.1601874977350235,5,4
583,-0.5227850079536438,-0.3261370062828064,-0.6015059947967529,0.2226125001907348,-0.1222374960780143,-0.0503249987959861,5,4
584,0.3598940074443817,-0.3672749996185303,-1.3242449760437012,0.1566125005483627,-0.167337492108345,-0.0111375004053115,5,4
585,1.019853949546814,-0.3637779951095581,-1.7607100009918213,0.0038499999791383,-0.0904750004410743,-0.0428999997675418,5,4
586,1.005022048950195,-0.3185670077800751,-1.3957829475402832,-0.184249997138977,0.0232375003397464,-0.1199000030755996,5,4
587,0.4413079917430877,-0.1729889959096908,-0.3998599946498871,-0.3125374913215637,0.0842875018715858,-0.1821874976158142,5,4
588,-0.2210530042648315,-0.048709999769926,0.6863279938697815,-0.3260124921798706,0.0647625029087066,-0.198137491941452,5,4
589,-0.7482370138168335,0.0498289987444877,1.2606420516967771,-0.2294874936342239,0.0134749999269843,-0.1639000028371811,5,4
590,-0.694940984249115,0.1084370017051696,1.3221420049667358,-0.0877249985933303,-0.0390499979257583,-0.1028499975800514,5,4
591,-0.388359010219574,0.1379410028457641,0.7737209796905518,0.0356125012040138,-0.0317624993622303,-0.0613249987363815,5,4
592,-0.1981559991836547,0.1098079979419708,0.1852120012044906,0.0954250022768974,0.0122375003993511,-0.0526624992489814,5,4
593,0.003171999938786,0.0288880001753568,-0.2764019966125488,0.086899995803833,0.0415249988436698,-0.0416624993085861,5,4
594,-0.0424740016460418,-0.0835649967193603,-0.5437350273132324,0.0331375002861022,0.0598125010728836,-0.0306624993681907,5,4
595,-0.1085160002112388,-0.0340039990842342,-0.4528389871120453,-0.0389125011861324,0.0219999998807907,-0.0196624994277954,5,4
596,0.0143100004643201,-0.0474350005388259,-0.411323994398117,-0.1024374961853027,-0.0452375002205371,-0.0148499999195337,5,4
597,-0.0068370001390576,0.0029269999358803,-0.2608920037746429,-0.1476749926805496,-0.0732875019311904,-0.0283249989151954,5,4
598,-0.0987420007586479,0.1031360030174255,-0.0968549996614456,-0.1732500046491623,-0.0452375002205371,-0.0428999997675418,5,4
599,-0.2418230026960373,0.0949459969997406,0.3000330030918121,-0.1806749999523162,0.0012374999932944,-0.0503249987959861,5,4
600,-0.3610939979553222,0.1498000025749206,-0.2437790036201477,0.0613249987363815,-0.0147124994546175,0.0389125011861324,6,4
601,-0.1027000024914741,0.0796329975128173,-0.4918870031833648,0.0393249988555908,0.0280499998480081,0.0681999996304512,6,4
602,0.1606200039386749,-0.0183910001069307,-0.6244320273399353,-0.002199999988079,0.0598125010728836,0.0791999995708465,6,4
603,0.3317030072212219,-0.0645980015397071,-0.4814760088920593,-0.0474375002086162,0.0683375000953674,0.0669625028967857,6,4
604,0.364326000213623,-0.0712030008435249,-0.2974869906902313,-0.0706750005483627,0.0427624993026256,0.0389125011861324,6,4
605,0.3548519909381866,-0.090767003595829,-0.2232030034065246,-0.0719124972820282,-0.0012374999932944,0.004674999974668,6,4
606,0.3499839901924133,-0.0753030031919479,-0.2681019902229309,-0.0743874981999397,-0.0512874983251094,-0.0295624993741512,6,4
607,0.2416159957647323,-0.0417690016329288,-0.1627929955720901,-0.0877249985933303,-0.1002374961972236,-0.0648999959230423,6,4
608,-0.0443160012364387,0.0367880016565322,0.1940079927444458,-0.0939124971628189,-0.1527625024318695,-0.091849997639656,6,4
609,-0.514930009841919,0.120287001132965,0.7575600147247314,-0.0633874982595443,-0.22605000436306,-0.088137499988079,6,4
610,-0.8714950084686279,0.1285759955644607,1.1004149913787842,0.0208999998867511,-0.3042874932289123,-0.0405624993145465,6,4
611,-1.197625994682312,0.1033030003309249,1.1194809675216677,0.1296624988317489,-0.3860999941825866,0.0511500015854835,6,4
612,-1.1427669525146484,0.1173859983682632,1.02121102809906,0.2286625057458877,-0.4666749835014343,0.1684374958276748,6,4
613,-0.0499310009181499,0.0463330000638961,1.1899770498275757,0.2982375025749206,-0.4899125099182129,0.2575374841690063,6,4
614,1.0363500118255615,-0.0682229995727539,1.6776829957962036,0.3642374873161316,-0.3140499889850616,0.2172500044107437,6,4
615,1.1709589958190918,-0.0805839970707893,3.13648009300232,0.4717625081539154,-0.0415249988436698,0.0829124972224235,6,4
616,1.7687530517578125,-0.117196999490261,5.468522071838379,0.7185750007629395,0.1233374997973442,-0.0759000033140182,6,4
617,2.0841450691223145,-0.5610449910163879,7.053164005279541,1.1815375089645386,0.2455749958753585,-0.2872374951839447,6,4
618,1.6193009614944458,-1.0273879766464231,8.027605056762695,1.818162441253662,0.3359124958515167,-0.4985750019550323,6,4
619,1.1265519857406616,-1.1946369409561155,7.452285766601562,2.491225004196167,0.2003374993801117,-0.6171000003814697,6,4
620,1.1972850561141968,-1.5067150592803955,5.501554012298584,3.044662475585937,0.0402874983847141,-0.6806250214576721,6,4
621,2.1462581157684326,-1.543637990951538,3.112684965133667,3.347712516784668,0.0060499999672174,-0.768625020980835,6,4
622,2.787300109863281,-1.3332810401916504,0.8581299781799316,3.407525062561035,0.2528625130653381,-0.90420001745224,6,4
623,3.868072032928467,-1.076995015144348,-0.8722460269927979,3.2841875553131104,0.7182999849319458,-1.1022000312805176,6,4
624,3.577379941940308,-0.7315149903297424,-2.4077460765838623,3.023900032043457,1.1642124652862549,-1.3575375080108645,6,4
625,2.9134058952331543,-0.49897500872612,-3.260103940963745,2.684274911880493,1.4415500164031982,-1.5761624574661257,6,4
626,2.278404951095581,-0.2713899910449981,-3.675704956054688,2.3104124069213867,1.4537874460220337,-1.6971625089645386,6,4
627,1.7035640478134155,-0.1967989951372146,-3.7803781032562256,1.963500022888184,1.2974499464035034,-1.7729250192642212,6,4
628,1.129181981086731,-0.2678259909152984,-3.676898956298828,1.672687530517578,0.9296374917030334,-1.8376874923706052,6,4
629,0.6703469753265381,-0.4908620119094848,-4.000626087188721,1.4137749671936035,0.4129124879837036,-1.887737512588501,6,4
630,0.8050500154495239,-0.874068021774292,-5.096714973449707,1.135200023651123,-0.058712501078844,-1.9207375049591064,6,4
631,1.5888839960098269,-1.42487895488739,-6.49258279800415,0.7528125047683716,-0.3763374984264374,-1.9817874431610107,6,4
632,1.6964950561523438,-1.626209020614624,-7.601747035980225,0.2641375064849853,-0.5717250108718872,-2.115025043487549,6,4
633,1.4542889595031738,-1.86354398727417,-8.30910587310791,-0.2795374989509582,-0.7294374704360962,-2.268887519836426,6,4
634,0.4494880139827728,-2.2900609970092773,-8.660577774047852,-0.8586875200271606,-0.9492999911308287,-2.377650022506714,6,4
635,-2.441167116165161,-2.1456329822540283,-7.679553031921387,-1.4511749744415283,-1.3341624736785889,-2.367887496948242,6,4
636,-5.020969867706299,-1.9471280574798584,-6.09714412689209,-1.9496124982833865,-1.8484125137329104,-2.0832624435424805,6,4
637,-5.863770961761475,-2.2254879474639893,-5.041196823120117,-2.318662405014038,-2.3590874671936035,-1.5578750371932983,6,4
638,-5.501368999481201,-2.352777004241944,-4.53981876373291,-2.556812524795532,-2.649899959564209,-0.9359624981880188,6,4
639,-4.163850784301758,-2.409024953842163,-4.689755916595459,-2.7315750122070312,-2.841712474822998,-0.3544749915599823,6,4
640,-1.9948569536209104,-2.427917003631592,-5.81907320022583,-2.9832000732421875,-3.172812461853028,0.052387498319149,6,4
641,-0.9098140001296996,-2.745214939117432,-7.129213809967041,-3.388824939727783,-3.386625051498413,0.2942500114440918,6,4
642,-1.497989058494568,-2.89090895652771,-7.192017078399658,-3.923974990844727,-3.2583374977111816,0.4835875034332275,6,4
643,-2.686384916305542,-2.949758052825928,-5.451303005218506,-4.499412536621094,-2.97371244430542,0.7193999886512756,6,4
644,-4.501407146453857,-2.773097038269043,-1.906366944313049,-4.958662509918213,-2.6694250106811523,1.0334500074386597,6,4
645,-6.281882762908936,-2.28174090385437,2.9818689823150635,-5.033187389373779,-2.212512493133545,1.4463624954223633,6,4
646,-7.612593173980713,-1.367442011833191,8.508598327636719,-4.60803747177124,-1.7408875226974487,1.928849935531616,6,4
647,-8.07109546661377,-0.7521200180053711,12.234186172485352,-3.666162490844727,-1.2876875400543213,2.453000068664551,6,4
648,-7.9102678298950195,-0.6074830293655396,13.851645469665527,-2.427287578582764,-0.8930624723434448,2.950200080871582,6,4
649,-7.375038146972656,-0.7343599796295166,13.30123519897461,-1.172600030899048,-0.607200026512146,3.423062562942505,6,4
650,-4.454392910003662,-1.742864966392517,10.6409330368042,-0.080437496304512,-0.4203374981880188,3.868974924087525,6,4
651,-0.5762500166893005,-3.01949405670166,6.492391109466553,0.6928625106811523,-0.2187625020742416,4.080312252044678,6,4
652,2.136871099472046,-3.6185810565948486,2.413415908813477,1.0069124698638916,-0.058712501078844,3.966737508773804,6,4
653,5.081075191497803,-3.7877988815307617,-0.5837200284004211,0.8468624949455261,0.1746249943971634,3.689399957656861,6,4
654,6.858922004699707,-3.2874889373779297,-1.5999690294265747,0.3777124881744385,0.7110124826431274,3.2410125732421875,6,4
655,6.659163951873779,-2.112056970596313,0.5163459777832031,-0.1121999993920326,1.3829749822616575,2.6410999298095703,6,4
656,6.0872578620910645,-0.970216989517212,4.64260721206665,-0.3394874930381775,1.69207501411438,2.046137571334839,6,4
657,4.7423272132873535,-0.3521020114421844,8.122180938720703,-0.0926750004291534,1.6798374652862549,1.5134625434875488,6,4
658,3.078007936477661,-0.0248949993401765,9.904793739318848,0.5597624778747559,1.4305499792099,1.1005499362945557,6,4
659,1.875270962715149,0.1735190004110336,8.726574897766113,1.3318250179290771,1.0213500261306765,0.8562124967575073,6,4
660,1.345978021621704,0.0223140008747577,5.331923007965088,1.9342124462127688,0.7904874682426453,0.7572125196456909,6,4
661,1.964285969734192,0.0189100001007318,1.7867130041122437,2.176074981689453,0.7720624804496765,0.7364500164985657,6,4
662,2.8172829151153564,0.1028330028057098,-1.2874089479446411,2.091787576675415,0.9626374840736388,0.6803500056266785,6,4
663,3.906851053237915,0.0264849998056888,-3.109316110610962,1.7851624488830566,1.210687518119812,0.5458750128746033,6,4
664,4.413107872009277,0.0064639998599886,-3.597623109817505,1.3843499422073364,1.3414499759674072,0.3320625126361847,6,4
665,3.951141119003296,0.189423993229866,-3.070255994796753,1.0324875116348269,1.3377374410629272,0.0756250023841857,6,4
666,3.0515999794006348,0.2674019932746887,-2.2655999660491943,0.7930999994277954,1.213162541389465,-0.1456124931573867,6,4
667,2.0101261138916016,0.224601998925209,-1.742522954940796,0.6575250029563904,1.0481624603271484,-0.2824249863624573,6,4
668,1.189725041389465,0.1319449990987777,-1.283614993095398,0.6050000190734863,0.8453499674797058,-0.344712495803833,6,4
669,0.6708109974861145,0.0957980006933212,-1.169510006904602,0.611050009727478,0.5839625000953674,-0.3484250009059906,6,4
670,0.7748849987983704,-0.1385889947414398,-1.0886050462722778,0.637862503528595,0.3566749989986419,-0.3276624977588653,6,4
671,1.0105390548706057,-0.1633930057287216,-1.35834801197052,0.658762514591217,0.2088624984025955,-0.353237509727478,6,4
672,1.230437994003296,-0.2692979872226715,-1.7041829824447632,0.6452875137329102,0.1502874940633773,-0.4155249893665313,6,4
673,1.1513659954071045,-0.3483000099658966,-2.1624209880828857,0.5658124685287476,0.1123374998569488,-0.5047624707221985,6,4
674,0.6742709875106812,-0.4126000106334686,-2.457887887954712,0.4375250041484833,0.1000999957323074,-0.5670499801635742,6,4
675,0.0503039993345737,-0.4353049993515014,-2.388756036758423,0.2799499928951263,0.0695749968290329,-0.5720000267028809,6,4
676,-0.5205879807472229,-0.4496670067310333,-1.9935970306396484,0.1284250020980835,0.0452375002205371,-0.5120499730110168,6,4
677,-0.958495020866394,-0.3985500037670135,-1.3093889951705933,0.0197999998927116,0.0585750006139278,-0.4204750061035156,6,4
678,-0.880378007888794,-0.3093709945678711,-0.3883759975433349,-0.0096249999478459,0.0622874982655048,-0.3104749917984009,6,4
679,-0.1479309946298599,-0.3043349981307983,-0.0488290004432201,0.0428999997675418,0.061049997806549,-0.2421374917030334,6,4
680,0.6067820191383362,-0.3710609972476959,-0.1521400064229965,0.1150875017046928,0.0585750006139278,-0.2628999948501587,6,4
681,1.3094309568405151,-0.4130789935588836,-0.2915520071983337,0.1406625062227249,0.0268124993890523,-0.3630000054836273,6,4
682,0.2766369879245758,-0.4024100005626678,-0.2558780014514923,0.1163249984383583,-0.0049499999731779,-0.6330500245094299,6,4
683,-0.5072479844093323,-0.3927179872989654,-0.2790850102901459,0.0906125009059906,-0.0867625027894973,-0.6575250029563904,6,4
684,-1.0069910287857056,-0.4327369928359985,-0.4065420031547546,0.0613249987363815,-0.2175250053405761,-0.602524995803833,6,4
685,-1.1322669982910156,-0.2550820112228393,-0.5140500068664551,0.0050874999724328,-0.3628624975681305,-0.5132874846458435,6,4
686,-1.082139015197754,-0.2151509970426559,-0.4076569974422455,-0.0633874982595443,-0.4239124953746795,-0.4155249893665313,6,4
687,-0.6523759961128235,-0.1498759984970092,-0.1216820031404495,-0.1171500012278556,-0.3616249859333038,-0.3299999833106994,6,4
688,-0.5983870029449463,-0.0034860000014305,-0.0700640007853508,-0.1476749926805496,-0.1430000066757202,-0.2946625053882599,6,4
689,-0.767952024936676,-0.0489320009946823,0.3367500007152557,-0.1610125005245208,0.1062875017523765,-0.2554749846458435,6,4
690,-0.6734359860420227,-0.1332670003175735,0.7000579833984375,-0.1414874941110611,0.2113374918699264,-0.1993750035762787,6,4
691,-0.1567160040140152,-0.339121013879776,0.6961619853973389,-0.080437496304512,0.1735250055789947,-0.1699499934911728,6,4
692,0.514460027217865,-0.4639529883861542,0.4333940148353576,-0.0279124993830919,0.032999999821186,-0.1968999952077865,6,4
693,0.8703330159187317,-0.4483020007610321,0.2678349912166595,-0.004674999974668,-0.1637624949216842,-0.278712511062622,6,4
694,0.5675240159034729,-0.307011991739273,0.0552750006318092,-0.0009624999947845,-0.3568125069141388,-0.3947624862194061,6,4
695,-0.2458550035953521,-0.0807410031557083,0.4466710090637207,-0.0108624994754791,-0.5216749906539917,-0.4717625081539154,6,4
696,-1.0059880018234253,0.0378100015223026,0.7145259976387024,0.0087999999523162,-0.6621999740600586,-0.4437125027179718,6,4
697,-1.3126920461654663,0.0930539965629577,0.472245991230011,0.055137500166893,-0.6572499871253967,-0.3459500074386596,6,4
698,-1.4640029668807983,0.2554439902305603,-0.0321669988334178,0.0686125010251998,-0.441100001335144,-0.2311374992132187,6,4
699,-1.4048800468444824,0.3203949928283691,-0.3523589968681335,0.025849999859929,-0.1319999992847442,-0.0991374999284744,6,4
700,-0.1517200022935867,-0.0726360008120536,0.3101289868354797,0.086899995803833,-0.1258125007152557,-0.0063249999657273,7,4
701,-0.1602270007133484,-0.0152120003476738,0.0539579987525939,0.1003749966621398,-0.0830499976873397,0.0144375003874301,7,4
702,-0.0478460006415843,-0.0453130006790161,-0.4062339961528778,0.0808499976992607,0.0072874999605119,0.0364375002682209,7,4
703,0.1287299990653991,-0.1159669980406761,-0.6605449914932251,0.0148499999195337,0.107524998486042,0.0449624992907047,7,4
704,0.2467689961194992,-0.1041340008378028,-0.640038013458252,-0.0791999995708465,0.1551000028848648,0.0339624993503093,7,4
705,0.158839002251625,-0.0564090013504028,-0.3143729865550995,-0.152487501502037,0.1625249981880188,0.004674999974668,7,4
706,-0.0541910007596015,-0.0114339999854564,0.1106809973716735,-0.1769624948501587,0.1233374997973442,-0.0148499999195337,7,4
707,-0.2624189853668213,0.0372349992394447,0.4045960009098053,-0.1500124931335449,0.0635249987244606,-0.0148499999195337,7,4
708,-0.4575969874858856,0.0728780031204223,0.5889790058135986,-0.0889625027775764,-0.0037124999798834,0.0034374999813735,7,4
709,-0.3414080142974853,0.1363600045442581,0.4195460081100464,-0.0181499999016523,-0.0342375002801418,0.0413874983787536,7,4
710,-0.1309870034456253,0.0726130008697509,0.1114220023155212,0.0318999998271465,-0.0024749999865889,0.0694374963641166,7,4
711,-0.0308710001409053,0.0540810003876686,-0.0098130004480481,0.0503249987959861,0.0439999997615814,0.080437496304512,7,4
712,-0.0298960004001855,0.0396130010485649,-0.1606100052595138,0.055137500166893,0.061049997806549,0.085387498140335,7,4
713,-0.1778910011053085,-0.0032899999059736,-0.3749789893627167,0.0441375002264976,0.0635249987244606,0.0939124971628189,7,4
714,-0.3143720030784607,0.0013500000350177,-0.6944479942321777,0.0038499999791383,0.0769999995827674,0.1146750003099441,7,4
715,-0.4170520007610321,0.0472650006413459,-0.7028189897537231,-0.0669625028967857,0.0915749967098236,0.159912496805191,7,4
716,-0.5075410008430481,0.0829090029001236,-0.3815729916095733,-0.1329624950885772,0.0855249986052513,0.2147749960422516,7,4
717,-0.3481079936027527,0.1048559993505477,0.5497170090675354,-0.1549624949693679,0.0488125011324882,0.2662000060081482,7,4
718,0.0908470004796981,0.1734949946403503,2.230739116668701,-0.081675000488758,0.0,0.2832500040531158,7,4
719,0.8170440196990967,0.1650670021772384,3.9803578853607178,0.1711875051259994,0.0805749967694282,0.2404875010251999,7,4
720,1.505054950714111,0.1433580070734024,5.630533218383789,0.5597624778747559,0.2846249938011169,0.1049124971032142,7,4
721,1.841778039932251,0.0060749999247491,6.846712112426758,1.056962490081787,0.6010124683380127,-0.0856624990701675,7,4
722,1.4622819423675537,-0.5840380191802979,7.347270965576172,1.629925012588501,0.9785875082015992,-0.2274249941110611,7,4
723,0.840412974357605,-1.1350250244140625,7.345400810241699,2.1833624839782715,1.1741124391555786,-0.2762374877929687,7,4
724,0.7519360184669495,-1.230631947517395,6.205221176147461,2.695275068283081,1.2509750127792358,-0.2506625056266784,7,4
725,1.20455801486969,-1.2257579565048218,3.823431015014648,3.047137498855591,1.359737515449524,-0.2091374993324279,7,4
726,2.3762459754943848,-1.055780053138733,1.4807389974594116,3.114374876022339,1.3792624473571775,-0.2249500006437301,7,4
727,4.674997806549072,-0.7761610150337219,0.1919499933719635,2.942087411880493,1.3034999370574951,-0.3837625086307525,7,4
728,5.7096757888793945,-0.6178110241889954,-1.0735260248184204,2.719749927520752,1.411025047302246,-0.7943375110626221,7,4
729,5.081288814544678,-0.604781985282898,-0.9119319915771484,2.521749973297119,1.6150749921798706,-1.2952499389648438,7,4
730,3.745698928833008,-0.2793329954147339,-0.4502280056476593,2.3861749172210693,1.6321250200271606,-1.7056875228881836,7,4
731,1.526168942451477,-0.198183998465538,-0.781171977519989,2.353174924850464,1.5808374881744385,-1.926787495613098,7,4
732,0.0710759982466697,-0.3704789876937866,-1.6889779567718506,2.32993745803833,1.2632124423980713,-1.9512624740600584,7,4
733,-0.9348949790000916,-0.2995159924030304,-3.18208909034729,2.204124927520752,0.6792500019073486,-1.871787548065185,7,4
734,0.4212380051612854,-0.7323290109634399,-4.439444065093994,1.9342124462127688,0.0903374999761581,-1.755737543106079,7,4
735,2.2647509574890137,-1.0815550088882446,-5.517099857330322,1.54316246509552,-0.3201000094413757,-1.8082624673843384,7,4
736,4.542226791381836,-1.6804510354995728,-5.807758808135986,1.109487533569336,-0.4666749835014343,-2.0600249767303467,7,4
737,6.315736770629883,-2.081583976745605,-6.0990800857543945,0.6280999779701233,-0.717199981212616,-2.4961750507354736,7,4
738,4.765340805053711,-1.9387489557266235,-6.8143720626831055,0.1456124931573867,-0.8747749924659729,-3.089900016784668,7,4
739,0.6170579791069031,-1.6690770387649536,-6.808578014373779,-0.3724874854087829,-0.8503000140190125,-3.4575750827789307,7,4
740,-4.157916069030762,-1.262372970581055,-5.755054950714111,-0.9074999690055848,-0.8357250094413757,-3.37081241607666,7,4
741,-7.2925310134887695,-1.222311019897461,-4.020177841186523,-1.2984124422073364,-0.9260625243186952,-2.8785624504089355,7,4
742,-8.374638557434082,-1.7700090408325195,-2.46897292137146,-1.4891250133514404,-1.1679250001907349,-2.158887386322021,7,4
743,-7.872291088104248,-2.212455987930298,-1.2552369832992554,-1.4816999435424805,-1.635837435722351,-1.4026374816894531,7,4
744,-6.342024803161621,-2.4800350666046143,-1.0753849744796753,-1.3216500282287598,-2.332274913787842,-0.738099992275238,7,4
745,-4.389130115509033,-2.6515259742736816,-2.2011849880218506,-1.2227874994277954,-3.1752874851226807,-0.2762374877929687,7,4
746,-4.086793899536133,-2.705704927444458,-3.878175973892212,-1.2838374376296997,-3.764062404632568,0.052387498319149,7,4
747,-4.152656078338623,-3.032989025115967,-5.82117223739624,-1.5134625434875488,-4.001112461090088,0.3955875039100647,7,4
748,-4.346650123596191,-3.0693368911743164,-6.931492805480957,-2.0107998847961426,-4.115924835205078,0.7193999886512756,7,4
749,-5.129156112670898,-2.8626010417938232,-6.767134189605713,-2.659524917602539,-4.007162570953369,1.0529749393463137,7,4
750,-6.267721176147461,-2.923532009124756,-4.839193820953369,-3.219012498855591,-3.5319623947143555,1.473175048828125,7,4
751,-7.175670146942139,-2.5128819942474365,-1.6544829607009888,-3.5403499603271484,-2.9027624130249023,1.9692749977111816,7,4
752,-7.8913421630859375,-2.1822268962860107,1.680042028427124,-3.548875093460083,-2.32251238822937,2.5165250301361084,7,4
753,-8.620619773864746,-2.20849609375,4.5288920402526855,-3.27153754234314,-1.8471750020980835,3.094437599182129,7,4
754,-8.211846351623535,-2.540376901626587,6.070507049560547,-2.7511000633239746,-1.5405499935150146,3.7259750366210938,7,4
755,-5.135155200958252,-3.351526975631714,5.348586082458496,-2.208662509918213,-1.3267375230789185,4.269649982452393,7,4
756,-1.7568279504776,-3.7771520614624015,3.5732500553131104,-1.832324981689453,-0.7623000144958496,4.511650085449219,7,4
757,1.552111029624939,-3.5803771018981934,2.883635997772217,-1.6832749843597412,0.0879999995231628,4.418699741363525,7,4
758,4.450138092041016,-3.226461887359619,4.184575080871582,-1.649175047874451,0.944350004196167,4.040024757385254,7,4
759,5.398126125335693,-2.674362897872925,7.113255023956299,-1.4596999883651731,1.5674999952316284,3.4181125164031982,7,4
760,4.9315361976623535,-1.8911739587783811,10.278969764709473,-0.9185000061988832,1.6835500001907349,2.7450499534606934,7,4
761,4.6903581619262695,-1.2062699794769287,11.856146812438965,-0.0596750006079673,1.1838749647140503,2.1476125717163086,7,4
762,4.57863712310791,-0.9860079884529114,9.914198875427246,0.9164375066757202,0.5974375009536743,1.5868874788284302,7,4
763,3.960194110870361,-0.6746649742126465,6.1204328536987305,1.6458749771118164,0.3335750102996826,1.0993125438690186,7,4
764,3.93875789642334,-0.1556330025196075,2.339164018630981,1.9145499467849727,0.4263874888420105,0.7671124935150146,7,4
765,3.566037893295288,0.2553879916667938,-0.49338498711586,1.7863999605178833,0.888112485408783,0.4921124875545501,7,4
766,2.7883989810943604,0.55731600522995,-1.2546119689941406,1.4345375299453735,1.3842124938964844,0.2662000060081482,7,4
767,2.122623920440674,0.5440109968185425,-0.5835649967193604,1.088724970817566,1.6187875270843506,0.1696749925613403,7,4
768,1.77524995803833,0.3932130038738251,0.1993310004472732,0.9128624796867372,1.522262454032898,0.1647250056266784,7,4
769,1.4956170320510864,0.618914008140564,0.7273749709129333,0.8896250128746033,1.1679250001907349,0.1512500047683715,7,4
770,1.172996997833252,0.7750740051269531,0.3382990062236786,0.9446250200271606,0.7805874943733215,0.1293874979019165,7,4
771,1.3497799634933472,0.5988540053367615,-0.4443750083446502,0.9677249789237976,0.5021499991416931,0.1061500012874603,7,4
772,1.518525004386902,0.5659109950065613,-0.9936090111732484,0.9201499819755554,0.4081000089645386,0.0364375002682209,7,4
773,1.527340054512024,0.516776978969574,-1.3534590005874634,0.8493375182151794,0.520437479019165,-0.0661375001072883,7,4
774,1.3888410329818726,0.3010370135307312,-1.4272359609603882,0.7601000070571899,0.7134875059127808,-0.1786125004291534,7,4
775,0.8553130030632019,0.1391119956970214,-1.2525739669799805,0.6721000075340271,0.8245875239372253,-0.2750000059604645,7,4
776,0.3586310148239136,-0.1001700013875961,-0.9447330236434937,0.619575023651123,0.7269625067710876,-0.3312374949455261,7,4
777,0.038086999207735,-0.2685500085353851,-0.7165849804878235,0.5927624702453613,0.4116750061511993,-0.3630000054836273,7,4
778,-0.3244979977607727,-0.3405070006847381,-0.8696939945220947,0.5780500173568726,0.0879999995231628,-0.3849999904632568,7,4
779,-0.504289984703064,-0.4698239862918854,-1.2707560062408447,0.5425750017166138,-0.0489500015974044,-0.3789499998092651,7,4
780,-0.7082110047340393,-0.5567190051078796,-1.3854830265045166,0.4522374868392944,-0.0464750006794929,-0.3617624938488006,7,4
781,-0.9281880259513856,-0.6017979979515076,-1.3331259489059448,0.3519999980926513,0.015812499448657,-0.3386625051498413,7,4
782,-0.8875309824943542,-0.7321320176124573,-1.2167949676513672,0.254375010728836,0.0842875018715858,-0.3166624903678894,7,4
783,-0.6655679941177368,-0.8764430284500122,-1.0867149829864502,0.1626625061035156,0.1783374994993209,-0.3202374875545501,7,4
784,-0.6523020267486572,-0.9544349908828736,-0.7748519778251648,0.0820875018835067,0.2773374915122986,-0.344712495803833,7,4
785,-0.953594982624054,-0.9013760089874268,-0.1460500061511993,0.0173249989748001,0.2883374989032745,-0.3691875040531158,7,4
786,-1.2548160552978516,-0.9473909735679626,0.5562000274658203,0.0075624999590218,0.1722874939441681,-0.3581874966621399,7,4
787,-1.352251052856445,-0.9662650227546692,0.901549994945526,0.0698499977588653,-0.0122375003993511,-0.3056625127792358,7,4
788,-1.4486140012741089,-0.8591480255126953,0.811424970626831,0.1626625061035156,-0.2272875010967254,-0.238425001502037,7,4
789,-1.3581310510635376,-0.7382699847221375,0.2483409941196441,0.2249500006437301,-0.3995749950408935,-0.166374996304512,7,4
790,-0.9609289765357972,-0.7103310227394104,-0.3389689922332763,0.2151875048875808,-0.4556750059127807,-0.1028499975800514,7,4
791,-0.2568579912185669,-0.658918023109436,-0.7779179811477661,0.1468500047922134,-0.3371500074863434,-0.0856624990701675,7,4
792,-0.1040000021457672,-0.5258809924125671,-1.008774995803833,0.0368499979376792,-0.0598125010728836,-0.1308999955654144,7,4
793,-0.2987290024757385,-0.4724229872226715,-0.4907769858837127,-0.0864875018596649,0.151525005698204,-0.1834249943494796,7,4
794,-0.5712509751319885,-0.3771199882030487,0.1459320038557052,-0.1561999917030334,0.2040500044822693,-0.2188999950885772,7,4
795,-0.9461529850959778,-0.3926959931850433,0.8568310141563416,-0.1427250057458877,0.1612875014543533,-0.2286625057458877,7,4
796,-1.1187800168991089,-0.4145810008049011,1.18709397315979,-0.0559624992311,0.0317624993622303,-0.2004749923944473,7,4
797,-1.1495959758758545,-0.3444580137729645,0.9636380076408386,0.0648999959230423,-0.1135749965906143,-0.1601874977350235,7,4
798,-1.080741047859192,-0.3124139904975891,0.3390080034732818,0.1443749964237213,-0.2431000024080276,-0.1199000030755996,7,4
799,-0.7446349859237671,-0.3479360044002533,-0.2144200056791305,0.1431374996900558,-0.3238124847412109,-0.0833249986171722,7,4
800,-0.2013179957866668,0.0342239998281002,-0.0458250008523464,-0.052387498319149,0.0928125008940696,0.0071499999612569,8,4
801,-0.2988469898700714,0.0073699997738003,0.0341610014438629,-0.0461999997496604,0.0549999997019767,0.0291499998420476,8,4
802,-0.0566410012543201,-0.0274819992482662,0.0552939996123313,-0.0266750007867813,-0.0292875003069639,0.0584375001490116,8,4
803,0.1899709999561309,0.0548209995031356,-0.0546760000288486,-0.0131999999284744,-0.0720499977469444,0.0559624992311,8,4
804,0.4251349866390228,0.0559399984776973,-0.0609139986336231,-0.0083875004202127,-0.0439999997615814,0.0254375003278255,8,4
805,0.2723659873008728,0.0840770006179809,0.0453950017690658,-0.0059124999679625,0.032999999821186,-0.0123749999329447,8,4
806,0.1007609963417053,0.0840519964694976,0.0489850006997585,0.0013749999925494,0.0708125010132789,-0.0283249989151954,8,4
807,0.0536429993808269,0.078063003718853,-0.037661999464035,0.0001374999992549,0.057337500154972,-0.0295624993741512,8,4
808,-0.0261799991130828,0.0428350009024143,-0.2352479994297027,-0.0096249999478459,0.0427624993026256,-0.0270875003188848,8,4
809,-0.1094610020518302,0.0621789991855621,-0.438396006822586,-0.0389125011861324,0.0232375003397464,-0.0208999998867511,8,4
810,-0.2360389977693557,0.0800520032644271,-0.4407260119915008,-0.0791999995708465,0.0024749999865889,-0.0063249999657273,8,4
811,-0.337460994720459,0.1133110001683235,-0.2519679963588714,-0.1121999993920326,-0.0232375003397464,0.0131999999284744,8,4
812,-0.3507910072803497,0.1261110007762909,-0.160857006907463,-0.1256749927997589,-0.0562375001609325,0.0413874983787536,8,4
813,-0.5492600202560425,0.1936350017786026,0.0203600004315376,-0.1317249983549118,-0.0904750004410743,0.0719124972820282,8,4
814,-0.5126829743385315,0.156042993068695,0.0996219962835311,-0.1342000067234039,-0.1222374960780143,0.1231999993324279,8,4
815,-0.1677210032939911,0.0606079995632171,0.3504320085048675,-0.1379124969244003,-0.1270499974489212,0.1659625023603439,8,4
816,-0.0546219982206821,0.0529650002717971,0.8646680116653442,-0.1182499974966049,-0.0622874982655048,0.1720124930143356,8,4
817,-0.1131080016493797,0.0778030008077621,2.319566011428833,-0.0511500015854835,-0.0085249999538064,0.1611499935388565,8,4
818,-0.4383819997310638,0.1772229969501495,4.528789043426514,0.1614249944686889,0.0354750007390975,0.1622499972581863,8,4
819,-0.1872410029172897,-0.0688880011439323,6.603496074676514,0.5963374972343445,-0.0147124994546175,0.1819124966859817,8,4
820,0.6502950191497803,-0.4519070088863373,7.691026210784912,1.2219624519348145,-0.0257124993950128,0.1671999990940094,8,4
821,1.8662630319595337,-1.0123000144958496,7.25167179107666,1.896262526512146,0.0952875018119812,0.0951500013470649,8,4
822,3.106909990310669,-1.31918203830719,6.1651811599731445,2.4411749839782715,0.3236750066280365,-0.0673749968409538,8,4
823,3.976530075073242,-1.5785139799118042,4.3034348487854,2.8345625400543213,0.7060624957084656,-0.3141874969005584,8,4
824,3.823493003845215,-1.400892972946167,3.232717990875244,3.0141375064849854,1.1178749799728394,-0.611050009727478,8,4
825,3.172230958938598,-1.0638790130615234,3.0058209896087646,3.10337495803833,1.5002624988555908,-0.8419125080108643,8,4
826,2.081796884536743,-1.1701890230178833,2.521730899810791,3.21447491645813,1.94246244430542,-0.9457250237464904,8,4
827,1.8746039867401123,-1.1233789920806885,2.464728116989136,3.3195250034332275,2.2149875164031982,-0.9189124703407288,8,4
828,2.307555913925171,-0.9216579794883728,1.832859992980957,3.4392874240875244,2.1855623722076416,-0.8761500120162964,8,4
829,2.8614189624786377,-1.1411570310592651,0.7571409940719604,3.5615248680114746,1.9619874954223635,-0.90420001745224,8,4
830,3.152208089828491,-1.1631799936294556,-0.8137710094451904,3.568812370300293,1.347499966621399,-1.022724986076355,8,4
831,2.641912937164306,-0.8770229816436768,-2.2699921131134038,3.41604995727539,0.5106750130653381,-1.202299952507019,8,4
832,2.4617390632629395,-0.9291309714317322,-3.837148904800415,3.115612506866455,-0.2883374989032745,-1.3708750009536743,8,4
833,2.570435047149658,-1.0470579862594604,-5.133627891540527,2.678225040435791,-0.7282000184059143,-1.5408250093460083,8,4
834,2.878572940826416,-1.1325169801712036,-6.390487194061279,2.134550094604492,-0.681725025177002,-1.7154500484466553,8,4
835,2.175899028778076,-1.1448869705200195,-6.8366007804870605,1.5395874977111816,-0.2406249940395355,-1.870687484741211,8,4
836,0.864192008972168,-0.9069709777832032,-6.930362224578857,0.9604374766349792,0.1978625059127807,-1.932974934577942,8,4
837,-0.2764070034027099,-0.8309260010719299,-7.813591957092285,0.3727625012397766,0.3126749992370605,-1.8987374305725095,8,4
838,-0.8865870237350464,-1.0513030290603638,-8.013876914978027,-0.2477750033140182,0.2028124928474426,-1.7862625122070312,8,4
839,-1.244541049003601,-1.3142169713974,-7.819069862365723,-0.8269249796867371,-0.1307625025510788,-1.664162516593933,8,4
840,-1.0067269802093506,-1.6731959581375122,-7.1893391609191895,-1.3461250066757202,-0.8710625171661377,-1.5664000511169434,8,4
841,-1.0136109590530396,-1.775884032249451,-7.1440839767456055,-1.805512547492981,-1.7983624935150146,-1.4906375408172607,8,4
842,-1.3404810428619385,-2.2418630123138428,-7.505566120147705,-2.236712455749512,-2.577850103378296,-1.389299988746643,8,4
843,-2.17052698135376,-2.45914888381958,-8.165322303771973,-2.7388625144958496,-3.277862548828125,-1.2280124425888062,8,4
844,-3.459877014160156,-2.48868989944458,-8.394790649414062,-3.329012393951416,-3.836250066757202,-0.9311500191688538,8,4
845,-5.258974075317383,-2.6072239875793457,-7.2516889572143555,-3.965499877929688,-4.139162540435791,-0.4657124876976013,8,4
846,-6.491353988647461,-2.775049924850464,-5.195524215698242,-4.441937446594238,-4.078112602233887,0.1512500047683715,8,4
847,-7.119307994842529,-2.6169021129608154,-2.8544960021972656,-4.620275020599365,-3.7005374431610103,0.8526374697685242,8,4
848,-7.419014930725098,-2.3589560985565186,-1.4075390100479126,-4.576274871826172,-3.1776249408721924,1.5367000102996826,8,4
849,-7.217864990234375,-2.171494007110596,-0.1950729936361313,-4.451700210571289,-2.5338499546051025,2.1293249130249023,8,4
850,-7.182141780853272,-1.7717230319976809,2.6397740840911865,-4.301412582397461,-1.9009374380111692,2.5862374305725098,8,4
851,-6.691751956939697,-1.684272050857544,6.324642181396484,-3.94350004196167,-1.2522125244140625,2.966150045394897,8,4
852,-5.971595764160156,-1.82089102268219,9.315985679626465,-3.209249973297119,-0.4373874962329864,3.3252999782562256,8,4
853,-4.347734928131104,-1.7534589767456057,10.55008316040039,-2.195187568664551,0.4386250078678131,3.6356375217437744,8,4
854,-1.6369199752807615,-1.6793220043182373,9.920345306396484,-1.216599941253662,1.1129250526428225,3.795687437057495,8,4
855,2.212596893310547,-2.1884450912475586,7.707205772399902,-0.4885374903678894,1.5625499486923218,3.7321624755859375,8,4
856,7.487512111663818,-3.278692960739136,5.042634963989258,-0.1207249984145164,1.96693754196167,3.3473000526428223,8,4
857,9.715448379516602,-2.7048280239105225,4.35172176361084,-0.0339624993503093,2.3468499183654785,2.564237594604492,8,4
858,9.566327095031738,-1.263174057006836,5.65645694732666,0.0417999997735023,2.461662530899048,1.6417499780654907,8,4
859,8.499062538146973,-0.4415439963340759,7.796203136444092,0.2958999872207641,2.091512441635132,0.7889750003814697,8,4
860,6.746350765228272,-0.0138689996674656,8.647429466247559,0.8260999917984009,1.4062124490737915,0.0657249987125396,8,4
861,4.255147933959961,0.223919004201889,7.619277954101562,1.4931124448776243,0.742775022983551,-0.4179999828338623,8,4
862,2.234194040298462,0.6481900215148926,5.425769805908203,2.017262458801269,0.1440999954938888,-0.5780500173568726,8,4
863,1.2496600151062012,0.9109789729118348,2.301179885864258,2.294600009918213,-0.1783374994993209,-0.5377625226974487,8,4
864,1.5032000541687012,0.705066978931427,-0.5602160096168518,2.277412414550781,-0.2382874935865402,-0.4240500032901764,8,4
865,2.2513129711151123,0.542559027671814,-2.9983110427856445,1.997737526893616,-0.0549999997019767,-0.3544749915599823,8,4
866,2.4820239543914795,0.3801600039005279,-4.184150218963623,1.542062520980835,0.3261500000953674,-0.3617624938488006,8,4
867,2.006016969680786,0.3229129910469055,-3.5555191040039062,1.03496253490448,0.6572499871253967,-0.3825249969959259,8,4
868,2.064902067184448,0.0318210013210773,-2.3342959880828857,0.6660500168800354,0.8062999844551086,-0.3704249858856201,8,4
869,1.834831953048706,-0.2116169929504394,-1.3919659852981567,0.4877125024795532,0.8820624947547913,-0.3959999978542328,8,4
870,1.2362719774246216,-0.2216310054063797,-0.3647379875183105,0.4472874999046325,0.7842999696731567,-0.4204750061035156,8,4
871,0.7695170044898987,-0.2045779973268509,0.1841569989919662,0.5170000195503235,0.5314375162124634,-0.4032875001430511,8,4
872,0.3886910080909729,-0.3375020027160644,0.2817789912223816,0.6513375043869019,0.2173874974250793,-0.3691875040531158,8,4
873,0.0462130010128021,-0.3599669933319092,0.1564690023660659,0.7821000218391418,-0.1270499974489212,-0.3312374949455261,8,4
874,0.2825900018215179,-0.5079330205917358,-0.7661920189857483,0.8663874864578247,-0.4166249930858612,-0.281187504529953,8,4
875,0.7967339754104614,-0.6219840049743652,-1.9452580213546755,0.8260999917984009,-0.5168625116348267,-0.272662490606308,8,4
876,0.6373519897460938,-0.5681599974632263,-2.7400119304656982,0.6452875137329102,-0.4056249856948852,-0.3056625127792358,8,4
877,0.2084809988737106,-0.5880619883537292,-3.033987045288086,0.3825249969959259,-0.1575749963521957,-0.2994749844074249,8,4
878,-0.436161994934082,-0.5743989944458008,-2.4718120098114014,0.1016125008463859,0.107524998486042,-0.2286625057458877,8,4
879,-0.9880639910697936,-0.5154770016670227,-1.4162299633026123,-0.0999625027179718,0.2125750035047531,-0.1076624989509582,8,4
880,-1.0261110067367554,-0.4364719986915588,-0.3287459909915924,-0.1806749999523162,0.1282874941825866,0.0254375003278255,8,4
881,-1.009358048439026,-0.329912006855011,0.5047900080680847,-0.1549624949693679,-0.0842875018715858,0.1476749926805496,8,4
882,-0.640936017036438,-0.4052850008010864,0.6025930047035217,-0.0449624992907047,-0.3238124847412109,0.2514874935150146,8,4
883,0.5265920162200928,-0.448848009109497,-0.0841279998421669,0.0393249988555908,-0.4533374905586242,0.295487493276596,8,4
884,1.1590160131454468,-0.3948870003223419,-0.7049679756164551,0.0466125011444091,-0.3188624978065491,0.2380124926567077,8,4
885,1.4328479766845703,-0.3445169925689697,-0.8672080039978027,-0.0144375003874301,-0.1160499975085258,0.1269125044345855,8,4
886,1.1239839792251587,-0.2946729958057403,-0.5230249762535095,-0.0889625027775764,-0.0379500016570091,0.0193875003606081,8,4
887,0.5259069800376892,-0.1607200056314468,0.055562000721693,-0.1194875016808509,-0.1270499974489212,-0.055137500166893,8,4
888,0.1400119960308075,0.0299360007047653,0.5581240057945251,-0.0939124971628189,-0.2920500040054321,-0.0856624990701675,8,4
889,-0.1774660050868988,0.0599979981780052,0.8343600034713745,-0.0193875003606081,-0.4006749987602234,-0.0856624990701675,8,4
890,-0.2686760127544403,0.1473519951105117,0.8708159923553467,0.0783749967813491,-0.4959625005722046,-0.0563750006258487,8,4
891,-0.1271180063486099,0.2124300003051757,0.495400995016098,0.1601874977350235,-0.5302000045776367,-0.0318999998271465,8,4
892,-0.1474560052156448,0.3228810131549835,-0.048284001648426,0.201712504029274,-0.4361499845981598,-0.0123749999329447,8,4
893,-0.0920000001788139,0.3557280004024505,-0.5041030049324036,0.1786125004291534,-0.2798124849796295,0.0181499999016523,8,4
894,-0.0462470017373561,0.251257985830307,-0.7355830073356628,0.1028499975800514,-0.1600500047206878,0.0474375002086162,8,4
895,-0.0011439999798312,0.0402540005743503,-0.7018759846687317,0.0050874999724328,-0.1575749963521957,0.0633874982595443,8,4
896,0.2112569957971573,-0.6781430244445801,-2.328773021697998,-0.0901999995112419,0.0342375002801418,0.0083875004202127,8,4
897,-0.930413007736206,1.2070120573043823,0.4375090003013611,-0.258774995803833,-0.0928125008940696,0.0706750005483627,8,4
898,-0.2842000126838684,0.8942270278930664,-0.027293000370264,-0.3187249898910522,-0.4606249928474426,0.1977249979972839,8,4
899,0.3087739944458008,-0.3447479903697967,-0.7783769965171814,-0.2880625128746032,-0.3750999867916107,0.2014375030994415,8,4
900,-0.4013999998569488,-0.0068100001662969,0.2834250032901764,-0.0449624992907047,-0.0159499999135732,0.0401500016450881,9,4
901,-0.3793059885501861,-0.0670709982514381,0.121639996767044,-0.0217249989509582,-0.0415249988436698,0.076724998652935,9,4
902,-0.2784419953823089,-0.1112549975514411,-0.1813350021839141,-0.0217249989509582,-0.0512874983251094,0.1049124971032142,9,4
903,-0.1911309957504272,-0.0776690021157264,-0.3439260125160217,-0.0536249987781047,-0.0562375001609325,0.1207249984145164,9,4
904,-0.183227002620697,-0.0359119996428489,-0.1350460052490234,-0.0999625027179718,-0.0598125010728836,0.1329624950885772,9,4
905,-0.1977670043706894,-0.0193099994212389,0.5344820022583008,-0.1182499974966049,-0.0574750006198883,0.1439625024795532,9,4
906,-0.3945629894733429,0.0718019977211952,1.559353947639465,-0.0571999996900558,-0.0415249988436698,0.1586750000715255,9,4
907,-0.4226349890232086,0.1016350015997886,2.280097007751465,0.1064250022172927,-0.0379500016570091,0.1964875012636184,9,4
908,-0.0354730002582073,0.1266539990901947,3.0193910598754883,0.3166624903678894,-0.0354750007390975,0.2136749923229217,9,4
909,0.283499002456665,0.1166599988937377,3.4568018913269043,0.5817624926567078,0.0549999997019767,0.1879625022411346,9,4
910,0.5030099749565125,0.0093109998852014,4.114162921905518,0.8724374771118164,0.20762500166893,0.1647250056266784,9,4
911,0.9877719879150392,-0.0491239987313747,4.6581549644470215,1.1962499618530271,0.3261500000953674,0.1293874979019165,9,4
912,1.6548019647598269,-0.210548996925354,4.417879104614258,1.5310624837875366,0.4531999826431274,0.076724998652935,9,4
913,2.795697927474976,-0.5690439939498901,4.163850784301758,1.814450025558472,0.6230124831199646,-0.0416624993085861,9,4
914,3.075443983078003,-0.6871600151062012,3.9294939041137695,2.0758373737335205,0.7990124821662903,-0.2249500006437301,9,4
915,2.44297194480896,-0.63407301902771,3.3532159328460693,2.31288743019104,0.8575875163078308,-0.3997125029563904,9,4
916,1.9934489727020264,-0.1545989960432052,2.638887882232666,2.461937427520752,0.6634374856948853,-0.5022875070571899,9,4
917,2.098404884338379,0.3975360095500946,2.0647380352020264,2.521749973297119,0.3176249861717224,-0.5938624739646912,9,4
918,2.4612181186676025,0.0070719998329877,1.9083210229873655,2.5889875888824463,0.1551000028848648,-0.7539125084877014,9,4
919,2.221827983856201,-0.6302350163459778,0.9511079788208008,2.6720376014709477,0.2283875048160553,-0.9018625020980836,9,4
920,2.065927028656006,-0.6078630089759827,-0.0470150001347065,2.692800045013428,0.4263874888420105,-1.01048743724823,9,4
921,2.5848910808563232,-0.3176499903202057,-0.9492819905281068,2.624462604522705,0.5119125247001648,-1.1241999864578247,9,4
922,3.404748916625977,-0.4318859875202179,-1.2702759504318235,2.513225078582764,0.4129124879837036,-1.3220624923706057,9,4
923,3.3107619285583496,-0.5142319798469543,-1.07322895526886,2.4143624305725098,0.17586250603199,-1.6103999614715576,9,4
924,2.31848406791687,-0.7423819899559021,-0.8529289960861206,2.387412548065185,-0.0354750007390975,-1.870687484741211,9,4
925,0.8308650255203247,-1.1779940128326416,-1.886762022972107,2.345887422561645,-0.2382874935865402,-1.9915499687194824,9,4
926,-0.5669509768486023,-1.030661940574646,-3.6679859161376953,2.149125099182129,-0.4031499922275543,-1.962262511253357,9,4
927,-0.6702550053596497,-0.8875129818916321,-5.3277740478515625,1.7631624937057495,-0.3579125106334686,-1.8462125062942505,9,4
928,0.2496439963579177,-1.0393149852752686,-6.23715877532959,1.226775050163269,-0.0684750005602836,-1.7533999681472778,9,4
929,0.7420709729194641,-1.4811240434646606,-6.402707099914551,0.6733375191688538,0.3701499998569488,-1.730162501335144,9,4
930,0.4850789904594421,-1.5040810108184814,-5.805731773376465,0.1651374995708465,0.6437749862670898,-1.7252124547958374,9,4
931,-0.0817589983344078,-1.3476070165634155,-4.79219388961792,-0.2477750033140182,0.5216749906539917,-1.7362124919891355,9,4
932,-0.5846260190010071,-1.542559027671814,-4.255807876586914,-0.5508249998092651,0.0647625029087066,-1.7521624565124512,9,4
933,-1.194201946258545,-1.8762129545211792,-4.1941680908203125,-0.7902125120162964,-0.4446749985218048,-1.7252124547958374,9,4
934,-1.9436579942703247,-2.0811541080474854,-4.7091240882873535,-1.0137875080108645,-0.8307750225067139,-1.6286875009536743,9,4
935,-2.4976179599761963,-2.137221097946167,-5.3584089279174805,-1.2935999631881714,-1.1483999490737915,-1.4711124897003174,9,4
936,-2.889209032058716,-2.193917989730835,-5.8365349769592285,-1.6417499780654907,-1.43426251411438,-1.2755874395370483,9,4
937,-3.454493999481201,-2.3606069087982178,-5.572220802307129,-2.0253748893737797,-1.714074969291687,-1.065487504005432,9,4
938,-4.741377830505371,-2.170300006866455,-4.361907005310059,-2.36995005607605,-2.0146501064300537,-0.8273375034332275,9,4
939,-5.691352844238281,-2.285217046737671,-2.9267020225524902,-2.576337575912476,-2.1782748699188232,-0.4595249891281128,9,4
940,-5.803544044494629,-2.4415531158447266,-1.9840259552001955,-2.686337471008301,-2.5496625900268555,0.022962499409914,9,4
941,-5.65990686416626,-2.5205020904541016,-1.799491047859192,-2.7328124046325684,-3.127574920654297,0.5446375012397766,9,4
942,-4.799882888793945,-2.593647003173828,-2.585789918899536,-2.7608625888824463,-3.826349973678589,1.0675499439239502,9,4
943,-3.765170097351074,-2.7720539569854736,-4.316580772399902,-2.90262508392334,-4.352974891662598,1.5294125080108645,9,4
944,-3.180730104446411,-2.936901092529297,-5.674714088439941,-3.2129623889923096,-4.260162353515625,1.8910374641418457,9,4
945,-3.2286970615386963,-2.9883511066436768,-6.005155086517334,-3.646637439727783,-3.4891998767852783,2.1939499378204346,9,4
946,-3.72000789642334,-3.011774063110352,-4.690388202667236,-4.120599746704102,-2.332274913787842,2.4994750022888184,9,4
947,-4.368143081665039,-2.541512012481689,-1.8140150308609009,-4.5139875411987305,-1.3414499759674072,2.837862491607666,9,4
948,-4.477407932281494,-2.1794650554656982,1.8536440134048464,-4.672800064086914,-0.7770124673843384,3.192199945449829,9,4
949,-3.11795711517334,-2.177942991256714,5.435311794281006,-4.496937274932861,-0.5741999745368958,3.507349967956543,9,4
950,-0.2177850008010864,-2.3009018898010254,8.434687614440918,-3.9532625675201416,-0.2088624984025955,3.6136374473571777,9,4
951,1.670233964920044,-2.220541000366211,12.13877773284912,-3.1029624938964844,0.5619624853134155,3.358299970626831,9,4
952,2.6444079875946045,-1.748818039894104,15.635668754577637,-1.9801374673843384,1.0873500108718872,2.9819624423980717,9,4
953,3.888816118240357,-1.5167169570922852,16.129301071166992,-0.638824999332428,0.9944000244140624,2.658287525177002,9,4
954,5.159432888031006,-1.8528989553451536,13.029338836669922,0.6868125200271606,0.5289624929428101,2.277137517929077,9,4
955,4.845492839813232,-1.980164051055908,8.663899421691895,1.6629250049591064,0.0659999996423721,1.823799967765808,9,4
956,3.521682977676392,-1.1030069589614868,4.81874418258667,2.1137874126434326,-0.2285249978303909,1.469599962234497,9,4
957,4.010120868682861,-0.3477639853954315,1.7454229593276978,2.1601250171661377,-0.0855249986052513,1.3265999555587769,9,4
958,5.778415203094482,-0.4235090017318725,-0.5457689762115479,1.8902125358581543,0.4849624931812286,1.18607497215271,9,4
959,6.878523826599121,-0.4827530086040497,-1.6760849952697754,1.4051125049591064,1.188687443733215,0.848924994468689,9,4
960,6.685823917388916,-0.2006919980049133,-0.9894750118255616,0.943387508392334,1.8129374980926516,0.4065875113010406,9,4
961,5.280300140380859,0.1265639960765838,1.0751290321350098,0.6672874689102173,2.0695126056671143,0.0669625028967857,9,4
962,3.541908025741577,0.5224390029907227,3.32190203666687,0.637862503528595,1.911937475204468,-0.134612500667572,9,4
963,2.3009541034698486,0.4533270001411438,4.607828140258789,0.8834375143051147,1.5490750074386597,-0.2127124965190887,9,4
964,1.5331710577011108,0.1228229999542236,4.430941104888916,1.2854875326156616,1.0799249410629272,-0.1859000027179718,9,4
965,1.2258960008621216,-0.1655520051717758,2.931096076965332,1.6812125444412231,0.6402000188827515,-0.1040875017642974,9,4
966,1.3134599924087524,-0.2874509990215301,0.7169139981269836,1.9244500398635864,0.3420999944210052,-0.025849999859929,9,4
967,2.431675910949707,-0.3689669966697693,-1.6962440013885498,1.918262481689453,0.1991000026464462,-0.0050874999724328,9,4
968,3.8738880157470703,-0.5463330149650574,-3.292820930480957,1.6886374950408936,0.2198625057935714,-0.1051874980330467,9,4
969,4.107491970062256,-0.5160589814186096,-3.669137954711914,1.3660625219345093,0.4166249930858612,-0.344712495803833,9,4
970,3.147682905197144,-0.2467249929904937,-2.9380500316619877,1.0667250156402588,0.6792500019073486,-0.5865749716758728,9,4
971,1.4213839769363403,-0.1850810050964355,-1.6127389669418335,0.8883875012397766,0.8820624947547913,-0.7075750231742859,9,4
972,0.1223269999027252,-0.5208489894866943,-0.5111100077629089,0.8749125003814697,0.8307750225067139,-0.6538124680519104,9,4
973,-0.5338749885559082,-0.495754987001419,-0.4127520024776459,0.9506750106811525,0.5033875107765198,-0.5120499730110168,9,4
