,acc_x,acc_y,acc_z,gyr_x,gyr_y,gyr_z,sample,label
0,0.1340119987726211,-0.025662999600172,-0.0205049999058246,-0.0936374962329864,0.0782374963164329,0.0032999999821186,0,5
1,0.1522260010242462,-0.0377650000154972,0.1185500025749206,-0.0936374962329864,0.0720499977469444,-0.0210375003516674,0,5
2,0.0157149992883205,-0.0674389973282814,0.2746799886226654,-0.0813999995589256,0.079475000500679,-0.0382249988615512,0,5
3,-0.1350249946117401,-0.0647760033607482,0.3680950105190277,-0.0521125011146068,0.0464750006794929,-0.0382249988615512,0,5
4,-0.18019500374794,-0.0268690008670091,0.4201779961585998,-0.0081124994903802,-0.0255750007927417,-0.0247499998658895,0,5
5,-0.139174997806549,-0.0206969995051622,0.256289005279541,0.0456499978899955,-0.0928125008940696,-0.0064624999649822,0,5
6,-0.0417230017483234,-0.0157060008496046,-0.0333320014178752,0.0811249986290931,-0.1148125007748603,0.0107249999418854,0,5
7,0.0937749966979026,-0.0059670000337064,-0.3774600028991699,0.0786499977111816,-0.0977625027298927,0.0167750008404254,0,5
8,0.1963579952716827,0.0339139997959136,-0.5913959741592407,0.0371249988675117,-0.0562375001609325,0.0032999999821186,0,5
9,0.1557160019874572,0.0124049996957182,-0.6226549744606018,-0.0338249988853931,-0.0097624994814395,-0.0210375003516674,0,5
10,0.0037499999161809,-0.0187470000237226,-0.5226479768753052,-0.0996875017881393,0.0292875003069639,-0.0345125012099742,0,5
11,-0.1347540020942688,-0.0341849997639656,-0.2779099941253662,-0.1486375033855438,0.0574750006198883,-0.0272249989211559,0,5
12,-0.2151229977607727,-0.0210880003869533,-0.0336819998919963,-0.1656875014305114,0.0697124972939491,-0.0052249999716877,0,5
13,-0.2807210087776184,0.0167520008981227,0.1513749957084655,-0.1546874940395355,0.0697124972939491,0.0217249989509582,0,5
14,-0.229323998093605,0.0269499998539686,0.1528329998254776,-0.1412124931812286,0.0635249987244606,0.0449624992907047,0,5
15,-0.0507289990782737,0.0656599998474121,0.1771070063114166,-0.1363999992609024,0.0684750005602836,0.0607750006020069,0,5
16,0.2161320000886917,0.0321430005133152,0.6338419914245605,-0.1339250057935714,0.0512874983251094,0.0559624992311,0,5
17,0.3595860004425049,0.0694760009646415,1.2432990074157717,-0.0875874981284141,0.0037124999798834,0.0180124994367361,0,5
18,0.3177129924297333,0.2926239967346191,1.7959990501403809,0.0261249989271163,-0.0793375000357627,-0.0382249988615512,0,5
19,0.0431860014796257,0.5546339750289917,2.149074077606201,0.1751749962568283,-0.215049996972084,-0.0882750004529953,0,5
20,-0.1335349977016449,0.8376830220222473,2.3294920921325684,0.3254624903202057,-0.3506250083446502,-0.106562502682209,0,5
21,-0.0743540003895759,1.238631010055542,3.167634963989258,0.4670875072479248,-0.4801499843597412,-0.1029874980449676,0,5
22,-0.0590870007872581,1.3972129821777344,3.926083087921143,0.6650875210762024,-0.5656750202178955,-0.0992750003933906,0,5
23,-0.0158159993588924,1.355692982673645,4.968800067901611,0.9009000062942504,-0.6499624848365784,-0.1212750002741813,0,5
24,-0.065770000219345,1.1231980323791504,5.9357428550720215,1.2208625078201294,-0.7672500014305115,-0.1493249982595443,0,5
25,0.0064469999633729,0.4798269867897033,5.994424819946289,1.6216750144958496,-0.8722999691963196,-0.1762749999761581,0,5
26,-0.2842150032520294,0.1467150002717971,5.776282787322998,2.000349998474121,-0.9480624794960022,-0.2116124927997589,0,5
27,-0.7105540037155151,-0.0959350019693374,5.100648880004883,2.324162483215332,-0.9675874710083008,-0.1982749998569488,0,5
28,-0.8560000061988831,-0.3376150131225586,4.398828983306885,2.5770249366760254,-0.8760125041007996,-0.1248499974608421,0,5
29,-0.9742649793624878,-0.5425419807434082,3.459260940551758,2.756599903106689,-0.7000125050544739,-0.0332750007510185,0,5
30,-1.0264780521392822,-0.7904419898986816,2.112804889678955,2.856837511062622,-0.3543374836444855,0.0620125010609626,0,5
31,-1.1898070573806765,-0.8114010095596313,1.0168980360031128,2.832362413406372,0.0085249999538064,0.1610125005245208,0,5
32,-1.294448971748352,-0.9605770111083984,-0.1107439994812011,2.723599910736084,0.3433375060558319,0.2892999947071075,0,5
33,-1.381343960762024,-1.242738962173462,-0.8657010197639465,2.5709750652313232,0.5704874992370605,0.4358749985694885,0,5
34,-1.3014559745788574,-1.346318006515503,-1.3065849542617798,2.398687601089477,0.6414374709129333,0.5726875066757202,0,5
35,-0.7331749796867371,-1.523527979850769,-1.8291209936141968,2.2312123775482178,0.6279624700546265,0.682687520980835,0,5
36,-0.2993330061435699,-1.7940880060195925,-2.048772096633911,2.0613999366760254,0.5852000117301941,0.7119749784469604,0,5
37,-0.2923550009727478,-2.0607268810272217,-2.6316769123077397,1.895300030708313,0.5559124946594238,0.6850249767303467,0,5
38,-0.5173389911651611,-2.1052560806274414,-3.548574924468994,1.703487515449524,0.6829624772071838,0.6740249991416931,0,5
39,-0.9449219703674316,-2.103677988052368,-4.1538190841674805,1.433437466621399,0.8870124816894531,0.7277874946594238,0,5
40,-1.2466189861297607,-2.3302550315856934,-4.766704082489014,1.1035749912261963,1.0921624898910522,0.8414999842643738,0,5
41,-1.49468195438385,-2.5588600635528564,-4.978234767913818,0.7506124973297119,1.259637475013733,0.9660750031471252,0,5
42,-1.647163987159729,-2.674813032150269,-5.349453926086426,0.396274983882904,1.3329249620437622,1.1053625345230105,0,5
43,-1.2804399728775024,-2.7659640312194824,-5.853117942810059,0.0163624994456768,1.3414499759674072,1.2581249475479126,0,5
44,-0.8160160183906555,-2.7030720710754395,-6.231129169464111,-0.4014999866485595,1.2694000005722046,1.3729374408721924,0,5
45,0.0148660000413656,-2.4485929012298584,-6.432178020477295,-0.8339374661445618,1.1666874885559082,1.4180375337600708,0,5
46,0.8024359941482544,-2.181824922561645,-6.091301918029785,-1.253037452697754,1.0433499813079834,1.3937000036239624,0,5
47,0.9766430258750916,-2.096468925476074,-5.548838138580322,-1.6097124814987185,0.9125875234603882,1.299649953842163,0,5
48,0.9293339848518372,-2.1104660034179688,-5.116477012634277,-1.8847124576568604,0.8185374736785889,1.1957000494003296,0,5
49,0.6622740030288696,-1.9792020320892332,-4.799402236938477,-2.1290500164031982,0.7024874687194824,1.1383625268936155,0,5
50,0.3641670048236847,-1.8044389486312864,-4.732993125915527,-2.376962423324585,0.5583875179290771,1.128600001335144,0,5
51,0.7413690090179443,-1.6564819812774658,-4.599943161010742,-2.62996244430542,0.3531000018119812,1.1676499843597412,0,5
52,1.4232970476150513,-1.3369669914245603,-3.8317019939422607,-2.8950624465942383,0.0855249986052513,1.177412509918213,0,5
53,2.1654839515686035,-1.0813050270080566,-3.056759119033813,-3.1161625385284424,-0.1893374919891357,1.107837438583374,0,5
54,2.935365915298462,-1.016286015510559,-2.537277936935425,-3.2614998817443848,-0.3701499998569488,0.9770749807357788,0,5
55,3.210939884185791,-1.0170559883117676,-2.2547779083251958,-3.3543124198913574,-0.4104374945163727,0.7889750003814697,0,5
56,3.130697965621948,-0.9539790153503418,-2.141056060791016,-3.4350249767303467,-0.3139125108718872,0.5812125205993652,0,5
57,2.544950008392334,-0.7439529895782471,-1.7613849639892578,-3.5485999584198,-0.1930499970912933,0.3833499848842621,0,5
58,2.2587571144104004,-0.6266440153121948,-1.8769570589065552,-3.678124904632568,-0.1368124932050705,0.2440624982118606,0,5
59,2.3781540393829346,-0.914080023765564,-0.9510759711265564,-3.846699953079224,-0.1991000026464462,0.1255374997854232,0,5
60,2.456899881362915,-0.640404999256134,1.3996340036392212,-3.955462455749512,-0.3616249859333038,-0.0552750006318092,0,5
61,3.3107779026031494,-0.0540920011699199,4.974118232727051,-3.824699878692627,-0.5167250037193298,-0.2641375064849853,0,5
62,3.945142984390259,0.4094260036945343,8.247316360473633,-3.371500015258789,-0.6182000041007996,-0.5684249997138977,0,5
63,3.836167097091675,0.7298380136489868,10.295284271240234,-2.551724910736084,-0.550962507724762,-0.952049970626831,0,5
64,2.7590649127960205,1.1032700538635254,11.317756652832031,-1.4936624765396118,-0.5119125247001648,-1.3087249994277954,0,5
65,1.2088229656219482,1.502181053161621,10.287944793701172,-0.3990249931812286,-0.6499624848365784,-1.5274875164031982,0,5
66,0.8066009879112244,1.4371839761734009,7.896725177764893,0.4573250114917755,-0.8343499898910522,-1.5665374994277954,0,5
67,1.0348600149154663,1.1965099573135376,5.14276123046875,0.9570000171661376,-0.8515374660491943,-1.5360125303268433,0,5
68,0.9685109853744508,1.0668989419937134,2.883085966110229,1.187999963760376,-0.5436750054359436,-1.5237749814987185,0,5
69,0.6236730217933655,0.952351987361908,1.821720004081726,1.1940499544143677,-0.1538625061511993,-1.4944875240325928,0,5
70,0.1960950046777725,0.7173380255699158,1.5407500267028809,1.096287488937378,0.103812500834465,-1.42243754863739,0,5
71,0.4057759940624237,0.2616400122642517,2.453679084777832,1.0290499925613403,0.1918125003576278,-1.3442000150680542,0,5
72,0.3249549865722656,-0.0318170003592968,3.126717090606689,1.0902374982833862,0.2040500044822693,-1.3429625034332275,0,5
73,-0.5140849947929382,-0.1637279987335205,3.418881893157959,1.2893375158309937,0.3286249935626983,-1.350250005722046,0,5
74,-0.9762790203094482,-0.321628987789154,3.8334710597991934,1.5056250095367432,0.3678124845027923,-1.2819124460220337,0,5
75,-1.3513879776000977,-0.5436490178108215,3.2685561180114746,1.7364875078201294,0.3591499924659729,-1.1658624410629272,0,5
76,-1.8572449684143064,-0.7911159992218018,1.923305988311768,1.9551124572753904,0.45210000872612,-1.0106250047683716,0,5
77,-2.075148105621338,-0.9472100138664246,-0.1127720028162002,2.045587539672852,0.5461499691009521,-0.7919999957084656,0,5
78,-2.2512309551239014,-0.9035829901695251,-1.9753509759902956,1.9355875253677368,0.5009124875068665,-0.5378999710083008,0,5
79,-2.155081987380981,-0.557433009147644,-3.036397933959961,1.6570124626159668,0.340862512588501,-0.2983750104904175,0,5
80,-1.5397059917449951,-0.44964799284935,-3.225522041320801,1.297862529754639,0.1588124930858612,-0.1200374960899353,0,5
81,-0.6862919926643372,-0.4799109995365143,-3.040457010269165,0.952187478542328,0.135574996471405,-0.0492249988019466,0,5
82,-0.1922059953212738,-0.4800939857959747,-2.052830934524536,0.6956124901771545,0.329862505197525,-0.0735625028610229,0,5
83,-0.5247340202331543,-0.4979889988899231,-0.8214190006256104,0.5733749866485596,0.5937250256538391,-0.1260875016450882,0,5
84,-1.3420130014419556,-0.6736739873886108,-0.1047590002417564,0.6039000153541565,0.808775007724762,-0.1053249984979629,0,5
85,-1.9256409406661987,-0.7370219826698303,-0.21594899892807,0.7126625180244446,0.8392999768257141,0.022962499409914,0,5
86,-1.7192929983139038,-0.735496997833252,-1.0620219707489014,0.7761874794960022,0.6549124717712402,0.2061125040054321,0,5
87,-0.5116810202598572,-0.7555680274963379,-2.056770086288452,0.7126625180244446,0.3579125106334686,0.3368749916553497,0,5
88,0.4994449913501739,-0.5432689785957336,-2.7772459983825684,0.5355625152587891,0.1222374960780143,0.3161124885082245,0,5
89,0.9469040036201476,-0.3254919946193695,-3.016309976577759,0.3057999908924103,0.0097624994814395,0.1988250017166137,0,5
90,0.6576989889144897,-0.1773180067539215,-3.0815210342407227,0.0639375001192092,-0.0207624994218349,0.0692999958992004,0,5
91,0.0752059966325759,-0.0825299993157386,-2.910288095474243,-0.169400006532669,0.0147124994546175,0.0107249999418854,0,5
92,-0.3617309927940368,0.0346480011940002,-2.276995897293091,-0.3917374908924103,0.0342375002801418,0.0302499998360872,0,5
93,-0.1906049996614456,0.0693930014967918,-1.298274040222168,-0.5383124947547913,0.0769999995827674,0.0827749967575073,0,5
94,0.0488389991223812,0.0364239998161792,-0.6385329961776733,-0.565262496471405,0.2370499968528747,0.1182499974966049,0,5
95,0.1907929927110672,0.022979000583291,-0.1344660073518753,-0.5102624893188477,0.4459125101566314,0.1438249945640564,0,5
96,0.2528620064258575,0.0453800000250339,0.034800998866558,-0.4307875037193298,0.524150013923645,0.1597750037908554,0,5
97,0.4254949986934662,0.0475969985127449,0.0162179991602897,-0.3672625124454498,0.4324375092983246,0.1597750037908554,0,5
98,0.7289909720420837,0.0713419988751411,0.1037300005555152,-0.3294500112533569,0.1905750036239624,0.1280124932527542,0,5
99,0.8764299750328064,0.1165490001440048,0.2913089990615845,-0.2976875007152557,-0.107524998486042,0.0570624992251396,0,5
100,-0.0923319980502128,-0.0362909995019435,-0.6337490081787109,-0.201162502169609,0.103812500834465,0.002199999988079,1,5
101,-0.1797109991312027,-0.030579999089241,-0.6238260269165039,-0.2671625018119812,0.1465750038623809,0.0192499998956918,1,5
102,-0.1276089996099472,-0.0545989982783794,-0.2699829936027527,-0.3209249973297119,0.1698125004768371,0.0437249988317489,1,5
103,0.0742340013384819,-0.1407179981470108,0.1072840020060539,-0.3319250047206878,0.1759999990463256,0.0607750006020069,1,5
104,0.2656689882278442,-0.1743229925632476,0.1659130007028579,-0.2989250123500824,0.1870000064373016,0.0460624992847442,1,5
105,0.3955839872360229,-0.1823679953813552,-0.2599909901618957,-0.2817375063896179,0.1771000027656555,0.0167750008404254,1,5
106,0.3198649883270263,-0.1522849947214126,-0.6345670223236084,-0.3232625126838684,0.1417624950408935,-0.0197999998927116,1,5
107,0.1724169999361038,-0.0715159997344017,-0.7493370175361633,-0.4064500033855438,0.1002374961972236,-0.0430375002324581,1,5
108,0.0785439983010292,0.021773999556899,-0.4854570031166076,-0.4894999861717224,0.0672374963760376,-0.0455125011503696,1,5
109,-0.0182080008089542,0.0958039984107017,-0.2317119985818863,-0.5420249700546265,0.0280499998480081,-0.0503249987959861,1,5
110,-0.0662140026688575,0.1062100008130073,0.1789990067481994,-0.5590749979019165,-0.0219999998807907,-0.0602249987423419,1,5
111,-0.1080060005187988,0.231223002076149,0.6388339996337891,-0.5273125171661377,-0.1172875016927719,-0.0723249986767768,1,5
112,0.2940770089626312,0.2442280054092407,0.8021000027656555,-0.4442625045776367,-0.2296250015497207,-0.0857999995350837,1,5
113,1.0963009595870972,0.2605000138282776,0.97775000333786,-0.3697375059127807,-0.3481499850749969,-0.1530375033617019,1,5
114,1.1429799795150757,0.4011819958686828,1.354112982749939,-0.2915000021457672,-0.4006749987602234,-0.3081375062465668,1,5
115,0.6421499848365784,0.485617995262146,1.7542569637298584,-0.18521249294281,-0.4471499919891357,-0.4499000012874603,1,5
116,-0.2517339885234833,0.7615180015563965,2.3608269691467285,-0.0679249987006187,-0.5436750054359436,-0.5268999934196472,1,5
117,-1.0590280294418335,0.9579820036888124,3.067636013031006,0.0932250022888183,-0.6732000112533569,-0.5304750204086304,1,5
118,-1.3674770593643188,0.9506279826164246,3.7864348888397217,0.3119874894618988,-0.813587486743927,-0.4681875109672546,1,5
119,-1.3805780410766602,0.8327530026435852,4.357460975646973,0.5941374897956848,-0.9211124777793884,-0.3790875077247619,1,5
120,-0.9512190222740172,0.5111920237541199,4.556331157684326,0.9264749884605408,-0.954112470149994,-0.2947999835014343,1,5
121,-0.1784009933471679,0.1820680052042007,5.025623798370361,1.2563375234603882,-0.944350004196167,-0.2678500115871429,1,5
122,0.3522689938545227,-0.2632229924201965,5.103409767150879,1.6057250499725342,-0.8320124745368958,-0.3253250122070312,1,5
123,0.2518180012702942,-0.4459980130195617,6.397215843200684,1.9540125131607056,-0.7452499866485596,-0.4437125027179718,1,5
124,-0.4366019964218139,-0.6331409811973572,6.60584020614624,2.3802623748779297,-0.6939625144004822,-0.5464249849319458,1,5
125,-0.4709050059318542,-1.4020060300827026,6.624711036682129,2.840887546539306,-0.5754374861717224,-0.567187488079071,1,5
126,-0.6810389757156372,-1.7920180559158323,6.021060943603516,3.250225067138672,-0.4886749982833862,-0.5549499988555908,1,5
127,-1.466372013092041,-1.9724520444869995,4.035656929016113,3.620374917984009,-0.1942874938249588,-0.4633750021457672,1,5
128,-2.037930011749268,-2.0403668880462646,2.5586531162261963,3.809712409973145,0.075762502849102,-0.2433750033378601,1,5
129,-2.2902960777282715,-1.7417800426483154,1.1206719875335691,3.7852375507354736,0.1332374960184097,0.0412499979138374,1,5
130,-1.6622300148010254,-1.8574140071868896,-0.1870000064373016,3.680187463760376,0.1893374919891357,0.3320625126361847,1,5
131,-0.4126990139484405,-1.940152049064636,-0.6818659901618958,3.5348498821258545,0.1845249980688095,0.5274500250816345,1,5
132,0.1546030044555664,-1.9591100215911863,-1.65339994430542,3.382087469100952,0.2015749961137771,0.5739250183105469,1,5
133,0.4889050126075744,-2.192111015319824,-2.5678720474243164,3.203749895095825,0.3042874932289123,0.56045001745224,1,5
134,0.4049499928951263,-2.283945083618164,-3.745548963546753,2.939887523651123,0.4496249854564667,0.5396875143051147,1,5
135,0.0041240002028644,-2.3806300163269043,-5.18177604675293,2.5647873878479004,0.7097749710083008,0.5579749941825867,1,5
136,-0.4122500121593475,-2.413088083267212,-6.149477958679199,2.083400011062622,1.0641125440597534,0.622737467288971,1,5
137,-0.6303820013999939,-2.3361709117889404,-6.9960479736328125,1.537387490272522,1.43426251411438,0.7290250062942505,1,5
138,-0.5578359961509705,-2.356945037841797,-7.370091915130615,0.9326624870300292,1.6530250310897827,0.8512625098228455,1,5
139,-0.7046149969100952,-2.3270881175994877,-7.333786964416504,0.3217499852180481,1.69207501411438,0.9257875084877014,1,5
140,-1.0380280017852783,-2.255105972290039,-7.366663932800293,-0.2182125002145767,1.6700749397277832,0.9710249900817872,1,5
141,-1.2328200340270996,-2.108207941055298,-7.35850191116333,-0.7056499719619751,1.596787452697754,1.045549988746643,1,5
142,-1.3634109497070312,-2.152729034423828,-7.594170093536377,-1.1735625267028809,1.485550045967102,1.1615999937057495,1,5
143,-1.5922410488128662,-2.2289938926696777,-7.709578037261963,-1.657425045967102,1.4232624769210815,1.297175049781799,1,5
144,-1.6600539684295654,-2.439542055130005,-7.537435054779053,-2.153387546539306,1.3952125310897827,1.4327499866485596,1,5
145,-1.6573619842529297,-2.725327968597412,-6.8500518798828125,-2.6274874210357666,1.3414499759674072,1.5707999467849731,1,5
146,-1.308493971824646,-2.7582249641418457,-6.207129001617432,-3.053874969482422,1.2412124872207642,1.7137999534606934,1,5
147,0.344866007566452,-2.7441909313201904,-6.022192001342773,-3.442312479019165,1.15568745136261,1.8053749799728396,1,5
148,1.782075047492981,-2.6305160522460938,-5.579460144042969,-3.8003625869750977,1.0775874853134155,1.7210874557495115,1,5
149,2.322895050048828,-2.368695974349976,-5.049781799316406,-4.108224868774414,0.9150624871253968,1.4950374364852903,1,5
150,2.8694489002227783,-2.1671628952026367,-4.236412048339844,-4.411137580871582,0.5839625000953674,1.2177000045776367,1,5
151,3.3244800567626958,-1.820240020751953,-1.9936219453811648,-4.7141876220703125,0.075762502849102,0.9085999727249146,1,5
152,3.30445408821106,-1.2523200511932373,2.225456953048706,-4.827762603759766,-0.5522000193595886,0.5909749865531921,1,5
153,3.37261700630188,-0.4936710000038147,6.39968204498291,-4.496662616729736,-1.1691625118255615,0.3026374876499176,1,5
154,4.068579196929932,-0.0992539972066879,8.377159118652344,-3.697649955749512,-1.5747874975204468,0.0559624992311,1,5
155,4.411531925201416,0.2970809936523437,8.783853530883789,-2.683724880218506,-1.7531249523162842,-0.2177999913692474,1,5
156,4.832804203033447,1.183688044548035,7.373066902160644,-1.768662452697754,-1.710362434387207,-0.4974749982357025,1,5
157,5.451437950134277,1.6090940237045288,5.613133907318115,-1.1492249965667725,-1.4330250024795532,-0.7980499863624573,1,5
158,5.015907764434815,1.615162014961243,3.697887897491455,-0.8449375033378601,-0.957825005054474,-1.1791999340057373,1,5
159,3.658236026763916,1.4148789644241333,2.936315059661865,-0.7301250100135803,-0.3958624899387359,-1.467537522315979,1,5
160,2.7426578998565674,1.257091045379639,2.930198907852173,-0.692312479019165,-0.0037124999798834,-1.5800124406814575,1,5
161,2.23520302772522,1.2423080205917358,3.3899788856506348,-0.600600004196167,0.3238124847412109,-1.625112533569336,1,5
162,1.6987589597702026,1.2846980094909668,4.071217060089111,-0.4222624897956848,0.5913875102996826,-1.687537431716919,1,5
163,0.7820479869842529,1.2349580526351929,4.741452217102051,-0.1742125004529953,0.7379624843597412,-1.7228749990463257,1,5
164,0.6035749912261963,0.7885980010032654,5.000820159912109,0.1446499973535537,0.7147250175476074,-1.6801124811172483,1,5
165,0.6917700171470642,0.1046060025691986,4.126475811004639,0.4965125024318695,0.6659125089645386,-1.638587474822998,1,5
166,-0.0527339987456798,-0.2235160022974014,2.9479410648345947,0.7981874942779541,0.6951999664306641,-1.6055874824523926,1,5
167,-1.0655219554901123,-0.2577950060367584,1.8634049892425537,0.9754250049591064,0.6682500243186951,-1.4957250356674194,1,5
168,-1.649641036987305,-0.3510389924049377,0.815796971321106,1.030287504196167,0.4324375092983246,-1.3149124383926392,1,5
169,-1.566465973854065,-0.3520770072937011,0.268431007862091,0.994949996471405,0.0402874983847141,-1.1206250190734863,1,5
170,-1.0938730239868164,-0.2612519860267639,0.3158299922943115,0.9374749660491944,-0.3554374873638153,-0.9581000208854676,1,5
171,-0.1373270004987716,-0.2760339975357055,0.5958330035209656,0.912999987602234,-0.559487521648407,-0.8835750222206116,1,5
172,-0.0503459982573986,-0.2694660127162933,0.3619529902935028,0.9631875157356262,-0.3603875041007995,-0.9068124890327454,1,5
173,-0.5496299862861633,-0.5113850235939026,0.0278469994664192,1.020524978637695,0.0207624994218349,-0.9202874898910522,1,5
174,-1.6749049425125122,-0.5057330131530762,-0.367680013179779,1.0230000019073486,0.2993375062942505,-0.8310499787330627,1,5
175,-2.377837896347046,-0.5593709945678711,-0.9582629799842834,0.9924749732017516,0.3641000092029571,-0.589187502861023,1,5
176,-2.231137990951538,-0.6590489745140076,-1.729511022567749,0.890999972820282,0.2138125002384185,-0.3020874857902527,1,5
177,-1.3705660104751587,-0.4748199880123138,-2.4014968872070312,0.6980875134468079,-0.0060499999672174,-0.0930875018239021,1,5
178,-0.2696030139923095,-0.4487249851226806,-2.848468065261841,0.4463250041007995,-0.1270499974489212,-0.0075624999590218,1,5
179,0.4078310132026672,-0.4613359868526459,-3.028136968612671,0.1824624985456466,-0.0805749967694282,-0.0235124994069337,1,5
180,0.6264169812202454,-0.4026789963245392,-2.5355091094970703,-0.0753500014543533,0.0195249989628791,-0.0857999995350837,1,5
181,0.2744880020618438,-0.1889850050210952,-1.7640830278396606,-0.2866874933242798,0.1148125007748603,-0.1688500046730041,1,5
182,-0.1903499960899353,-0.2378620058298111,-0.6277729868888855,-0.3867875039577484,0.2211000025272369,-0.2092749923467636,1,5
183,-0.6703550219535828,-0.2528110146522522,0.1890369951725006,-0.3746874928474426,0.3005749881267547,-0.1908500045537948,1,5
184,-0.8300560116767883,-0.2532919943332672,0.4460279941558838,-0.2659249901771545,0.3701499998569488,-0.0992750003933906,1,5
185,-0.5029240250587463,-0.2147720009088516,0.3432340025901794,-0.1498750001192093,0.3860999941825866,0.0119624994695186,1,5
186,-0.1434379965066909,-0.0968919992446899,-0.0238429997116327,-0.0776875019073486,0.3335750102996826,0.0877249985933303,1,5
187,0.5550540089607239,-0.0720909982919693,-0.3003289997577667,-0.0655874982476234,0.1955250054597854,0.1194875016808509,1,5
188,0.898593008518219,0.0750019997358322,-0.2734079957008362,-0.1046374961733818,0.0072874999605119,0.0864875018596649,1,5
189,0.7378119826316833,0.1295289993286132,0.0493850000202655,-0.1363999992609024,-0.1440999954938888,0.022962499409914,1,5
190,0.3524489998817444,0.1619620025157928,0.6380370259284973,-0.1254000067710876,-0.2761000096797943,-0.0149875003844499,1,5
191,0.1206410005688667,0.2049690037965774,0.931098997592926,-0.0483999997377395,-0.340862512588501,0.0009624999947845,1,5
192,0.2274879962205886,0.2864280045032501,0.7082300186157227,0.0724624991416931,-0.2773374915122986,0.0400125011801719,1,5
193,0.3670659959316253,0.3285430073738098,-0.0298330001533031,0.1592250019311905,-0.0818125009536743,0.0692999958992004,1,5
194,0.4807650148868561,0.3124040067195892,-0.6764360070228577,0.1409374922513961,0.1234750002622604,0.0900624990463256,1,5
195,0.4911609888076782,0.3595860004425049,-0.8340110182762146,0.0406999997794628,0.2590500116348266,0.0987249985337257,1,5
196,0.4866740107536316,0.2685909867286682,-0.534604012966156,-0.0606375001370906,0.3078624904155731,0.0998250022530555,1,5
197,0.5089880228042603,0.2155050039291381,-0.1067019999027252,-0.1143999993801117,0.2675749957561493,0.0840125009417533,1,5
198,0.4998719990253448,0.2016160041093826,0.2749249935150146,-0.1106875017285347,0.167337492108345,0.0559624992311,1,5
199,0.5276579856872559,0.2254019975662231,0.5028349757194519,-0.0716374963521957,0.0257124993950128,0.0192499998956918,1,5
200,-0.0006329999887384,0.0404950007796287,-0.2908290028572082,0.039462499320507,0.017187500372529,-0.0087999999523162,2,5
201,-0.0179200004786252,-0.0050610001198947,-0.3545660078525543,-0.0081124994903802,0.0562375001609325,-0.0015124999918043,2,5
202,0.0207850001752376,-0.0114630004391074,-0.4130040109157562,-0.0581624992191791,0.0720499977469444,0.004537499975413,2,5
203,0.0987920016050338,-0.0174979995936155,-0.4419730007648468,-0.1046374961733818,0.0892374962568283,0.0032999999821186,2,5
204,0.0929339975118637,0.0303390007466077,-0.3701030015945434,-0.15344999730587,0.0818125009536743,-0.0087999999523162,2,5
205,0.0870760008692741,-0.0018670000135898,-0.3257989883422851,-0.1901624947786331,0.0635249987244606,-0.0222750008106231,2,5
206,0.0370509997010231,-0.0704519972205162,-0.4813359975814819,-0.2182125002145767,0.0635249987244606,-0.0307999998331069,2,5
207,-0.1827840059995651,-0.0248860009014606,-0.4245859980583191,-0.2634499967098236,0.0732875019311904,-0.0307999998331069,2,5
208,-0.3800359964370727,-0.0532930009067058,-0.0970380008220672,-0.3049750030040741,0.0635249987244606,-0.0087999999523162,2,5
209,-0.4509620070457458,-0.1116139963269233,0.1837520003318786,-0.3049750030040741,0.0280499998480081,0.0350624993443489,2,5
210,-0.3495489954948425,-0.2123820036649704,0.1156869977712631,-0.2707374989986419,-0.0317624993622303,0.0827749967575073,2,5
211,-0.0402389988303184,-0.1949149966239929,-0.3653270006179809,-0.2524499893188476,-0.1013374999165535,0.1108250021934509,2,5
212,0.3818300068378448,-0.1465560048818588,-0.7441030144691467,-0.2952125072479248,-0.1636250019073486,0.1023000031709671,2,5
213,0.6254810094833374,-0.1223039999604225,-1.00655996799469,-0.3867875039577484,-0.2248124927282333,0.0595375001430511,2,5
214,0.6423689723014832,-0.0783599987626075,-1.0465480089187622,-0.5005000233650208,-0.2688125073909759,-0.010037500411272,2,5
215,0.3673099875450134,0.004749999847263,-0.9684720039367676,-0.6153125166893005,-0.3115749955177307,-0.0735625028610229,2,5
216,-0.1524939984083175,0.1650750041007995,-0.6301190257072449,-0.7240750193595886,-0.3871999979019165,-0.106562502682209,2,5
217,-0.4082260131835937,0.2585670053958893,0.268667995929718,-0.7998374700546265,-0.5057250261306763,-0.106562502682209,2,5
218,0.5260419845581055,0.1841630041599273,1.9295589923858645,-0.7583125233650208,-0.6157249808311462,-0.0907500013709068,2,5
219,1.152003049850464,0.3952620029449463,3.1986539363861084,-0.5493124723434448,-0.5644375085830688,-0.1933249980211258,2,5
220,1.043385028839111,0.7309989929199219,4.510340213775635,-0.2121624946594238,-0.4434374868869781,-0.3753750026226043,2,5
221,0.5328140258789062,0.8024759888648987,5.180199146270752,0.178749993443489,-0.4104374945163727,-0.5402374863624573,2,5
222,0.1462769955396652,0.5924829840660095,6.165310859680176,0.6015625,-0.4409624934196472,-0.6441875100135803,2,5
223,0.2102800011634826,0.4320659935474396,7.942872047424316,1.0938124656677246,-0.5669124722480774,-0.7394750118255615,2,5
224,-0.4800049960613251,0.1004799976944923,8.563623428344727,1.729200005531311,-0.5143874883651733,-0.8273375034332275,2,5
225,-1.4356390237808228,-0.6687719821929932,8.960199356079102,2.4169750213623047,-0.4092000126838684,-0.8188124895095825,2,5
226,-1.9420499801635744,-1.3864840269088743,8.562414169311523,3.048650026321411,-0.5484874844551086,-0.716237485408783,2,5
227,-1.9960230588912964,-1.8825299739837649,7.419797897338867,3.621612548828125,-0.7660124897956848,-0.5574250221252441,2,5
228,-1.4192869663238523,-2.0214109420776367,6.070113182067871,4.080999851226807,-0.93087500333786,-0.3911874890327453,2,5
229,-1.0802069902420044,-2.295417070388794,3.709485054016113,4.408387660980225,-0.7232499718666077,-0.2433750033378601,2,5
230,-1.301010012626648,-2.3286709785461426,2.1127049922943115,4.540249824523926,-0.2846249938011169,-0.1040875017642974,2,5
231,-1.7424410581588743,-2.173659086227417,0.4518330097198486,4.496387481689453,0.1245749965310096,0.1095874980092048,2,5
232,-1.6222649812698364,-2.431375026702881,-0.8236240148544312,4.360674858093262,0.5436750054359436,0.4285874962806701,2,5
233,-1.1447099447250366,-2.440114021301269,-1.9724459648132324,4.127337455749512,0.7330124974250793,0.7277874946594238,2,5
234,-0.0464919991791248,-2.4539060592651367,-4.471190929412842,3.791424989700317,0.8710625171661377,0.9245499968528748,2,5
235,0.8145899772644043,-2.243577003479004,-6.334927082061768,3.23303747177124,1.032349944114685,0.9783124923706056,2,5
236,0.9465309977531432,-1.8173370361328125,-6.892914772033691,2.486550092697144,1.0286375284194946,0.9160249829292296,2,5
237,0.662077009677887,-1.548550009727478,-6.454843997955322,1.7621999979019165,0.9590625166893004,0.7827875018119812,2,5
238,-0.2643280029296875,-1.6288690567016602,-5.432844161987305,1.1757625341415403,0.8870124816894531,0.6545000076293945,2,5
239,-1.4908629655838013,-1.8360179662704468,-5.228998184204102,0.7444249987602234,0.9223499894142152,0.6594499945640564,2,5
240,-2.195030927658081,-2.380418062210083,-5.3404622077941895,0.3535124957561493,1.131350040435791,0.8377875089645386,2,5
241,-2.6997509002685547,-2.5165929794311523,-5.045949935913086,-0.0569249987602233,1.363450050354004,1.0918874740600586,2,5
242,-3.1371660232543945,-2.5580410957336426,-4.761213779449463,-0.3977875113487243,1.6663625240325928,1.3961750268936155,2,5
243,-3.428986072540283,-2.8700900077819824,-4.561582088470459,-0.6653624773025513,1.963362455368042,1.7333250045776367,2,5
244,-3.782684087753296,-3.130880117416382,-4.510773181915283,-0.902412474155426,2.1344125270843506,2.0961875915527344,2,5
245,-3.206906080245972,-3.3011679649353027,-4.531370162963867,-1.1467499732971191,2.1209375858306885,2.463862419128418,2,5
246,-2.431191921234131,-3.1388070583343506,-4.559789180755615,-1.4130874872207642,1.905887484550476,2.722912549972534,2,5
247,-0.5686079859733582,-2.903925895690918,-4.80959415435791,-1.6684249639511108,1.5210249423980713,2.8437750339508057,2,5
248,1.6281379461288452,-2.4569880962371826,-4.775668144226074,-1.9262374639511108,0.9761124849319458,2.75219988822937,2,5
249,2.8208839893341064,-1.7892390489578247,-4.933910846710205,-2.174149990081787,0.4141499996185303,2.4382874965667725,2,5
250,3.874021053314209,-1.2703739404678345,-6.044405937194824,-2.435674905776977,0.0464750006794929,2.0179500579833984,2,5
251,3.802515983581543,-0.9786829948425292,-6.810929775238037,-2.820537567138672,-0.1343374997377395,1.5780874490737915,2,5
252,2.6064510345458984,-1.037906050682068,-6.949611186981201,-3.329974889755249,-0.183287501335144,1.2519375085830688,2,5
253,1.8373420238494875,-1.333258032798767,-6.7338690757751465,-3.861412525177002,-0.1612875014543533,1.111412525177002,2,5
254,1.6211849451065063,-1.6978700160980225,-5.725708961486816,-4.375662326812744,-0.1625249981880188,1.0723625421524048,2,5
255,3.2389979362487797,-1.9371939897537231,-4.183028221130371,-4.79476261138916,-0.2455749958753585,1.0491249561309814,2,5
256,5.880908966064453,-2.054874897003174,-2.8246960639953613,-5.074574947357178,-0.3713875114917755,0.8402624726295471,2,5
257,7.8387770652771,-2.129401922225952,-0.8119440078735352,-5.233387470245361,-0.4459125101566314,0.2795374989509582,2,5
258,7.596824169158935,-1.9131230115890503,2.147610902786255,-5.241912364959717,-0.5644375085830688,-0.4828999936580658,2,5
259,6.102766990661621,-1.3212560415267944,5.51922082901001,-5.015862464904785,-0.808775007724762,-1.1328624486923218,2,5
260,4.458459854125977,-0.7422119975090027,8.456199645996094,-4.464900016784668,-1.0823999643325806,-1.5690125226974487,2,5
261,3.606877088546753,0.0395170003175735,10.372785568237305,-3.596312522888184,-1.288925051689148,-1.8475874662399288,2,5
262,3.31583309173584,0.7110869884490967,10.586888313293455,-2.5541999340057373,-1.3439249992370603,-2.0539751052856445,2,5
263,3.125356912612915,1.1110329627990725,9.985309600830078,-1.549899935722351,-1.1044000387191772,-2.242074966430664,2,5
264,1.5254559516906738,1.3369319438934326,9.103455543518066,-0.7325999736785889,-0.7232499718666077,-2.380125045776367,2,5
265,-0.2906500101089477,1.4131040573120115,8.530900955200195,-0.0911625027656555,-0.4409624934196472,-2.333787441253662,2,5
266,-0.4549239873886108,0.9947260022163392,7.784918785095215,0.490325003862381,-0.345674991607666,-2.111449956893921,2,5
267,-0.4237639904022217,0.5000849962234497,5.612669944763184,1.0267125368118286,-0.1282874941825866,-1.8939249515533447,2,5
268,-0.967648983001709,0.0253720004111528,3.181705951690674,1.341862440109253,0.2846249938011169,-1.6863000392913818,2,5
269,-1.1545820236206057,-0.3331820070743561,1.196810960769653,1.3235750198364258,0.6732000112533569,-1.4284875392913818,2,5
270,-0.2285750061273574,-0.4697679877281189,0.1587470024824142,1.0817124843597412,1.0165375471115112,-1.188962459564209,2,5
271,0.3435629904270172,-0.4909340143203735,-0.0699350014328956,0.803137481212616,1.4612125158309937,-1.092574954032898,2,5
272,0.4517369866371155,-0.6103259921073914,0.5778220295906067,0.5820375084877014,1.784887433052063,-1.0986249446868896,2,5
273,0.2996689975261688,-0.7287740111351013,1.5130419731140137,0.4817999899387359,1.6945500373840332,-1.1364375352859497,2,5
274,-0.1714449971914291,-0.8272969722747803,2.441788911819458,0.5478000044822693,1.2583999633789062,-1.188962459564209,2,5
275,-0.2942500114440918,-0.807108998298645,3.5790839195251465,0.7836124897003174,0.5779125094413757,-1.2196249961853027,2,5
276,-0.4992510080337524,-0.4944910109043121,3.565335988998413,1.1610499620437622,-0.1062875017523765,-1.270912528038025,2,5
277,-1.280884027481079,-0.4606580138206482,2.2460720539093018,1.5727249383926392,-0.4409624934196472,-1.3039125204086304,2,5
278,-2.0279769897460938,-0.5819839835166931,0.040897998958826,1.800012469291687,-0.4496249854564667,-1.230625033378601,2,5
279,-2.834278106689453,-0.633903980255127,-2.152947902679444,1.754775047302246,-0.2223374992609024,-1.0143375396728516,2,5
280,-2.8872079849243164,-0.6393409967422485,-3.436988115310669,1.4616249799728394,0.0842875018715858,-0.7077124714851379,2,5
281,-2.278455972671509,-0.6500679850578308,-3.740246057510376,1.042525053024292,0.3163875043392181,-0.4144249856472015,2,5
282,-1.2208789587020874,-0.7767189741134644,-3.4372448921203613,0.6503750085830688,0.5021499991416931,-0.2202749997377395,2,5
283,-0.2739140093326568,-0.7519140243530273,-2.5123510360717773,0.3535124957561493,0.6144874691963196,-0.1640374958515167,2,5
284,0.0937459990382194,-0.6266570091247559,-1.6972839832305908,0.1836999952793121,0.6364874839782715,-0.2128500044345855,2,5
285,0.1011800020933151,-0.6450570225715637,-1.0965609550476074,0.1164624989032745,0.5486249923706055,-0.2996124923229217,2,5
286,-0.3373839855194092,-0.4374009966850281,-0.4858640134334564,0.1031249985098838,0.3641000092029571,-0.383899986743927,2,5
287,-1.0689749717712402,-0.1788139939308166,-0.1766870021820068,0.1384624987840652,0.1747625023126602,-0.403425008058548,2,5
288,-1.320930004119873,-0.2385170012712478,0.0089130001142621,0.2069374918937683,0.0367125011980533,-0.3276624977588653,2,5
289,-1.278817057609558,-0.2968280017375946,-0.2009190022945404,0.2862749993801117,-0.0500499978661537,-0.2116124927997589,2,5
290,-1.0669280290603638,-0.2106329947710037,-0.6043890118598938,0.34375,-0.1160499975085258,-0.0809874981641769,2,5
291,-0.4721969962120056,-0.1356610059738159,-1.2929489612579346,0.3364624977111816,-0.1625249981880188,0.0412499979138374,2,5
292,0.3060570061206817,-0.1471199989318847,-1.9798779487609863,0.2227499932050705,-0.1405249983072281,0.0987249985337257,2,5
293,0.5654760003089905,-0.0244280006736516,-2.2466509342193604,0.0273624993860721,-0.0134749999269843,0.0912999957799911,2,5
294,0.6118019819259644,0.0389590002596378,-1.838742017745972,-0.1876875013113021,0.1552374958992004,0.0669625028967857,2,5
295,0.4593310058116913,0.0767159983515739,-0.9020959734916688,-0.3526875078678131,0.3042874932289123,0.0424874983727932,2,5
296,0.3340109884738922,0.029025999829173,0.3197459876537323,-0.3929750025272369,0.3848625123500824,0.026537500321865,2,5
297,0.2221609950065612,0.0536880008876323,1.2013570070266724,-0.3062124848365783,0.3665750026702881,0.0009624999947845,2,5
298,0.0698280036449432,0.0558580011129379,1.6390609741210938,-0.1241625025868415,0.2700499892234802,-0.0112749999389052,2,5
299,0.0129829999059438,0.0267200004309415,1.423156976699829,0.0871749967336654,0.107524998486042,-0.0052249999716877,2,5
300,0.0211420003324747,0.0080789998173713,-0.5053210258483887,-0.1303499937057495,0.058712501078844,-0.0235124994069337,3,5
301,0.0316720008850097,-0.0412259995937347,-0.2619569897651672,-0.1742125004529953,0.053762499243021,-0.0295624993741512,3,5
302,-0.0743739977478981,-0.0564230009913444,0.0044189998880028,-0.1839749962091446,0.0195249989628791,-0.0382249988615512,3,5
303,-0.1729660034179687,-0.1053100004792213,0.1150360032916069,-0.1571625024080276,-0.0378125011920928,-0.0369874984025955,3,5
304,-0.1635559946298599,-0.1097510010004043,-0.1637199968099594,-0.129112496972084,-0.0928125008940696,-0.0259875003248453,3,5
305,-0.0870539993047714,-0.0974059998989105,-0.605817973613739,-0.1388749927282333,-0.0977625027298927,-0.0087999999523162,3,5
306,0.1897419989109039,-0.1511690020561218,-1.0062170028686523,-0.1986874938011169,-0.0390499979257583,0.004537499975413,3,5
307,0.2431399971246719,-0.0373159982264041,-1.1913490295410156,-0.307449996471405,0.0257124993950128,-0.0027499999850988,3,5
308,0.1638430058956146,0.0595710016787052,-1.159212946891785,-0.4259749948978424,0.0989999994635582,-0.010037500411272,3,5
309,0.0319069996476173,0.0584050007164478,-0.8612970113754272,-0.5493124723434448,0.111237496137619,-0.0149875003844499,3,5
310,0.2050549983978271,0.0873790010809898,-0.5039010047912598,-0.6507874727249146,0.0965249985456466,-0.0222750008106231,3,5
311,0.6089910268783569,0.0320460014045238,0.0935499966144561,-0.7033125162124634,0.0500499978661537,-0.0492249988019466,3,5
312,0.8141520023345947,0.0649409964680671,0.7522349953651428,-0.6861249804496765,-0.0525249987840652,-0.1297999918460846,3,5
313,0.687978982925415,0.2410680055618286,1.326185941696167,-0.5908374786376953,-0.2003374993801117,-0.2421374917030334,3,5
314,0.823311984539032,0.3277269899845123,1.901103973388672,-0.4577375054359436,-0.40191251039505,-0.3436124920845032,3,5
315,0.9271299839019777,0.4259780049324035,2.468240976333618,-0.3037374913692474,-0.5607249736785889,-0.4694249927997589,3,5
316,0.5446130037307739,0.668757975101471,2.962229013442993,-0.1046374961733818,-0.6450124979019165,-0.6062374711036682,3,5
317,0.2220599949359893,0.7798920273780823,3.4804129600524902,0.1262249946594238,-0.734250009059906,-0.7039999961853027,3,5
318,-0.0768119990825653,0.7599509954452515,3.6192069053649902,0.3779875040054321,-0.8282999992370605,-0.7675250172615051,3,5
319,-0.231112003326416,0.6937689781188965,3.9182751178741455,0.6430875062942505,-0.8551124930381775,-0.8029999732971191,3,5
320,-0.4095819890499115,0.5788620114326477,4.349300861358643,0.911899983882904,-0.7965375185012817,-0.8212875127792358,3,5
321,-1.0389440059661863,0.2228579968214035,4.937180042266846,1.1990000009536743,-0.6621999740600586,-0.8188124895095825,3,5
322,-1.6032880544662476,0.0071000000461936,5.913772106170654,1.5189625024795532,-0.5814874768257141,-0.7552874684333801,3,5
323,-1.7430369853973389,-0.2357160001993179,6.193887233734131,1.9160624742507932,-0.5143874883651733,-0.6245250105857849,3,5
324,-2.072706937789917,-0.6695410013198853,5.642908096313477,2.353450059890747,-0.3726249933242798,-0.4523749947547912,3,5
325,-1.9025870561599727,-1.1265510320663452,4.677381038665772,2.720025062561035,-0.2688125073909759,-0.2763749957084656,3,5
326,-1.7901339530944824,-1.3880950212478638,3.5641989707946777,2.9667000770568848,-0.20762500166893,-0.1005124971270561,3,5
327,-1.1683379411697388,-1.5975600481033323,3.3309268951416016,3.107224941253662,-0.2345750033855438,0.0412499979138374,3,5
328,-0.7284460067749023,-1.59785795211792,3.5789480209350586,3.2416999340057373,-0.3126749992370605,0.0912999957799911,3,5
329,-0.6942219734191895,-1.9478039741516116,3.648598909378052,3.484799861907959,-0.2858625054359436,0.1120624989271164,3,5
330,-1.0154050588607788,-2.398893117904663,3.538027048110962,3.7669498920440674,-0.3078624904155731,0.1413500010967254,3,5
331,-1.1151130199432373,-2.662648916244507,1.6557990312576294,4.010049819946289,-0.2968625128269195,0.2378749996423721,3,5
332,-1.0759990215301514,-2.828124046325684,-0.6233220100402832,4.074812412261963,-0.1440999954938888,0.3748250007629394,3,5
333,-1.3595069646835327,-2.6125919818878174,-3.3303139209747314,3.880524873733521,0.1442375034093856,0.5348749756813049,3,5
334,-1.4941099882125854,-2.294774055480957,-5.693831920623779,3.4212749004364014,0.5827249884605408,0.7474499940872192,3,5
335,-1.3904420137405396,-2.2729649543762207,-7.099441051483154,2.7505500316619877,1.036062479019165,0.9770749807357788,3,5
336,-1.2394880056381226,-2.252140998840332,-7.6739678382873535,2.000349998474121,1.459975004196167,1.1811250448226929,3,5
337,-0.6363930106163025,-2.439440965652466,-8.207776069641113,1.2648625373840332,1.892412543296814,1.3349875211715698,3,5
338,-0.5229600071907043,-2.519205093383789,-7.792040824890137,0.527037501335144,2.201512575149536,1.411987543106079,3,5
339,-1.0544400215148926,-2.4237349033355717,-6.6238322257995605,-0.1326874941587448,2.296799898147583,1.45722496509552,3,5
340,-1.82323694229126,-2.4204370975494385,-5.557462215423584,-0.6153125166893005,2.3175625801086426,1.543987512588501,3,5
341,-2.3961689472198486,-2.6876349449157715,-5.114171028137207,-0.9499874711036682,2.295562505722046,1.7186124324798584,3,5
342,-2.080209970474243,-2.8504979610443115,-5.5055131912231445,-1.22979998588562,2.2442750930786133,1.9507124423980715,3,5
343,-0.3917700052261352,-2.9365339279174805,-6.001605033874512,-1.5866124629974363,2.118462562561035,2.115712404251098,3,5
344,0.9279329776763916,-2.7098278999328613,-6.018587112426758,-2.017812490463257,1.8911750316619875,2.094949960708618,3,5
345,1.3719379901885986,-2.3420090675354004,-5.434718132019043,-2.419724941253662,1.6505500078201294,1.9299499988555908,3,5
346,1.2386900186538696,-2.0300381183624268,-4.6044511795043945,-2.7398250102996826,1.3719749450683594,1.7479000091552734,3,5
347,0.8538560271263123,-1.8070019483566284,-4.271090030670166,-2.9671125411987305,1.0458250045776367,1.6208499670028689,3,5
348,1.1682250499725342,-1.5500249862670898,-4.717033863067627,-3.168687582015991,0.7159624695777893,1.561037540435791,3,5
349,2.8984858989715576,-1.3771430253982544,-5.708319187164307,-3.483837366104126,0.3689124882221222,1.4632749557495115,3,5
350,4.29060697555542,-1.6618150472640991,-6.569348812103272,-3.956700086593628,0.0159499999135732,1.200649976730347,3,5
351,4.878860950469971,-2.1368699073791504,-5.087215900421143,-4.50285005569458,-0.2798124849796295,0.8023124933242798,3,5
352,4.664899826049805,-1.947100043296814,-2.754471063613892,-4.94504976272583,-0.5631999969482422,0.4138749837875366,3,5
353,3.960581064224243,-1.546673059463501,-0.4603889882564544,-5.153912544250488,-0.7880125045776367,0.1108250021934509,3,5
354,3.2459840774536133,-1.2808079719543457,2.128537893295288,-5.119812488555908,-0.9516375064849854,-0.1347499936819076,3,5
355,2.465034008026123,-1.008718967437744,5.571685791015625,-4.833812236785889,-1.188687443733215,-0.3166624903678894,3,5
356,2.3119850158691406,-0.2059990018606186,9.058374404907228,-4.214512348175049,-1.481974959373474,-0.4804250001907348,3,5
357,3.178934097290039,0.6082620024681091,10.593826293945312,-3.233449935913086,-1.660312533378601,-0.6319500207901001,3,5
358,3.5771501064300537,0.8654990196228027,9.966135025024414,-2.115575075149536,-1.6333625316619873,-0.8762875199317932,3,5
359,2.9233720302581787,1.47154700756073,6.822690963745117,-1.2273249626159668,-1.5247374773025513,-1.167099952697754,3,5
360,2.521689891815185,1.610084056854248,3.5716569423675537,-0.8266500234603882,-1.4195499420166016,-1.3624874353408811,3,5
361,1.825646996498108,1.5775890350341797,2.237718105316162,-0.8401250243186951,-1.302262544631958,-1.538487434387207,3,5
362,1.3212260007858276,1.6179720163345337,3.973380088806152,-0.9121749997138976,-1.1031625270843506,-1.65577495098114,3,5
363,0.9693130254745485,1.6431180238723757,5.997574806213379,-0.7460749745368958,-0.8270624876022339,-1.7533999681472778,3,5
364,0.155126005411148,1.3839590549468994,7.10368013381958,-0.259737491607666,-0.345674991607666,-1.80840003490448,3,5
365,-0.1810600012540817,0.9864630103111268,7.467671871185303,0.3364624977111816,-0.0255750007927417,-1.7571125030517578,3,5
366,-0.3226529955863952,0.6486960053443909,6.681993007659912,0.9362375140190125,0.2028124928474426,-1.6935875415802002,3,5
367,-0.5293130278587341,0.308804988861084,5.273486137390137,1.4151500463485718,0.3579125106334686,-1.65577495098114,3,5
368,-0.2817470133304596,-0.1773400008678436,3.7417380809783936,1.7047250270843506,0.5179625153541565,-1.6068249940872192,3,5
369,-0.3891910016536712,-0.3621070086956024,2.6059799194335938,1.852537512779236,0.7709624767303467,-1.5775375366210938,3,5
370,-0.7196589708328247,-0.4443849921226501,1.7637970447540283,1.945349931716919,1.022587537765503,-1.5225374698638916,3,5
371,-1.105455994606018,-0.7301340103149414,0.6450309753417969,1.9893499612808228,1.0800625085830688,-1.4174875020980835,3,5
372,-1.5626310110092163,-1.0813390016555786,-0.5428910255432129,1.9588249921798704,0.9102500081062316,-1.25496244430542,3,5
373,-1.8853169679641724,-0.9552199840545654,-1.5164949893951416,1.8378249406814573,0.5791500210762024,-1.038812518119812,3,5
374,-1.7484420537948608,-1.0175939798355105,-2.139820098876953,1.6277250051498413,0.2626250088214874,-0.8127624988555908,3,5
375,-0.9949120283126832,-1.1586819887161257,-2.212306022644043,1.362625002861023,0.0977625027298927,-0.650237500667572,3,5
376,-0.0918079987168312,-1.1778219938278198,-1.6097569465637207,1.1402875185012815,0.2602874934673309,-0.5867124795913696,3,5
377,0.3981060087680816,-1.103240966796875,-0.5298680067062378,0.9900000095367432,0.5669124722480774,-0.6575250029563904,3,5
378,-0.2996200025081634,-1.116292953491211,0.5864840149879456,0.9839500188827516,0.9725375175476074,-0.7675250172615051,3,5
379,-1.7298699617385864,-1.3141440153121948,1.3007559776306152,1.1330000162124634,1.2083499431610107,-0.7504749894142151,3,5
380,-3.0984139442443848,-1.3305339813232422,0.8099439740180969,1.3601499795913696,1.0372999906539917,-0.5402374863624573,3,5
381,-3.1319820880889893,-1.2363990545272827,-0.7866489887237549,1.5056250095367432,0.5094375014305115,-0.1982749998569488,3,5
382,-2.337053060531616,-0.8463220000267029,-2.854949951171875,1.4103374481201172,-0.0965249985456466,0.0950125008821487,3,5
383,-1.0391700267791748,-0.4047679901123047,-4.456798076629639,1.0828125476837158,-0.4299624860286712,0.2525874972343445,3,5
384,0.2044800072908401,-0.2949169874191284,-4.960742950439453,0.6345624923706055,-0.4166249930858612,0.2903999984264374,3,5
385,1.0715739727020264,-0.1336469948291778,-4.132191181182861,0.1799875050783157,-0.2443374991416931,0.2135374993085861,3,5
386,1.2679790258407593,0.1853239983320236,-2.643908977508545,-0.1326874941587448,0.0525249987840652,0.0534874983131885,3,5
387,0.2817589938640594,0.2975449860095978,-1.1753809452056885,-0.2512125074863434,0.3811500072479248,-0.1127500012516975,3,5
388,-0.832834005355835,0.0881780013442039,-0.4686760008335113,-0.2267374992370605,0.6047250032424927,-0.1480875015258789,3,5
389,-1.4020949602127075,0.044378001242876,-0.3487629890441894,-0.1621125042438507,0.6499624848365784,-0.0492249988019466,3,5
390,-1.0982520580291748,0.0071069998666644,-0.6637150049209595,-0.1131625026464462,0.5814874768257141,0.0925374999642372,3,5
391,-0.5108199715614319,-0.0917019993066787,-0.9322370290756226,-0.1083500012755394,0.4593875110149383,0.208587497472763,3,5
392,0.0204579997807741,-0.0567829981446266,-1.0511809587478638,-0.1449249982833862,0.32133749127388,0.267300009727478,3,5
393,0.4331539869308471,0.006434999871999,-0.8616319894790649,-0.2048749923706054,0.1502874940633773,0.2708750069141388,3,5
394,0.9228190183639526,-0.0781430006027221,-0.4266949892044067,-0.2463999986648559,-0.0683375000953674,0.2355374991893768,3,5
395,1.3722180128097534,0.0128720002248883,-0.2037830054759979,-0.2389750033617019,-0.2138125002384185,0.1463000029325485,3,5
396,1.2272629737854004,0.1346009969711303,-0.1389510035514831,-0.1889249980449676,-0.1417624950408935,0.0302499998360872,3,5
397,0.6333709955215454,0.1596159934997558,-0.1333429962396621,-0.1351625025272369,0.0477125011384487,-0.0467500016093254,3,5
398,0.0449020005762577,0.1235359981656074,-0.2321819961071014,-0.1021625027060508,0.1905750036239624,-0.0552750006318092,3,5
399,-0.3893089890480041,0.2428259998559951,-0.3160420060157776,-0.0936374962329864,0.2345750033855438,-0.0039874999783933,3,5
400,-0.0785019993782043,0.1286240071058273,-0.372994989156723,-0.0496375001966953,-0.0915749967098236,-0.0833249986171722,4,5
401,-0.1994680017232895,0.1368449926376342,-0.1515299975872039,-0.0863500013947486,0.0280499998480081,-0.06751249730587,4,5
402,-0.2752450108528137,0.0521269999444484,0.1007699966430664,-0.1009249985218048,0.1099999994039535,-0.03575000166893,4,5
403,-0.2486079931259155,0.0108139999210834,0.1657440066337585,-0.0851124972105026,0.1405249983072281,-0.0015124999918043,4,5
404,-0.1169449985027313,-0.037236999720335,0.0691550001502037,-0.0691625028848648,0.1343374997377395,0.0252999998629093,4,5
405,0.0482500009238719,-0.0629279986023902,-0.0360470004379749,-0.0679249987006187,0.0989999994635582,0.0302499998360872,4,5
406,0.2277690023183822,-0.1533499956130981,-0.2202329933643341,-0.0813999995589256,0.0464750006794929,0.0131999999284744,4,5
407,0.2709180116653442,-0.1806669980287552,-0.4394049942493438,-0.1156374961137771,-0.0072874999605119,-0.0235124994069337,4,5
408,-0.0039789997972548,-0.1321119964122772,-0.8133080005645752,-0.1706375032663345,-0.0219999998807907,-0.0467500016093254,4,5
409,-0.2303240001201629,-0.148959994316101,-1.28200101852417,-0.259737491607666,0.058712501078844,-0.0332750007510185,4,5
410,-0.5068349838256836,-0.1455830037593841,-1.6370749473571775,-0.4052124917507171,0.2015749961137771,0.0142999999225139,4,5
411,-0.684935986995697,-0.1209470033645629,-1.722383975982666,-0.5847874879837036,0.3603875041007995,0.0877249985933303,4,5
412,-0.9336659908294678,-0.1266389936208725,-1.2485209703445437,-0.7655999660491943,0.4166249930858612,0.1695374995470047,4,5
413,-0.7966240048408508,-0.2060319930315017,-0.537992000579834,-0.8841249942779541,0.3261500000953674,0.2440624982118606,4,5
414,-0.1560360044240951,-0.2676210105419159,0.0511660017073154,-0.9158874750137328,0.1197625026106834,0.2843500077724457,4,5
415,0.4552330076694488,-0.2985050082206726,0.4009189903736114,-0.8646000027656555,-0.1428624987602234,0.2452999949455261,4,5
416,0.8146179914474487,-0.1279949992895126,0.4036130011081695,-0.7728874683380127,-0.4386250078678131,0.1340624988079071,4,5
417,0.9998350143432616,-0.0184409990906715,0.7321419715881348,-0.7008374929428101,-0.7745375037193298,0.002199999988079,4,5
418,1.1175179481506348,0.3850260078907013,1.24692702293396,-0.6177874803543091,-0.970062494277954,-0.1615625023841858,4,5
419,1.2791999578475952,0.5564579963684082,2.412483930587769,-0.4625499844551086,-0.9321125149726868,-0.3301374912261963,4,5
420,1.170470952987671,0.87847501039505,3.8008410930633545,-0.2109249979257583,-0.7647749781608582,-0.5304750204086304,4,5
421,0.3014259934425354,1.0913039445877075,5.081334114074707,0.1689874976873397,-0.5216749906539917,-0.6905249953269958,4,5
422,-0.5042750239372253,1.0038310289382937,6.28403377532959,0.6186124682426453,-0.4703874886035919,-0.7504749894142151,4,5
423,-0.8390160202980042,0.6556850075721741,7.329522132873535,1.1512874364852903,-0.6194375157356262,-0.7504749894142151,4,5
424,-0.6868810057640076,0.2222259938716888,8.510720252990723,1.7670124769210815,-0.8747749924659729,-0.7504749894142151,4,5
425,-0.4578079879283905,-0.4215590059757232,8.46189022064209,2.460974931716919,-1.0701625347137451,-0.7602375149726868,4,5
426,-0.4538390040397644,-1.1529159545898438,7.268630981445312,3.140224933624268,-1.0958750247955322,-0.7577624917030334,4,5
427,-0.7218170166015625,-1.39239501953125,5.557853221893311,3.639899969100952,-1.081162452697754,-0.7309499979019165,4,5
428,-1.0359020233154297,-1.3476450443267822,3.283332109451294,3.927000045776367,-0.8833000063896179,-0.6404749751091003,4,5
429,-1.0799189805984497,-1.2985039949417114,2.1747050285339355,3.9892873764038086,-0.5741999745368958,-0.4926624894142151,4,5
430,-0.9170070290565492,-1.2866859436035156,1.264847993850708,3.927000045776367,-0.20762500166893,-0.3386625051498413,4,5
431,-1.1335430145263672,-1.722208023071289,0.4998509883880615,3.8586623668670654,0.3066250085830688,-0.1640374958515167,4,5
432,-1.736572027206421,-2.038441896438598,0.4846360087394714,3.757187366485596,0.7147250175476074,0.0510125011205673,4,5
433,-2.1124210357666016,-2.2373170852661133,-0.4628039896488189,3.6838998794555664,1.0665874481201172,0.3894000053405761,4,5
434,-1.6602569818496704,-2.72091007232666,-1.3975729942321775,3.58489990234375,1.31573748588562,0.8023124933242798,4,5
435,-1.1958539485931396,-2.498389959335327,-2.696916103363037,3.352799892425537,1.2608749866485596,1.0870749950408936,4,5
436,-0.4334900081157684,-2.0781049728393555,-4.539084911346436,2.9961249828338623,1.215637445449829,1.2128875255584717,4,5
437,0.0566009990870952,-1.8690400123596191,-5.91099214553833,2.465787410736084,1.2083499431610107,1.2128875255584717,4,5
438,-0.2534829974174499,-1.8124920129776,-6.627264976501465,1.8060624599456787,1.1753499507904053,1.1701250076293943,4,5
439,-1.2551499605178833,-1.8712340593338013,-6.519721031188965,1.1598124504089355,1.2216874361038208,1.1664124727249146,4,5
440,-2.7527101039886475,-2.042452096939087,-5.9662370681762695,0.6198499798774719,1.385450005531311,1.2886500358581543,4,5
441,-3.919081926345825,-2.3635621070861816,-5.568095207214356,0.1776500046253204,1.6200250387191772,1.565987467765808,4,5
442,-4.518950939178467,-2.730473041534424,-5.452174186706543,-0.201162502169609,1.918125033378601,1.98247504234314,4,5
443,-4.343050956726074,-2.9672319889068604,-5.57519006729126,-0.5480750203132629,2.1782748699188232,2.4723875522613525,4,5
444,-2.0356690883636475,-3.128819942474365,-5.933560848236084,-0.9354124665260316,2.2320375442504883,2.9024875164031982,4,5
445,-0.0267420001327991,-2.7882320880889893,-6.062333106994629,-1.3446124792099,2.103749990463257,3.05153751373291,4,5
446,1.9286129474639893,-2.273864984512329,-5.510788917541504,-1.6867125034332275,1.8363125324249268,2.9220125675201416,4,5
447,3.596095085144043,-1.6708550453186035,-4.889566898345947,-1.9848124980926516,1.3256374597549438,2.5873374938964844,4,5
448,4.161485195159912,-1.2402310371398926,-4.303430080413818,-2.2499125003814697,0.6976749897003174,2.1132373809814453,4,5
449,3.532255887985229,-0.8527100086212158,-4.243454933166504,-2.428387403488159,0.1845249980688095,1.6550874710083008,4,5
450,2.842720031738281,-0.4841150045394897,-4.707981109619141,-2.5859625339508057,-0.2138125002384185,1.3459874391555786,4,5
451,2.85486102104187,-0.5128700137138367,-6.001198768615723,-2.860825061798096,-0.5021499991416931,1.145650029182434,4,5
452,3.724430084228516,-0.8621950149536133,-6.954968929290772,-3.300687551498413,-0.612012505531311,0.9600250124931335,4,5
453,5.259676933288574,-0.9826980233192444,-6.905828952789307,-3.8638875484466553,-0.6206749677658081,0.6887375116348267,4,5
454,5.608606815338135,-1.1543359756469729,-5.197022914886475,-4.435612678527832,-0.6487249732017517,0.272112488746643,4,5
455,5.511056900024414,-1.165372014045715,-2.2001829147338867,-4.849762439727783,-0.7269625067710876,-0.1993750035762787,4,5
456,5.398770809173584,-1.115378975868225,1.6329809427261353,-4.959762573242188,-0.8417750000953674,-0.6441875100135803,4,5
457,5.083157062530518,-0.7888039946556091,4.991737842559815,-4.66647481918335,-0.9162999987602234,-1.055862545967102,4,5
458,5.005384922027588,0.2033270001411438,7.852660179138184,-4.004274845123291,-0.8490625023841858,-1.4235374927520752,4,5
459,4.612682819366455,1.223289966583252,9.397225379943848,-3.112449884414673,-0.6560124754905701,-1.816925048828125,4,5
460,3.775023937225342,1.3669129610061646,8.950657844543457,-2.169337511062622,-0.3689124882221222,-2.183500051498413,4,5
461,2.1840178966522217,1.0673470497131348,8.07764720916748,-1.3763749599456787,-0.1380500048398971,-2.437599897384644,4,5
462,-0.0759830027818679,1.172760009765625,7.216716766357422,-0.7411249876022339,-0.0085249999538064,-2.45959997177124,4,5
463,0.0919739976525306,0.9365010261535645,6.449512004852295,-0.2256374955177307,-0.061049997806549,-2.2690250873565674,4,5
464,0.5659369826316833,0.6236129999160767,4.713504791259766,0.1776500046253204,-0.0488125011324882,-2.150500059127808,4,5
465,0.4846880137920379,0.3373579978942871,3.649651050567627,0.415800005197525,0.1270499974489212,-2.1260249614715576,4,5
466,0.3552039861679077,0.0886930003762245,3.646140098571777,0.4720374941825866,0.2370499968528747,-2.1224498748779297,4,5
467,-0.532368004322052,-0.2460909932851791,3.661694049835205,0.5416125059127808,0.4751999974250793,-2.1247875690460205,4,5
468,-1.4007550477981567,-0.8072450160980225,3.496551036834717,0.6723750233650208,0.8234875202178955,-2.031975030899048,4,5
469,-2.005150079727173,-1.1437040567398071,2.9348409175872803,0.794612467288971,1.115399956703186,-1.8438749313354488,4,5
470,-2.816664934158325,-1.058035969734192,2.3317770957946777,0.8739500045776367,1.2791625261306765,-1.6141124963760376,4,5
471,-3.292388916015625,-1.0598299503326416,1.9710010290145876,0.9191874861717224,1.2094500064849854,-1.3404874801635742,4,5
472,-3.3085179328918457,-1.0287779569625854,1.8630919456481931,0.955762505531311,0.8857749700546265,-1.0631500482559204,4,5
473,-2.4808690547943115,-0.9740470051765442,1.7752820253372192,1.043762445449829,0.4641999900341034,-0.8395749926567078,4,5
474,-2.202056884765625,-0.7228710055351257,1.195970058441162,1.187999963760376,0.2492875009775161,-0.7260000109672546,4,5
475,-2.3531200885772705,-0.7484229803085327,0.1807460039854049,1.3003374338150024,0.1880999952554702,-0.6344249844551086,4,5
476,-2.577327013015747,-0.7545250058174133,-0.9004179835319519,1.2868624925613403,0.2113374918699264,-0.4864749908447265,4,5
477,-2.005250930786133,-1.019871950149536,-2.179548978805542,1.1488125324249268,0.2908124923706054,-0.2923249900341034,4,5
478,-1.0223430395126345,-1.4227490425109863,-2.992347955703736,0.9057124853134156,0.45210000872612,-0.1566125005483627,4,5
479,-0.4641009867191314,-1.3652490377426147,-3.166590929031372,0.5843750238418579,0.5363875031471252,-0.1370874941349029,4,5
480,-0.5465120077133179,-0.935549020767212,-2.652829885482788,0.2789874970912933,0.5033875107765198,-0.1798499971628189,4,5
481,-0.8488029837608337,-0.791208028793335,-1.6076669692993164,0.0688875019550323,0.3616249859333038,-0.2128500044345855,4,5
482,-1.5858019590377808,-0.609745979309082,-0.8203740119934082,-0.0130624994635581,0.1490499973297119,-0.2103749960660934,4,5
483,-2.0056469440460205,-0.5530099868774414,-0.3284499943256378,-0.006874999962747,-0.0732875019311904,-0.1297999918460846,4,5
484,-1.7243659496307373,-0.554032027721405,-0.2075809985399246,0.0371249988675117,-0.2381500005722046,0.004537499975413,4,5
485,-1.060811996459961,-0.5289769768714905,-0.5495989918708801,0.1031249985098838,-0.1600500047206878,0.1352999955415725,4,5
486,-0.1824699938297271,-0.6172360181808472,-0.9523209929466248,0.1446499973535537,0.0672374963760376,0.2147749960422516,4,5
487,0.3683910071849823,-0.5317379832267761,-1.2565120458602903,0.1042250022292137,0.2505249977111816,0.2245374917984008,4,5
488,0.7149289846420288,-0.4200919866561889,-1.1386820077896118,0.0065999999642372,0.2993375062942505,0.1633500009775161,4,5
489,0.594989001750946,-0.3407410085201263,-0.6198229789733887,-0.0703999996185302,0.2358125001192093,0.0778250023722648,4,5
490,0.2263669967651367,-0.2629159986972809,-0.1966069936752319,-0.0765874981880188,0.0672374963760376,0.0142999999225139,4,5
491,-0.2544719874858856,-0.1471569985151291,-0.1420390009880066,-0.0435874983668327,-0.1527625024318695,0.0032999999821186,4,5
492,-0.4791699945926666,-0.0448150001466274,-0.2349929958581924,-0.0263999998569488,-0.3726249933242798,0.0412499979138374,4,5
493,-0.2356760054826736,-0.0027769999578595,-0.2554349899291992,-0.0276375003159046,-0.5167250037193298,0.1035374999046325,4,5
494,0.1845690011978149,0.0404610000550746,-0.4819610118865967,-0.0263999998569488,-0.4409624934196472,0.145062506198883,4,5
495,0.7509499788284302,-0.0065049999393522,-0.7092450261116028,-0.0448249988257885,-0.1527625024318695,0.1500124931335449,4,5
496,0.7680550217628479,0.0309960003942251,-0.5025879740715027,-0.1143999993801117,0.1783374994993209,0.0998250022530555,4,5
497,0.3843109905719757,0.0846680030226707,0.1183720007538795,-0.1706375032663345,0.393387496471405,0.0522499978542327,4,5
498,0.223144993185997,-0.0844369977712631,0.6306319832801819,-0.1681624948978424,0.3971000015735626,0.0400125011801719,4,5
499,0.2166469991207122,-0.1017709970474243,0.5676630139350891,-0.1119249984622001,0.2761000096797943,0.0314874984323978,4,5
500,0.0964870005846023,-0.1025770008563995,0.0043480000458657,0.0321750007569789,-0.0145749999210238,-0.1017500013113021,5,5
501,-0.1066000014543533,-0.0424269996583461,-0.1651490032672882,0.0334125012159347,0.0085249999538064,-0.110275000333786,5,5
502,-0.2159170061349868,-0.033500999212265,-0.190323993563652,0.0126499999314546,0.0109999999403953,-0.0955625027418136,5,5
503,-0.2763490080833435,-0.0910440012812614,-0.2125220000743866,-0.0020624999888241,0.0097624994814395,-0.0735625028610229,5,5
504,-0.274861991405487,-0.0938130021095275,-0.3134939968585968,-0.0153999999165534,0.0072874999605119,-0.0442750006914138,5,5
505,-0.1698739975690841,-0.1177150011062622,-0.6415740251541138,-0.0471624992787838,0.0049499999731779,-0.0162249989807605,5,5
506,0.066841997206211,-0.1585090011358261,-0.98820698261261,-0.1106875017285347,0.0207624994218349,-0.0015124999918043,5,5
507,0.2301380038261413,-0.1675419956445694,-1.2586489915847778,-0.2157374918460846,0.0427624993026256,-0.0064624999649822,5,5
508,0.0351159982383251,-0.081044003367424,-1.1283650398254397,-0.3367374837398529,0.0818125009536743,-0.0272249989211559,5,5
509,-0.3400839865207672,0.012632000260055,-0.7391600012779236,-0.4332624971866607,0.0818125009536743,-0.0210375003516674,5,5
510,-0.6518369913101196,0.0674260035157203,-0.5339400172233582,-0.4882625043392181,0.0147124994546175,0.0142999999225139,5,5
511,-0.7709940075874329,0.1603509932756424,-0.3649150133132934,-0.5237374901771545,-0.1440999954938888,0.0705375000834465,5,5
512,-0.4282470047473907,0.1883749961853027,-0.4350349903106689,-0.5688375234603882,-0.3921499848365783,0.1280124932527542,5,5
513,0.3243620097637176,0.0526590012013912,-0.5254999995231628,-0.6226000189781189,-0.5839625000953674,0.1402499973773956,5,5
514,1.611631989479065,0.0537150017917156,0.132532000541687,-0.6763625144958496,-0.6841999888420105,0.0803000032901763,5,5
515,2.2494421005249023,0.5587990283966064,1.3013060092926023,-0.6738874912261963,-0.6450124979019165,-0.1040875017642974,5,5
516,1.4891730546951294,1.037559986114502,3.3344829082489014,-0.5542625188827515,-0.4471499919891357,-0.3753750026226043,5,5
517,0.0324960015714168,1.3565479516983032,6.027644157409668,-0.2842124998569488,-0.4116750061511993,-0.5609999895095825,5,5
518,-1.1128979921340942,1.1487560272216797,8.361287117004395,0.2204124927520752,-0.5571500062942505,-0.6026625037193298,5,5
519,-1.5079100131988523,0.6887940168380737,9.782533645629885,0.9667624831199646,-0.8551124930381775,-0.5378999710083008,5,5
520,-1.242516040802002,0.0265519991517066,9.29558277130127,1.8342499732971191,-1.1959749460220337,-0.4303750097751617,5,5
521,-0.4773530066013336,-0.5430759787559509,7.103936195373535,2.56107497215271,-1.3585000038146973,-0.3594250082969665,5,5
522,0.4237110018730163,-0.9015809893608092,4.908080101013184,2.970412492752075,-1.302262544631958,-0.35708749294281,5,5
523,1.3406280279159546,-1.014057993888855,4.132274150848389,3.090174913406372,-1.1374000310897827,-0.4596624970436096,5,5
524,1.6251050233840942,-1.0111240148544312,4.417064189910889,3.141462564468384,-0.878350019454956,-0.6710000038146973,5,5
525,1.2474559545516968,-1.6296650171279907,4.460258960723877,3.32708740234375,-0.4862000048160553,-0.8628125190734863,5,5
526,-0.0155499996617436,-2.187824010848999,3.976687908172608,3.5873749256134038,-0.1392875015735626,-0.9373375177383424,5,5
527,-1.3335130214691162,-2.335537910461426,2.7169508934021,3.8231875896453857,0.1025749966502189,-0.8237624764442444,5,5
528,-1.9537229537963867,-2.4335579872131348,0.745274007320404,3.939237594604492,0.2798124849796295,-0.5561875104904175,5,5
529,-2.243515014648437,-2.4946091175079346,-0.6137629747390747,3.9001874923706055,0.3493874967098236,-0.2226125001907348,5,5
530,-2.1342968940734863,-2.415083885192871,-2.6261579990386963,3.74495005607605,0.4300999939441681,0.1084875017404556,5,5
531,-1.642789006233215,-2.7480781078338623,-4.228334903717041,3.4370875358581543,0.6291999816894531,0.4041124880313873,5,5
532,-1.2149230241775513,-2.920206069946289,-5.5411481857299805,2.952125072479248,0.817300021648407,0.6191624999046326,5,5
533,-0.8405849933624268,-2.956644058227539,-6.319948196411133,2.3729748725891118,1.0861124992370603,0.7572125196456909,5,5
534,-0.8282089829444885,-2.8661320209503174,-6.035429954528809,1.786537528038025,1.390262484550476,0.8377875089645386,5,5
535,-1.1958860158920288,-2.749660015106201,-5.384397983551025,1.2685749530792236,1.605312466621399,0.9013124704360962,5,5
536,-1.492226004600525,-2.764816999435425,-5.3800787925720215,0.8494749665260315,1.760550022125244,1.002787470817566,5,5
537,-1.766232967376709,-2.880924940109253,-5.629833221435547,0.4438500106334686,1.885125041007996,1.1309374570846558,5,5
538,-2.3471899032592773,-2.8032000064849854,-5.869393825531006,0.0248875003308057,1.926650047302246,1.3044625520706177,5,5
539,-2.784997940063477,-2.605823040008545,-5.98642110824585,-0.3892624974250793,1.844837546348572,1.5377999544143677,5,5
540,-2.867273092269897,-2.508308887481689,-6.340188026428223,-0.8071249723434448,1.6663625240325928,1.802899956703186,5,5
541,-2.865886926651001,-2.5105180740356445,-6.62811279296875,-1.253037452697754,1.485550045967102,2.075424909591675,5,5
542,-2.750312089920044,-2.436464071273804,-6.715246200561523,-1.7221875190734863,1.3414499759674072,2.3648624420166016,5,5
543,-0.5065320134162903,-2.5021440982818604,-6.746106147766113,-2.2255749702453613,1.198449969291687,2.6166250705718994,5,5
544,2.142709970474243,-2.2072958946228027,-6.709571838378906,-2.760587453842163,1.032349944114685,2.609337568283081,5,5
545,3.8986310958862314,-1.825767040252685,-5.946562767028809,-3.2359249591827397,0.909012496471405,2.299000024795532,5,5
546,4.20783805847168,-1.7125450372695925,-5.1673760414123535,-3.6085500717163086,0.7697250247001648,1.833425045013428,5,5
547,3.324018955230713,-1.6997120380401611,-4.695066928863525,-3.9004623889923096,0.5717250108718872,1.4156999588012695,5,5
548,2.091275930404663,-2.102148056030273,-4.285462856292725,-4.202274799346924,0.255337506532669,1.1321749687194824,5,5
549,1.0637919902801514,-2.084341049194336,-3.1487491130828857,-4.5236124992370605,-0.1295250058174133,0.9990749955177308,5,5
550,1.6390899419784546,-1.77681303024292,-1.6312580108642578,-4.74952507019043,-0.5314375162124634,1.0405999422073364,5,5
551,3.642903089523315,-1.401142954826355,-0.3366709947586059,-4.817999839782715,-0.9248250126838684,1.0466500520706177,5,5
552,6.556593894958496,-1.0390139818191528,0.9383509755134584,-4.720237255096436,-1.205875039100647,0.7950249910354614,5,5
553,9.217367172241213,-0.3901399970054626,2.832242012023926,-4.527187347412109,-1.3572624921798706,0.2343000024557113,5,5
554,10.056119918823242,0.483471006155014,6.345445156097412,-4.287799835205078,-1.4929749965667725,-0.6282374858856201,5,5
555,8.987000465393066,1.263772964477539,9.892054557800291,-3.757600069046021,-1.4159749746322632,-1.5322999954223633,5,5
556,5.9017767906188965,1.6269710063934326,12.638096809387209,-2.8107750415802,-1.1166374683380127,-2.242074966430664,5,5
557,2.271056890487671,1.8231350183486936,12.690546035766602,-1.5719000101089478,-0.8307750225067139,-2.60260009765625,5,5
558,-0.6314979791641235,2.0091440677642822,10.63312816619873,-0.3684999942779541,-0.7012500166893005,-2.552412509918213,5,5
559,-1.851559042930603,1.9405750036239624,7.10617208480835,0.5282750129699707,-0.6474875211715698,-2.1872124671936035,5,5
560,-1.3011900186538696,1.674759030342102,3.731281995773315,0.969237506389618,-0.5229125022888184,-1.7595875263214111,5,5
561,0.5683990120887756,1.7838239669799805,1.3825620412826538,0.9875249862670898,-0.2211000025272369,-1.4907749891281128,5,5
562,2.1904311180114746,1.613994002342224,-0.0935809984803199,0.7884249687194824,0.5449125170707703,-1.4687750339508057,5,5
563,3.0528600215911865,0.714277982711792,0.4729309976100921,0.5172749757766724,1.5247374773025513,-1.6178250312805176,5,5
564,2.044205904006958,0.0177030004560947,2.4431469440460205,0.3339875042438507,2.217462539672852,-1.848687529563904,5,5
565,-0.1599780023097992,-0.3883630037307739,4.6205339431762695,0.4390375018119812,2.3652749061584477,-1.970924973487854,5,5
566,-1.8803030252456665,-1.111590027809143,5.215579986572266,0.8006625175476074,1.9486500024795528,-1.8976374864578247,5,5
567,-3.089517116546631,-1.6490800380706787,4.157209873199463,1.2282874584197998,1.214400053024292,-1.6667749881744385,5,5
568,-3.726650953292847,-1.8328850269317627,2.100964069366455,1.5397249460220337,0.4544374942779541,-1.3221999406814575,5,5
569,-3.6451590061187744,-1.5631920099258425,0.0969659984111785,1.6131500005722046,-0.1258125007152557,-0.9458624720573424,5,5
570,-2.583981990814209,-1.3046690225601196,-1.056079983711243,1.475100040435791,-0.4361499845981598,-0.6136624813079834,5,5
571,-0.6794009804725647,-1.176295042037964,-2.04138708114624,1.262524962425232,-0.3664374947547912,-0.4364250004291534,5,5
572,0.117818996310234,-1.1685340404510498,-2.7798240184783936,1.043762445449829,0.0989999994635582,-0.455949991941452,5,5
573,-0.060963001102209,-1.2491240501403809,-2.8318800926208496,0.803137481212616,0.6157249808311462,-0.5366625189781189,5,5
574,-1.1259349584579468,-1.143623948097229,-2.8210079669952397,0.5501375198364258,0.9212499856948853,-0.5549499988555908,5,5
575,-2.136284112930298,-1.167752027511597,-2.607322931289673,0.3290374875068664,1.0262999534606934,-0.4621374905109405,5,5
576,-2.794207096099853,-1.1814889907836914,-2.273416042327881,0.1446499973535537,0.9040625095367432,-0.2727999985218048,5,5
577,-3.0834290981292725,-0.9394299983978271,-1.933491945266724,-0.0008249999955296,0.6219124794006348,-0.0417999997735023,5,5
578,-2.936307907104492,-0.730567991733551,-1.617156982421875,-0.097350001335144,0.2908124923706054,0.1915374994277954,5,5
579,-2.20398211479187,-0.7761949896812439,-1.0508650541305542,-0.1559250056743621,-0.0598125010728836,0.3858250081539154,5,5
580,-0.8235219717025757,-0.8606640100479126,-0.4705869853496551,-0.1546874940395355,-0.3261500000953674,0.5164499878883362,5,5
581,0.6712279915809631,-0.695921003818512,-0.025102000683546,-0.0691625028848648,-0.3433375060558319,0.5274500250816345,5,5
582,1.602552056312561,-0.5334330201148987,-0.1738169938325882,0.0639375001192092,-0.1025749966502189,0.394349992275238,5,5
583,1.5388909578323364,-0.4776709973812103,-0.5526580214500427,0.1507000029087066,0.1722874939441681,0.1878249943256378,5,5
584,0.5526689887046814,-0.271600991487503,-1.1054569482803345,0.1434125006198883,0.3091000020503998,0.0302499998360872,5,5
585,-0.3363859951496124,-0.1799439936876297,-1.3181309700012207,0.0566499978303909,0.2798124849796295,0.007012499962002,5,5
586,-0.7396159768104553,-0.0804810002446174,-1.3327900171279907,-0.0435874983668327,0.135574996471405,0.0790624991059303,5,5
587,-0.5348799824714661,0.0047430000267922,-1.1570730209350586,-0.1388749927282333,-0.0452375002205371,0.1780624985694885,5,5
588,-0.0785169973969459,0.1181410029530525,-0.852961003780365,-0.2206874936819076,-0.1880999952554702,0.2525874972343445,5,5
589,0.4147480130195617,0.1767300069332122,-0.4411199986934662,-0.2634499967098236,-0.2443374991416931,0.2868250012397766,5,5
590,1.0377930402755735,0.2134779989719391,-0.1653600037097931,-0.2694999873638153,-0.1953874975442886,0.2733500003814697,5,5
591,1.466493010520935,0.2286809980869293,-0.0510229989886283,-0.2476374953985214,0.0147124994546175,0.1975875049829483,5,5
592,1.3082799911499023,0.1881199926137924,0.138820007443428,-0.2169750034809112,0.246812492609024,0.0803000032901763,5,5
593,0.8229820132255554,0.2029370069503784,0.0291990004479885,-0.1876875013113021,0.3653374910354614,-0.0174624994397163,5,5
594,0.2873199880123138,0.2189189940690994,-0.0115459999069571,-0.1766874939203262,0.3799124956130981,-0.0552750006318092,5,5
595,-0.0020520000252872,0.1880449950695037,0.128588005900383,-0.1803999990224838,0.2615250051021576,-0.0613249987363815,5,5
596,-0.0858689993619918,0.2521399855613708,0.4433610141277313,-0.169400006532669,0.0732875019311904,-0.0492249988019466,5,5
597,-0.0281819999217987,0.2557559907436371,0.6882410049438477,-0.1376374959945678,-0.1295250058174133,-0.0382249988615512,5,5
598,0.0518079996109008,0.2067980021238327,0.9170050024986268,-0.0826374962925911,-0.2833875119686126,-0.0382249988615512,5,5
599,0.0898739993572235,0.1707590073347091,0.9264060258865356,-0.0153999999165534,-0.3554374873638153,-0.039462499320507,5,5
600,-0.1917060017585754,-0.0614910013973712,0.3662810027599334,-0.0483999997377395,-0.0060499999672174,-0.0540375001728534,6,5
601,-0.1574310064315796,-0.0151079995557665,0.1603280007839203,-0.0081124994903802,-0.0598125010728836,-0.0417999997735023,6,5
602,-0.0309139993041753,-0.0780029967427253,-0.0442579984664917,0.0114124994724988,-0.0855249986052513,-0.0247499998658895,6,5
603,0.1144760027527809,-0.1099010035395622,-0.3297699987888336,0.0016499999910593,-0.0683375000953674,-0.0222750008106231,6,5
604,0.1202400028705596,-0.0841159969568252,-0.427139014005661,-0.0361624993383884,0.0109999999403953,-0.0284624993801116,6,5
605,0.1881909966468811,-0.1274590045213699,-0.4246389865875244,-0.0851124972105026,0.0745249986648559,-0.0369874984025955,6,5
606,0.1670899987220764,-0.1438580006361007,-0.3966560065746307,-0.129112496972084,0.112475000321865,-0.0552750006318092,6,5
607,-0.0108970003202557,-0.0996910035610199,-0.3297309875488281,-0.1583999991416931,0.1209999993443489,-0.0687500014901161,6,5
608,-0.1702080070972442,-0.0920279994606971,-0.3212130069732666,-0.1828749924898147,0.0879999995231628,-0.0577500015497207,6,5
609,-0.2088250070810318,-0.0726659968495369,-0.3771350085735321,-0.201162502169609,0.0280499998480081,-0.0345125012099742,6,5
610,-0.0130080003291368,-0.1196860000491142,-0.4959149956703186,-0.227974995970726,-0.0317624993622303,-0.0197999998927116,6,5
611,0.0655099973082542,-0.11370799690485,-0.7213760018348694,-0.2684000134468078,-0.0683375000953674,-0.0259875003248453,6,5
612,0.1631820052862167,-0.1283310055732727,-1.0498909950256348,-0.3269749879837036,-0.0342375002801418,-0.0307999998331069,6,5
613,0.3299860060214996,-0.1694779992103576,-1.4910589456558228,-0.44302499294281,0.0439999997615814,-0.0492249988019466,6,5
614,0.2236229926347732,-0.0201650001108646,-1.6045819520950315,-0.6165499687194824,0.1099999994039535,-0.06751249730587,6,5
615,0.1121399998664856,0.1634490042924881,-1.3602299690246582,-0.7998374700546265,0.0672374963760376,-0.0797500014305114,6,5
616,-0.0411980003118515,0.343080997467041,-0.687004029750824,-0.9549375176429749,-0.1172875016927719,-0.0980374962091445,6,5
617,0.0343419983983039,0.7123579978942871,0.6868360042572021,-1.050225019454956,-0.4386250078678131,-0.1310375034809112,6,5
618,0.3939099907875061,0.8882189989089966,2.280103921890259,-1.0489875078201294,-0.8637750148773193,-0.1970375031232834,6,5
619,0.9230039715766908,0.7095329761505127,3.7484130859375,-0.8841249942779541,-1.1996874809265137,-0.3436124920845032,6,5
620,1.0142199993133545,0.677827000617981,4.897836208343506,-0.5750250220298767,-1.43426251411438,-0.5402374863624573,6,5
621,0.4706189930438995,0.6604200005531311,5.4570631980896,-0.1926375031471252,-1.6150749921798706,-0.7455250024795532,6,5
622,-0.3840849995613098,0.6723629832267761,5.641030788421631,0.2227499932050705,-1.6493124961853027,-0.8590999841690063,6,5
623,-1.0338449478149414,0.6296979784965515,6.217037200927734,0.6003249883651733,-1.56983745098114,-0.8725749850273132,6,5
624,-1.6637400388717651,0.331290990114212,6.852289199829102,1.00828754901886,-1.3524500131607056,-0.8273375034332275,6,5
625,-1.9939450025558472,-0.236747995018959,7.55227518081665,1.4872000217437744,-1.105637550354004,-0.7039999961853027,6,5
626,-1.604092001914978,-0.7643190026283264,8.071022987365723,2.0638749599456787,-0.8650124669075012,-0.5391374826431274,6,5
627,-0.9684479832649232,-1.3255000114440918,7.492462158203125,2.7028374671936035,-0.5644375085830688,-0.4218499958515167,6,5
628,-0.6744430065155029,-1.7812739610671997,5.765137195587158,3.268512487411499,-0.2223374992609024,-0.35708749294281,6,5
629,-0.8217499852180481,-2.201869010925293,3.79155707359314,3.639899969100952,0.0061874999664723,-0.2813250124454498,6,5
630,-1.3211040496826172,-2.3460230827331543,1.7255159616470337,3.814662456512451,0.0818125009536743,-0.1566125005483627,6,5
631,-1.7784780263900757,-2.350253105163574,0.4256159961223602,3.831712484359741,0.0280499998480081,0.0277750007808208,6,5
632,-1.794286012649536,-2.4374279975891118,-0.4181169867515564,3.735187530517578,-0.1270499974489212,0.2525874972343445,6,5
633,-1.4665340185165403,-2.5113348960876465,-1.7916079759597778,3.6020874977111816,-0.0842875018715858,0.4626874923706054,6,5
634,-1.0578559637069702,-2.739025115966797,-2.589724063873291,3.405324935913086,0.1747625023126602,0.6374499797821045,6,5
635,-1.1981559991836548,-2.7975499629974365,-3.134010076522827,3.1244125366210938,0.5069624781608582,0.7937874794006348,6,5
636,-1.3999940156936646,-2.785759925842285,-3.707890033721924,2.806649923324585,0.91382497549057,0.9818875193595886,6,5
637,-1.3851009607315063,-2.8830409049987797,-4.1791157722473145,2.4584999084472656,1.3879250288009644,1.1981749534606934,6,5
638,-1.3617420196533203,-2.8614089488983154,-4.460968971252441,2.0724000930786133,1.817887544631958,1.4082750082015991,6,5
639,-1.0402419567108154,-2.783478021621704,-5.056305885314941,1.6656750440597534,2.092750072479248,1.5940375328063965,6,5
640,-0.8472470045089722,-2.806572914123535,-5.903689861297607,1.2075250148773191,2.1649374961853027,1.7173750400543213,6,5
641,-0.1884240061044693,-2.691370010375977,-6.569884777069092,0.6858500242233276,2.084224939346313,1.7796624898910522,6,5
642,0.8492010235786438,-2.4287309646606445,-6.687682151794434,0.1214125007390976,1.8691749572753904,1.7540874481201172,6,5
643,1.1338050365447998,-1.8766119480133057,-6.238712787628174,-0.4014999866485595,1.560075044631958,1.627037525177002,6,5
644,1.0553350448608398,-1.600759983062744,-6.374022960662842,-0.8168874979019165,1.2498749494552612,1.4792250394821167,6,5
645,0.3668729960918426,-1.5293960571289062,-7.254368782043457,-1.2017500400543213,1.053112506866455,1.4047000408172607,6,5
646,-0.32710000872612,-1.8026800155639648,-8.570708274841309,-1.6842374801635742,0.9113500118255616,1.45722496509552,6,5
647,0.0191309992223978,-2.028130054473877,-9.73849105834961,-2.336674928665161,0.7049624919891357,1.562274932861328,6,5
648,0.7728589773178101,-2.2474560737609863,-10.56762409210205,-3.1466875076293945,0.4996750056743622,1.6013250350952148,6,5
649,2.183358907699585,-2.711178064346313,-10.638962745666504,-4.034937381744385,0.3360500037670135,1.5452250242233276,6,5
650,3.695138931274414,-3.307677984237671,-9.968399047851562,-4.9230499267578125,0.2138125002384185,1.3619375228881836,6,5
651,4.292426109313965,-3.860357999801636,-7.872304916381836,-5.69635009765625,0.1771000027656555,1.0491249561309814,6,5
652,4.171061038970947,-3.915916919708252,-5.032331943511963,-6.218024730682373,0.1050499975681305,0.6984999775886536,6,5
653,3.9371860027313232,-3.336081027984619,-1.4994779825210571,-6.428262233734131,-0.1600500047206878,0.394349992275238,6,5
654,4.501120090484619,-2.791146039962769,1.7026599645614624,-6.339025020599365,-0.6584874987602234,0.0888250023126602,6,5
655,4.448795795440674,-1.7857530117034912,7.156932830810547,-5.944399833679199,-1.2436875104904177,-0.3460874855518341,6,5
656,3.9198191165924072,0.1809519976377487,12.081222534179688,-5.086812496185303,-1.7678375244140625,-0.7492374777793884,6,5
657,3.995755910873413,1.3991190195083618,14.923599243164062,-3.6768875122070312,-1.8741250038146973,-1.0631500482559204,6,5
658,3.2021560668945312,2.053391933441162,14.570292472839355,-1.9885250329971316,-1.6236000061035156,-1.3697749376296997,6,5
659,2.011776924133301,2.74584698677063,10.81344985961914,-0.5542625188827515,-1.2925000190734863,-1.5665374994277954,6,5
660,1.8313390016555784,2.546377897262573,6.133595943450928,0.2094125002622604,-1.120350003242493,-1.6153500080108645,6,5
661,2.732290029525757,2.1642439365386963,2.7292320728302,0.3705624938011169,-0.9455875158309937,-1.6495875120162964,6,5
662,4.203121185302734,1.6942030191421509,1.7782200574874878,0.2349874973297119,-0.5644375085830688,-1.7423999309539795,6,5
663,4.288312911987305,1.5722099542617798,2.1877970695495605,0.0847000032663345,0.111237496137619,-1.997737526893616,6,5
664,2.745060920715332,1.3765499591827393,3.926882982254028,0.0456499978899955,0.7195374965667725,-2.253074884414673,6,5
665,1.180783987045288,0.94854998588562,5.806107044219971,0.1885125041007995,0.9113500118255616,-2.3520750999450684,6,5
666,0.0937749966979026,0.3793720006942749,6.418888092041016,0.5550875067710876,0.8247249722480774,-2.321549892425537,6,5
667,-0.7104550004005432,0.06351999938488,5.515318870544434,1.0071874856948853,0.6744375228881836,-2.20178747177124,6,5
668,-1.135759949684143,0.0642189979553222,3.802086114883423,1.354099988937378,0.607200026512146,-2.022212505340576,6,5
669,-1.2637749910354614,0.0355339981615543,2.07956600189209,1.5116750001907349,0.6329125165939331,-1.821874976158142,6,5
670,-0.9815840125083924,-0.3649660050868988,0.9495000243186952,1.5226750373840332,0.7122499942779541,-1.630062460899353,6,5
671,-1.1787309646606443,-0.8120419979095459,0.2203940004110336,1.4469125270843506,0.7880125045776367,-1.4797749519348145,6,5
672,-1.7386159896850586,-1.014657974243164,0.1918209940195083,1.3638625144958496,0.8540124893188477,-1.297724962234497,6,5
673,-1.90932297706604,-1.4081759452819824,0.2945669889450073,1.310099959373474,0.808775007724762,-1.0619125366210938,6,5
674,-2.2463510036468506,-1.527101993560791,0.1480199992656707,1.2868624925613403,0.7232499718666077,-0.8127624988555908,6,5
675,-1.9674420356750488,-1.461398959159851,0.0586900003254413,1.2685749530792236,0.6267250180244446,-0.5609999895095825,6,5
676,-1.4522860050201416,-1.3189970254898071,-0.632856011390686,1.2526249885559082,0.6572499871253967,-0.3473249971866607,6,5
677,-0.9817450046539308,-1.3538269996643066,-1.4718780517578125,1.2025749683380127,0.8282999992370605,-0.1933249980211258,6,5
678,-0.6381660103797913,-1.3235100507736206,-1.9472090005874636,1.059712529182434,0.954112470149994,-0.0833249986171722,6,5
679,-0.563211977481842,-1.1267939805984497,-1.997962951660156,0.8714749813079834,0.9235875010490416,-0.0174624994397163,6,5
680,-0.2545549869537353,-1.1275759935379028,-1.940271019935608,0.7261375188827515,0.7684875130653381,0.0167750008404254,6,5
681,-0.2306379973888397,-1.0534000396728516,-1.7855069637298584,0.610087513923645,0.5656750202178955,0.0119624994695186,6,5
682,-0.4813109934329986,-0.7242239713668823,-1.6597930192947388,0.5160375237464905,0.4215750098228454,0.0155375003814697,6,5
683,-0.6854090094566345,-0.5731959939002991,-1.5785640478134155,0.4427500069141388,0.3616249859333038,0.0657249987125396,6,5
684,-0.7763959765434265,-0.5061209797859192,-1.4736900329589844,0.3840374946594238,0.3678124845027923,0.1523499935865402,6,5
685,-0.5813000202178955,-0.3521659970283508,-1.3397749662399292,0.341275006532669,0.3383874893188476,0.2538250088691711,6,5
686,-0.0805130004882812,-0.2796109914779663,-1.2966489791870115,0.3034625053405761,0.2443374991416931,0.3283500075340271,6,5
687,0.495618999004364,-0.1601189970970153,-1.2856320142745972,0.2509374916553497,0.0830499976873397,0.3320625126361847,6,5
688,0.908594012260437,-0.0192040000110864,-1.3833049535751345,0.1995124965906143,-0.0097624994814395,0.2745875120162964,6,5
689,1.0236150026321411,0.0839319974184036,-1.3162870407104492,0.1384624987840652,-0.0232375003397464,0.1915374994277954,6,5
690,0.6817610263824463,0.2408860027790069,-1.3767210245132446,0.0724624991416931,0.0159499999135732,0.1328250020742416,6,5
691,0.2675819993019104,0.2977670133113861,-1.300279974937439,0.0101749999448657,0.0782374963164329,0.1328250020742416,6,5
692,0.1386629939079284,0.2937510013580322,-1.256883978843689,-0.0569249987602233,0.1014750003814697,0.179299995303154,6,5
693,0.2356059998273849,0.3378030061721802,-0.8228499889373779,-0.12168750166893,0.0892374962568283,0.2268749922513961,6,5
694,0.4499770104885101,0.3462910056114197,-0.3870530128479004,-0.1376374959945678,0.0452375002205371,0.2586374878883362,6,5
695,0.9233019948005676,0.2409649938344955,-0.0630640015006065,-0.0996875017881393,-0.0292875003069639,0.2538250088691711,6,5
696,1.3320410251617432,0.2506900131702423,-0.1153390035033226,-0.045924998819828,-0.0867625027894973,0.1890625059604644,6,5
697,1.2888129949569702,0.2859910130500793,-0.3948679864406585,-0.0081124994903802,-0.0782374963164329,0.0925374999642372,6,5
698,0.9495800137519836,0.2706309854984283,-0.7427219748497009,-0.0191124994307756,-0.0280499998480081,0.0155375003814697,6,5
699,0.5172529816627502,0.2653259932994842,-1.0977710485458374,-0.0875874981284141,0.0342375002801418,-0.0197999998927116,6,5
700,0.1776659935712814,0.0577859990298748,-0.2025360018014907,-0.2157374918460846,0.0354750007390975,-0.0650374963879585,7,5
701,0.0260830000042915,0.0724669992923736,0.1582770049571991,-0.2219250053167343,0.0672374963760376,-0.0857999995350837,7,5
702,-0.1762830018997192,0.0643350034952163,0.4484629929065704,-0.1901624947786331,0.0879999995231628,-0.0930875018239021,7,5
703,-0.3425920009613037,0.0417549982666969,0.6535630226135254,-0.1314499974250793,0.0720499977469444,-0.0735625028610229,7,5
704,-0.3619830012321472,0.0081829996779561,0.5929380059242249,-0.0618750005960464,0.0280499998480081,-0.0430375002324581,7,5
705,-0.270251989364624,-0.0528189986944198,0.2274429947137832,-0.0043999999761581,-0.0145749999210238,-0.0125124994665384,7,5
706,-0.0758500024676323,-0.0981490015983581,-0.2443190068006515,0.0016499999910593,-0.0427624993026256,0.004537499975413,7,5
707,0.1697070002555847,-0.1244660019874572,-0.5168769955635071,-0.0496375001966953,-0.0488125011324882,0.004537499975413,7,5
708,0.3206979930400848,-0.1549389958381652,-0.6738640069961548,-0.1254000067710876,-0.0280499998480081,-0.0185624994337558,7,5
709,0.2163230031728744,-0.0635000020265579,-0.567762017250061,-0.1986874938011169,0.0232375003397464,-0.0515624992549419,7,5
710,-0.0945079997181892,0.0020510000176727,-0.4911240041255951,-0.2609750032424927,0.061049997806549,-0.0650374963879585,7,5
711,-0.3205510079860687,0.0204760003834962,-0.4474459886550903,-0.3134999871253967,0.107524998486042,-0.0492249988019466,7,5
712,-0.4742189943790436,0.1622650027275085,-0.1317850053310394,-0.3672625124454498,0.1295250058174133,-0.0222750008106231,7,5
713,-0.4709909856319427,0.2346960008144378,0.276663988828659,-0.3954499959945678,0.0917124971747398,0.0107249999418854,7,5
714,-0.0396360009908676,0.1823350042104721,0.8973079919815063,-0.3660250008106231,0.032999999821186,0.0277750007808208,7,5
715,0.5315769910812378,0.3866220116615295,1.6134920120239258,-0.2744500041007995,-0.0207624994218349,-0.0137499999254941,7,5
716,0.7094100117683411,0.5858380198478699,2.243351936340332,-0.1058750003576278,-0.0085249999538064,-0.1187999993562698,7,5
717,0.467507004737854,0.7218719720840454,3.2745800018310547,0.0859375,-0.0500499978661537,-0.2483250051736831,7,5
718,0.0553979985415935,0.7641509771347046,4.491680145263672,0.3510375022888183,-0.1220999956130981,-0.3546124994754791,7,5
719,-0.3413630127906799,0.5066120028495789,5.301815032958984,0.7408499717712402,-0.255337506532669,-0.4021874964237213,7,5
720,0.221232995390892,0.1304389983415603,5.625104904174805,1.1780999898910522,-0.4349125027656555,-0.4229499995708465,7,5
721,0.18715700507164,-0.0116769997403025,4.837796211242676,1.6009124517440796,-0.4606249928474426,-0.4877125024795532,7,5
722,-0.54339998960495,-0.1545619964599609,4.412489891052246,1.923349976539612,-0.4189625084400177,-0.5354250073432922,7,5
723,-1.6288390159606934,-0.1322479993104934,4.413756847381592,2.137162446975708,-0.5449125170707703,-0.5134249925613403,7,5
724,-2.010852098464966,-0.4245469868183136,4.66021203994751,2.371737480163574,-0.7244874835014343,-0.403425008058548,7,5
725,-1.746683955192566,-0.6877430081367493,5.381401062011719,2.671074867248535,-0.8453499674797058,-0.2593249976634979,7,5
726,-1.830665946006775,-1.0782599449157717,4.417512893676758,3.070650100708008,-0.6437749862670898,-0.1150875017046928,7,5
727,-2.122044086456299,-1.683527946472168,3.0210280418396,3.434612512588501,-0.0659999996423721,0.0925374999642372,7,5
728,-2.266226053237915,-2.055092096328736,1.7969369888305664,3.6020874977111816,0.4288625121116638,0.4003999829292297,7,5
729,-1.7759560346603394,-2.0428500175476074,-0.5912960171699524,3.59232497215271,0.7550125122070312,0.7425000071525574,7,5
730,-0.8136320114135742,-2.2057130336761475,-2.7837579250335693,3.380850076675415,1.010349988937378,1.0258874893188477,7,5
731,-0.6356419920921326,-2.15221905708313,-4.175737857818604,2.897125005722046,1.0421124696731567,1.1847000122070312,7,5
732,-0.6710379719734192,-1.9230550527572632,-4.387856960296631,2.2789249420166016,0.983537495136261,1.289887547492981,7,5
733,-0.6228569746017456,-2.12585711479187,-4.000534057617188,1.7315374612808228,0.996874988079071,1.4144624471664429,7,5
734,-0.6824880242347717,-2.6642839908599854,-2.9716079235076904,1.305287480354309,1.0788249969482422,1.5427500009536743,7,5
735,-1.4611660242080688,-2.647162914276123,-2.6072680950164795,1.0157124996185305,1.2071125507354736,1.693037509918213,7,5
736,-2.205142021179199,-2.6722729206085205,-2.6090569496154785,0.803137481212616,1.4440250396728516,1.9166125059127808,7,5
737,-2.622373104095459,-2.929358959197998,-2.502764940261841,0.5856124758720398,1.6383124589920044,2.200000047683716,7,5
738,-2.668252944946289,-3.130702018737793,-3.0551559925079346,0.3730374872684479,1.8033125400543213,2.512812376022339,7,5
739,-1.566951036453247,-3.4210519790649414,-3.628577947616577,0.133650004863739,1.9644625186920168,2.792487382888794,7,5
740,-0.7635160088539124,-3.3325929641723637,-4.001429080963135,-0.1559250056743621,1.8618874549865725,2.948962450027466,7,5
741,-0.6233469843864441,-3.041619062423706,-4.220777988433838,-0.4369750022888183,1.451449990272522,3.000250101089477,7,5
742,-0.3646369874477386,-2.623209953308105,-4.978866100311279,-0.6873624920845032,0.8467249870300293,3.043012380599976,7,5
743,1.1555290222167969,-2.027709007263184,-5.979168891906738,-1.0136499404907229,0.112475000321865,3.0417749881744385,7,5
744,3.2836790084838867,-1.401227951049805,-7.432267189025879,-1.4583250284194946,-0.5790125131607056,2.847487449645996,7,5
745,4.641520977020264,-1.0509309768676758,-8.442676544189453,-2.0239999294281006,-0.954112470149994,2.419862508773804,7,5
746,4.557436943054199,-1.191930055618286,-9.067575454711914,-2.694587469100952,-0.9468249678611756,1.9189499616622925,7,5
747,3.823843002319336,-1.9687199592590328,-9.13266944885254,-3.443549871444702,-0.5546749830245972,1.5072749853134155,7,5
748,2.8122079372406006,-2.6474568843841557,-8.218486785888672,-4.190037250518799,0.0,1.211650013923645,7,5
749,1.9309159517288208,-3.116293907165528,-7.063783168792725,-4.820475101470947,0.3628624975681305,1.0466500520706177,7,5
750,3.0627329349517822,-3.643768072128296,-6.669916152954102,-5.356724739074707,0.4068624973297119,0.9392625093460084,7,5
751,4.024517059326172,-3.817553997039795,-4.924191951751709,-5.867400169372559,0.3201000094413757,0.6374499797821045,7,5
752,4.268616199493408,-2.8966879844665527,-0.5241209864616394,-6.193687438964844,0.1270499974489212,0.1720124930143356,7,5
753,4.600637912750244,-1.8069119453430176,4.671798229217529,-6.07268762588501,-0.1062875017523765,-0.2910875082015991,7,5
754,4.857467174530029,-1.0819480419158936,9.917301177978516,-5.453249931335449,-0.4862000048160553,-0.7845749855041504,7,5
755,4.224465847015381,-0.0469780005514621,14.221158981323242,-4.353799819946289,-0.8942999839782715,-1.306249976158142,7,5
756,3.0624489784240723,1.0387229919433594,16.255361557006836,-2.8730623722076416,-1.2204500436782837,-1.721637487411499,7,5
757,1.957137942314148,1.222553014755249,15.105130195617676,-1.2395625114440918,-1.3121625185012815,-1.9721624851226809,7,5
758,0.3023959994316101,1.184762954711914,11.133936882019045,0.1287000030279159,-1.2827374935150146,-2.0772125720977783,7,5
759,-0.2768209874629974,1.0594580173492432,6.895638942718506,0.8812375068664551,-1.3524500131607056,-2.0185000896453857,7,5
760,0.0528299994766712,0.902318000793457,3.110344886779785,1.1012375354766846,-1.213162541389465,-1.9098750352859497,7,5
761,0.9899190068244934,0.3411720097064972,0.0842719972133636,0.9887624979019164,-0.5326749682426453,-1.8096375465393064,7,5
762,2.1845428943634038,0.0111840004101395,-1.4238300323486328,0.5600374937057495,0.5106750130653381,-1.7656375169754028,7,5
763,2.0489230155944824,0.2061010003089904,-1.065891981124878,-0.017875000834465,1.7115999460220337,-1.879349946975708,7,5
764,1.2445780038833618,0.0531429983675479,1.6071369647979736,-0.4699749946594238,2.647424936294556,-2.058924913406372,7,5
765,0.2600579857826233,-0.4745140075683594,4.763467788696289,-0.5615500211715698,3.070237398147583,-2.2092125415802,7,5
766,-0.8202379941940308,-1.0712260007858276,7.320382118225098,-0.2671625018119812,3.073812484741211,-2.3240249156951904,7,5
767,-2.118896007537842,-1.586408019065857,8.685791015625,0.3180375099182129,2.728137493133545,-2.347262382507324,7,5
768,-3.6353919506073,-1.8062800168991089,8.902091979980469,1.0865249633789062,2.1367499828338623,-2.207974910736084,7,5
769,-4.335342884063721,-2.116806983947754,7.168869972229004,1.8892500400543213,1.3231624364852903,-1.9146875143051147,7,5
770,-4.366119861602783,-2.4837210178375244,3.86139702796936,2.5062124729156494,0.4398624897003174,-1.5652999877929688,7,5
771,-4.1491289138793945,-2.5838770866394043,0.0165839996188879,2.743124961853028,-0.2516250014305115,-1.2574374675750732,7,5
772,-3.808552026748657,-2.648751974105835,-3.3284358978271484,2.5660250186920166,-0.6182000041007996,-0.9495750069618224,7,5
773,-2.2972729206085205,-2.73736310005188,-5.278355121612549,2.030874967575073,-0.6169624924659729,-0.6857125163078308,7,5
774,-0.9971449971199036,-2.4096438884735107,-6.137368202209473,1.297862529754639,-0.1820500046014785,-0.5904250144958496,7,5
775,-0.9588069915771484,-2.2814929485321045,-5.187229156494141,0.5893250107765198,0.5717250108718872,-0.6319500207901001,7,5
776,-1.8513859510421755,-2.250417947769165,-2.70450210571289,0.0749375000596046,1.1741124391555786,-0.645425021648407,7,5
777,-3.089679002761841,-2.226713895797729,-0.4732469916343689,-0.1461624950170517,1.3866875171661377,-0.567187488079071,7,5
778,-3.834896087646485,-2.113729953765869,1.2645679712295532,-0.0863500013947486,1.198449969291687,-0.403425008058548,7,5
779,-3.987534046173096,-2.0551679134368896,2.1111440658569336,0.1776500046253204,0.6524375081062317,-0.1688500046730041,7,5
780,-3.40527892112732,-1.8757519721984863,1.413949966430664,0.4915624856948852,-0.061049997806549,0.0582999996840953,7,5
781,-2.0998129844665527,-1.7211309671401978,-0.3692080080509186,0.7028999924659729,-0.5717250108718872,0.2110625058412552,7,5
782,-0.7453460097312927,-1.6136419773101809,-2.1338438987731934,0.6980875134468079,-0.7000125050544739,0.272112488746643,7,5
783,0.0427250005304813,-1.2874009609222412,-3.279223918914795,0.4890874922275543,-0.4911499917507171,0.2477750033140182,7,5
784,0.2260770052671432,-1.02162504196167,-3.358715057373047,0.1689874976873397,-0.1220999956130981,0.1755875051021576,7,5
785,-0.1418070048093795,-0.8205080032348633,-2.5863940715789795,-0.1303499937057495,0.2077624946832656,0.1182499974966049,7,5
786,-0.5341460108757019,-0.8033239841461182,-1.1775339841842651,-0.3232625126838684,0.3506250083446502,0.1084875017404556,7,5
787,-0.8489689826965332,-0.7429019808769226,0.04415899887681,-0.3574999868869781,0.3201000094413757,0.1413500010967254,7,5
788,-0.873691976070404,-0.6046159863471985,0.8556889891624451,-0.2499749958515167,0.1442375034093856,0.2025374919176101,7,5
789,-0.6977419853210449,-0.4331260025501251,0.8208529949188232,-0.0838750004768371,-0.1000999957323074,0.2635875046253204,7,5
790,-0.075543999671936,-0.4986700117588043,0.3720310032367706,0.0516999997198581,-0.2919124960899353,0.3088249862194061,7,5
791,0.6028800010681152,-0.5237560272216797,-0.4618540108203888,0.089649997651577,-0.3469125032424927,0.2978250086307525,7,5
792,1.130321979522705,-0.465472012758255,-0.9136540293693542,0.0285999998450279,-0.2638624906539917,0.2330625057220459,7,5
793,1.4387609958648682,-0.4217720031738281,-0.9070760011672974,-0.0985874980688095,-0.1405249983072281,0.1194875016808509,7,5
794,1.0995609760284424,-0.3716300129890442,-0.5255879759788513,-0.2182125002145767,0.0232375003397464,-0.0174624994397163,7,5
795,0.454010009765625,-0.2680999934673309,0.2750000059604645,-0.2842124998569488,0.1637624949216842,-0.1187999993562698,7,5
796,-0.3014039993286133,-0.1955689936876297,0.838092029094696,-0.2719750106334686,0.2223374992609024,-0.1530375033617019,7,5
797,-0.9128170013427734,-0.1976960003376007,1.0952080488204956,-0.1949750036001205,0.1771000027656555,-0.1200374960899353,7,5
798,-1.1935410499572754,-0.1201879978179931,1.071516990661621,-0.1071124970912933,0.0305249989032745,-0.0295624993741512,7,5
799,-0.9945780038833618,-0.093028999865055,0.9019370079040528,-0.0423500016331672,-0.1636250019073486,0.0888250023126602,7,5
800,0.4180040061473846,-0.0458180010318756,-0.6193270087242126,0.0211750008165836,-0.075762502849102,-0.0125124994665384,8,5
801,0.2697030007839203,0.0599710009992122,-0.541799008846283,-0.0533500015735626,-0.0232375003397464,-0.0467500016093254,8,5
802,0.0659729987382888,0.0770820006728172,-0.1599140018224716,-0.1083500012755394,0.0269499998539686,-0.0662750005722045,8,5
803,-0.1366000026464462,0.0746970027685165,0.3359180092811584,-0.1131625026464462,0.0574750006198883,-0.0687500014901161,8,5
804,-0.3042559921741485,0.1189849972724914,0.7397710084915161,-0.0606375001370906,0.0745249986648559,-0.0527999997138977,8,5
805,-0.2421880066394806,0.0551600009202957,0.709551990032196,0.0285999998450279,0.0525249987840652,-0.0272249989211559,8,5
806,-0.0807730033993721,0.0580219998955726,0.3142659962177276,0.1018875017762184,0.0207624994218349,-0.0112749999389052,8,5
807,0.1394740045070648,0.1029950007796287,-0.1560799926519394,0.118937499821186,-0.0232375003397464,-0.0125124994665384,8,5
808,0.4374490082263946,0.0439219996333122,-0.6561790108680725,0.0847000032663345,-0.0525249987840652,-0.0320375002920627,8,5
809,0.5211319923400879,0.0439120009541511,-0.8371670246124268,0.0016499999910593,-0.0622874982655048,-0.0820875018835067,8,5
810,0.2251449972391128,0.151076003909111,-0.6771119832992554,-0.0948750004172325,-0.0512874983251094,-0.1322750002145767,8,5
811,-0.1182660013437271,0.181547001004219,-0.2405889928340912,-0.1583999991416931,-0.0354750007390975,-0.1518000066280365,8,5
812,-0.3938980102539062,0.1445060074329376,0.1063330024480819,-0.1742125004529953,-0.0365750007331371,-0.1347499936819076,8,5
813,-0.3686540126800537,0.1467790007591247,0.4198310077190399,-0.1583999991416931,-0.0439999997615814,-0.1040875017642974,8,5
814,-0.2781940102577209,0.1722369939088821,0.7670029997825623,-0.1204499974846839,-0.0219999998807907,-0.0772750005125999,8,5
815,-0.2492820024490356,0.2188230007886886,1.190453052520752,-0.0411125011742115,-0.0072874999605119,-0.0650374963879585,8,5
816,-0.2509540021419525,0.2779589891433716,1.386191964149475,0.0676499977707862,-0.0402874983847141,-0.0625625029206276,8,5
817,-0.0647540017962455,0.3221980035305023,1.4752399921417236,0.3217499852180481,-0.1148125007748603,-0.0919874981045723,8,5
818,0.2560569941997528,0.4206399917602539,1.5129289627075195,0.4365625083446502,-0.1465750038623809,-0.1493249982595443,8,5
819,0.4163529872894287,0.4544180035591125,1.530014991760254,0.5318499803543091,-0.1978625059127807,-0.2238499969244003,8,5
820,0.6076380014419556,0.4514879882335663,1.9662339687347408,0.645562469959259,-0.3176249861717224,-0.3423750102519989,8,5
821,0.6714450120925903,0.5169190168380737,3.307952880859375,0.890999972820282,-0.3738625049591064,-0.4633750021457672,8,5
822,0.3162159919738769,0.3217079937458038,4.305788040161133,1.2465749979019165,-0.5399624705314636,-0.5317124724388123,8,5
823,-0.2046429961919784,-0.1105389967560768,5.36397123336792,1.6766749620437622,-0.8124874830245972,-0.567187488079071,8,5
824,-0.8910120129585266,-0.2156639993190765,5.826696872711182,2.137162446975708,-1.053112506866455,-0.5256624817848206,8,5
825,-1.4748719930648804,-0.6428930163383484,5.568902015686035,2.545262575149536,-1.2486374378204346,-0.4339500069618225,8,5
826,-1.7611149549484253,-0.9546279907226562,5.654104232788086,2.928887367248535,-1.2289749383926392,-0.3118500113487243,8,5
827,-1.5668009519577026,-1.2685179710388184,4.70836877822876,3.252562522888184,-1.006637454032898,-0.1920875012874603,8,5
828,-0.3616830110549927,-1.696437954902649,4.430695056915283,3.537324905395508,-0.6841999888420105,-0.1603250056505203,8,5
829,0.4317649900913238,-1.6937520503997805,3.1982929706573486,3.760900020599365,-0.0818125009536743,-0.1798499971628189,8,5
830,0.4369249939918518,-1.974578022956848,0.8683639764785767,3.749899864196777,0.5143874883651733,-0.1347499936819076,8,5
831,-0.3487060070037842,-2.11926794052124,-1.1793780326843262,3.47379994392395,0.91382497549057,0.0510125011205673,8,5
832,-1.4286099672317505,-1.7521419525146484,-2.963107109069824,3.033937454223633,1.2314499616622925,0.3540624976158142,8,5
833,-1.9479600191116333,-1.578145980834961,-4.379670143127441,2.486550092697144,1.43426251411438,0.6654999852180481,8,5
834,-2.1878058910369877,-1.6905570030212402,-4.841182231903076,1.9320124387741089,1.5527875423431396,0.963599979877472,8,5
835,-2.264446973800659,-1.7835789918899536,-4.472417831420898,1.476199984550476,1.6445000171661377,1.2458875179290771,8,5
836,-2.1389000415802,-2.0172250270843506,-3.686674118041992,1.1525249481201172,1.7300249338150024,1.4938000440597534,8,5
837,-2.568321943283081,-2.192178964614868,-2.993141889572144,0.9374749660491944,1.7518874406814575,1.7833750247955322,8,5
838,-2.833148002624512,-2.430849075317383,-3.399039030075073,0.6466624736785889,1.57354998588562,2.05947494506836,8,5
839,-2.063282012939453,-2.2999770641326904,-5.138003826141357,0.2362249940633773,1.1471624374389648,2.2525250911712646,8,5
840,-1.3920409679412842,-2.1321001052856445,-6.036746025085449,-0.2134000062942505,0.6877750158309937,2.374762535095215,8,5
841,-1.0576269626617432,-2.1707019805908203,-6.596106052398682,-0.6886000037193298,0.3176249861717224,2.448050022125244,8,5
842,-1.4672240018844604,-2.067315101623535,-7.021247863769531,-1.1540374755859375,0.1014750003814697,2.5249125957489014,8,5
843,-2.041533946990967,-2.1264469623565674,-7.201141834259033,-1.62318754196167,0.0195249989628791,2.6826250553131104,8,5
844,-2.767242908477783,-2.5548810958862305,-7.413174152374268,-2.098525047302246,-0.0072874999605119,2.925724983215332,8,5
845,-0.9881250262260436,-3.4155080318450928,-7.803435802459717,-2.582249879837036,-0.061049997806549,3.240875005722046,8,5
846,3.6973700523376474,-3.880040884017944,-9.42076015472412,-3.2309749126434326,-0.0965249985456466,3.2885875701904297,8,5
847,6.433566093444824,-3.2380659580230717,-9.461403846740724,-4.064225196838379,0.0562375001609325,2.763200044631958,8,5
848,6.415305137634277,-2.587754011154175,-7.632264137268066,-4.863237380981445,0.3726249933242798,1.9091874361038208,8,5
849,4.907790184020996,-2.4243369102478027,-4.914480209350586,-5.470437526702881,0.6047250032424927,1.124887466430664,8,5
850,3.4969820976257324,-2.720902919769287,-2.562047004699707,-5.827112674713135,0.681725025177002,0.5286874771118164,8,5
851,1.4494459629058838,-2.415724992752075,0.7883920073509216,-5.880875110626221,0.5913875102996826,0.1340624988079071,8,5
852,0.8345029950141907,-1.4223289489746094,4.841734886169434,-5.58882474899292,0.2418625056743621,-0.0527999997138977,8,5
853,1.3898080587387085,-0.2221069931983947,9.199482917785645,-4.946287631988525,-0.3444375097751617,-0.2202749997377395,8,5
854,2.3337619304656982,0.7808039784431458,12.538955688476562,-3.965224981307984,-1.014062523841858,-0.4841375052928924,8,5
855,3.001750946044922,1.3246389627456665,14.442418098449709,-2.669012546539306,-1.4550249576568604,-0.8115249872207642,8,5
856,3.2171669006347656,1.81491494178772,13.785012245178224,-1.202987551689148,-1.601599931716919,-1.16462504863739,8,5
857,3.2852439880371094,1.990157961845398,10.088244438171388,0.089649997651577,-1.4672625064849854,-1.5188249349594116,8,5
858,2.061809062957764,2.039458990097046,5.407382965087891,0.8153749704360962,-1.2046375274658203,-1.825587511062622,8,5
859,0.4971489906311035,1.6366419792175293,1.2306979894638062,0.9594749808311462,-0.6975374817848206,-1.94768750667572,8,5
860,-0.6835179924964905,0.9160419702529908,-0.8971359729766846,0.689424991607666,-0.0134749999269843,-1.842637538909912,8,5
861,-1.2360609769821167,0.5149639844894409,-1.2881959676742554,0.2301750034093856,0.7024874687194824,-1.6275874376296997,8,5
862,-0.7929490208625793,0.502718985080719,0.6387739777565002,-0.2219250053167343,1.3316874504089355,-1.4187250137329102,8,5
863,-0.3522050082683563,0.5879539847373962,2.9919309616088867,-0.4210250079631805,1.9131749868392944,-1.3552000522613523,8,5
864,-0.0573250018060207,-0.0627489984035492,5.097647190093994,-0.2671625018119812,2.284562587738037,-1.4064874649047852,8,5
865,-0.3241699934005737,-0.5689730048179626,6.245882034301758,0.1031249985098838,2.2345125675201416,-1.5237749814987185,8,5
866,-0.7814679741859436,-0.9282820224761964,6.250580787658691,0.5990874767303467,1.8203624486923216,-1.6312999725341797,8,5
867,-1.4157119989395142,-1.1142569780349731,5.565720081329346,1.0987625122070312,1.1483999490737915,-1.6911125183105469,8,5
868,-1.6979000568389893,-1.3357150554656982,4.170695781707764,1.5091999769210815,0.3653374910354614,-1.7070624828338623,8,5
869,-1.3091180324554443,-1.372467041015625,3.265439987182617,1.8049625158309937,-0.2908124923706054,-1.6850625276565552,8,5
870,-0.5300890207290649,-1.4694349765777588,2.466123104095459,1.9930624961853027,-0.7623000144958496,-1.7193000316619873,8,5
871,-0.8406710028648376,-1.4364279508590698,1.388597011566162,2.137162446975708,-0.8650124669075012,-1.796162486076355,8,5
872,-1.5486940145492554,-1.1813299655914309,0.9710069894790648,2.2056374549865723,-0.808775007724762,-1.816925048828125,8,5
873,-2.8452649116516118,-1.0523309707641602,0.0372419990599155,2.1946375370025635,-0.7024874687194824,-1.7241125106811523,8,5
874,-3.8207719326019287,-1.3318649530410769,-1.1076840162277222,2.1225874423980717,-0.5131499767303467,-1.4431999921798706,8,5
875,-4.485355854034424,-1.5763670206069946,-2.1324169635772705,1.9332499504089355,-0.3115749955177307,-1.0326249599456787,8,5
876,-4.787797927856445,-1.3800009489059448,-2.695564985275269,1.625249981880188,-0.1735250055789947,-0.570900022983551,8,5
877,-3.3799099922180176,-1.4450739622116089,-2.6121609210968018,1.2600499391555786,-0.1233374997973442,-0.1652749925851822,8,5
878,-1.5983320474624634,-1.3836790323257446,-2.5709800720214844,0.9044749736785888,-0.032999999821186,0.0277750007808208,8,5
879,-0.5250210165977478,-1.292659044265747,-1.9646799564361568,0.6345624923706055,0.2003374993801117,0.0314874984323978,8,5
880,-0.2801919877529144,-1.2618310451507568,-0.8189749717712402,0.4537499845027923,0.329862505197525,-0.0625625029206276,8,5
881,-0.9221410155296326,-1.239388942718506,0.0335679985582828,0.3975124955177307,0.2943874895572662,-0.1505624949932098,8,5
882,-1.622164964675903,-1.3324799537658691,0.3312819898128509,0.4658499956130981,0.1417624950408935,-0.1468500047922134,8,5
883,-2.0767641067504883,-1.294605016708374,0.1132730022072792,0.5721374750137329,-0.1331000030040741,-0.0577500015497207,8,5
884,-1.824790954589844,-1.0568900108337402,-0.7642530202865601,0.6393749713897705,-0.4531999826431274,0.076724998652935,8,5
885,-1.0052859783172607,-0.661994993686676,-1.7949960231781006,0.5941374897956848,-0.6315374970436096,0.1572999954223632,8,5
886,-0.3969489932060241,-0.3579559922218323,-2.207648038864136,0.4438500106334686,-0.6107749938964844,0.1560624986886978,8,5
887,0.3016009926795959,-1.12807297706604,-2.728080034255981,0.2557500004768371,-0.4288625121116638,0.0840125009417533,8,5
888,-0.7787060141563416,-0.5845940113067627,-2.2164878845214844,0.0921249985694885,0.0317624993622303,-0.0417999997735023,8,5
889,-1.6882920265197754,0.5434340238571167,-0.4654490053653717,-0.0569249987602233,0.103812500834465,0.0692999958992004,8,5
890,-1.0101150274276731,0.2999759912490845,-0.9796460270881652,-0.1522125005722046,0.032999999821186,0.240349993109703,8,5
891,-0.0341099984943866,-0.6352890133857727,-1.442338943481445,-0.1889249980449676,0.2505249977111816,0.2708750069141388,8,5
892,0.267753005027771,-0.7861279845237732,-1.33582603931427,-0.2574000060558319,0.4508624970912933,0.2378749996423721,8,5
893,0.1559710055589676,-0.3667770028114319,-0.9974070191383362,-0.3465000092983246,0.4728625118732452,0.2232999950647354,8,5
894,-0.0746280029416084,-0.0904449969530105,-0.465595006942749,-0.4087874889373779,0.3603875041007995,0.208587497472763,8,5
895,-0.329472005367279,0.0814319998025894,0.155688002705574,-0.4357374906539917,0.1343374997377395,0.2000624984502792,8,5
896,-0.2822130024433136,0.2509230077266693,0.3534930050373077,-0.4405499994754791,-0.1258125007152557,0.1865874975919723,8,5
897,0.278562992811203,0.0250739995390176,-0.01445799972862,-0.4307875037193298,-0.1636250019073486,0.1755875051021576,8,5
898,0.8096129894256592,-0.2123100012540817,-0.1127910017967224,-0.4650250077247619,0.0452375002205371,0.0950125008821487,8,5
899,1.0195200443267822,-0.3660359978675842,-0.0442249998450279,-0.5150749683380127,0.3579125106334686,-0.0442750006914138,8,5
900,0.3580780029296875,0.024872999638319,-0.4449920058250427,0.0627000033855438,-0.032999999821186,-0.0417999997735023,9,5
901,0.2690019905567169,-0.0229800008237361,-0.582656979560852,0.0004124999977648,0.0549999997019767,-0.0712250024080276,9,5
902,0.0033470001071691,0.0679040029644966,-0.3536770045757293,-0.0728750005364418,0.0928125008940696,-0.0882750004529953,9,5
903,-0.2397470027208328,0.0766990035772323,0.0556589998304843,-0.1083500012755394,0.079475000500679,-0.0772750005125999,9,5
904,-0.4060409963130951,0.0246309991925954,0.3550460040569305,-0.0936374962329864,0.0122375003993511,-0.0503249987959861,9,5
905,-0.3669010102748871,-0.0012580000329762,0.3504939973354339,-0.0448249988257885,-0.0695749968290329,-0.0087999999523162,9,5
906,-0.1704050004482269,-0.0240010004490613,-0.075545996427536,-0.011824999935925,-0.0952875018119812,0.022962499409914,9,5
907,-0.0408039987087249,0.0350859984755516,-0.4950830042362213,-0.0288750007748603,-0.0354750007390975,0.0387750007212162,9,5
908,0.0525659993290901,0.0457159988582134,-0.7243459820747375,-0.0851124972105026,0.0697124972939491,0.0485375002026557,9,5
909,0.1425980031490326,0.0038179999683052,-0.7556399703025818,-0.1632124930620193,0.1539999991655349,0.0497750006616115,9,5
910,0.178627997636795,0.0371179990470409,-0.6198239922523499,-0.2366375029087066,0.1880999952554702,0.0412499979138374,9,5
911,0.1895010024309158,0.1652030050754547,-0.1631519943475723,-0.2915000021457672,0.151525005698204,0.0192499998956918,9,5
912,0.1058470010757446,0.2431519925594329,0.4397290050983429,-0.2927374839782715,0.0379500016570091,-0.0052249999716877,9,5
913,-0.0064710001461207,0.3371390104293823,1.1133960485458374,-0.23539999127388,-0.1343374997377395,-0.0272249989211559,9,5
914,0.0046279998496174,0.5220569968223572,2.151453971862793,-0.1254000067710876,-0.3286249935626983,-0.0515624992549419,9,5
915,-0.180184006690979,0.6165310144424438,2.903848886489868,0.0713625028729438,-0.4361499845981598,-0.0809874981641769,9,5
916,-0.1582169979810714,0.6039720177650452,3.7319529056549072,0.3559874892234802,-0.4862000048160553,-0.0882750004529953,9,5
917,0.0917669981718063,0.6983299851417542,4.625807762145996,0.720087468624115,-0.5974375009536743,-0.1040875017642974,9,5
918,0.6887879967689514,0.4285959899425506,4.401377201080322,1.1232374906539917,-0.6962999701499939,-0.1883749961853027,9,5
919,1.3250190019607544,0.0270199999213218,4.232327938079834,1.4408625364303589,-0.778249979019165,-0.3253250122070312,9,5
920,1.6591360569000244,-0.2068109959363937,4.165197849273682,1.682724952697754,-0.888112485408783,-0.5121874809265137,9,5
921,1.1723220348358154,-0.3400430083274841,4.247463226318359,1.91358745098114,-0.9455875158309937,-0.7222874760627747,9,5
922,-0.0395309999585151,-0.3495930135250091,4.283048152923584,2.131112575531006,-1.0053999423980713,-0.8750500082969666,9,5
923,-1.2821999788284302,-0.6265239715576172,4.183967113494873,2.3449249267578125,-1.1044000387191772,-0.8665249943733215,9,5
924,-2.463624954223633,-0.863493025302887,3.863132953643799,2.5647873878479004,-1.2376375198364258,-0.7199500203132629,9,5
925,-2.792464017868042,-1.1049230098724363,4.04762601852417,2.789599895477295,-1.3549250364303589,-0.4779500067234039,9,5
926,-2.594810962677002,-1.3745110034942627,3.737029075622559,3.041224956512451,-1.459975004196167,-0.2116124927997589,9,5
927,-2.275330066680908,-1.8238420486450195,2.9442570209503174,3.328325033187866,-1.3292125463485718,0.007012499962002,9,5
928,-1.8665460348129272,-2.23486590385437,0.7418559789657593,3.56784987449646,-0.9516375064849854,0.2073500007390976,9,5
929,-1.3571020364761353,-2.783129930496216,-2.1292049884796143,3.578850030899048,-0.3506250083446502,0.4175874888896942,9,5
930,-1.395488977432251,-2.783277034759521,-4.394724845886231,3.2709875106811523,0.3335750102996826,0.631262481212616,9,5
931,-1.509171962738037,-2.424602031707764,-5.657182216644287,2.723599910736084,0.9200124740600586,0.8817874789237976,9,5
932,-1.3009849786758425,-2.1231210231781006,-5.703760147094727,2.0613999366760254,1.2253999710083008,1.1175999641418457,9,5
933,-1.311434984207153,-1.951022028923035,-4.914612770080566,1.433437466621399,1.3451625108718872,1.2874125242233276,9,5
934,-1.565047025680542,-2.0121729373931885,-3.9404120445251465,0.9851874709129332,1.43797504901886,1.4474624395370483,9,5
935,-2.0497500896453857,-2.098539113998413,-2.984447956085205,0.6883249878883362,1.4416874647140503,1.635562539100647,9,5
936,-2.9318389892578125,-2.1340808868408203,-2.121900081634521,0.4866124987602234,1.2376375198364258,1.8761874437332156,9,5
937,-3.6972949504852295,-2.1683149337768555,-2.239687919616699,0.3840374946594238,0.9125875234603882,2.2219998836517334,9,5
938,-4.009943008422852,-2.3541951179504395,-3.1408579349517822,0.2862749993801117,0.5766749978065491,2.603149890899658,9,5
939,-3.391433954238892,-2.673513889312744,-4.950950145721436,0.0859375,0.3201000094413757,2.967249870300293,9,5
940,-1.482180953025818,-2.9882969856262207,-7.071699142456055,-0.3196874856948852,0.2308624982833862,3.227400064468384,9,5
941,0.0722519978880882,-2.780284881591797,-8.576244354248047,-0.9171249866485596,0.2285249978303909,3.2995874881744385,9,5
942,1.415372014045715,-2.3496289253234863,-9.870256423950195,-1.6464250087738037,0.1392875015735626,3.212825059890747,9,5
943,2.7510879039764404,-2.173832893371582,-10.550039291381836,-2.496725082397461,-0.0012374999932944,2.990487575531006,9,5
944,3.244663953781128,-2.5024120807647705,-10.290290832519531,-3.372737407684326,0.0855249986052513,2.632437467575073,9,5
945,3.0649991035461426,-2.48374605178833,-9.097182273864746,-4.202274799346924,0.3383874893188476,2.218287467956543,9,5
946,2.809375047683716,-2.5635979175567627,-6.932498931884766,-4.943812370300293,0.5546749830245972,1.8346624374389648,9,5
947,3.015408992767334,-2.981628894805908,-4.748115062713623,-5.49848747253418,0.6377249956130981,1.452275037765503,9,5
948,3.444689989089966,-3.3680169582366943,-2.433188915252685,-5.807587623596191,0.7379624843597412,1.0808874368667605,9,5
949,3.3993289470672607,-2.523574113845825,1.5778089761734009,-5.868637561798096,0.8368250131607056,0.634975016117096,9,5
950,3.049001932144165,-0.6821029782295227,8.33477783203125,-5.49477481842041,0.8185374736785889,0.1633500009775161,9,5
951,3.5796689987182617,0.3386760056018829,12.419787406921388,-4.54794979095459,0.476437509059906,-0.2666124999523163,9,5
952,3.528264045715332,0.161872997879982,13.4443998336792,-3.1234500408172607,0.0904750004410743,-0.6954749822616577,9,5
953,2.702038049697876,0.3639769852161407,11.41501808166504,-1.7038999795913696,-0.4398624897003174,-1.0595749616622925,9,5
954,1.7372219562530518,1.05964994430542,8.37968921661377,-0.7533624768257141,-1.1838749647140503,-1.2854875326156616,9,5
955,1.7154029607772827,1.1829429864883425,5.422677040100098,-0.2684000134468078,-1.7580749988555908,-1.4004374742507937,9,5
956,2.562113046646118,1.0351589918136597,3.51087498664856,-0.0631124973297119,-1.863124966621399,-1.5017750263214111,9,5
957,2.6346139907836914,1.1482360363006592,1.4953429698944092,-0.017875000834465,-1.307212471961975,-1.6618249416351318,9,5
958,2.031351089477539,0.8836749792098999,0.2702299952507019,-0.1742125004529953,-0.2761000096797943,-1.7815874814987185,9,5
959,1.2325910329818726,0.4992130100727081,0.572147011756897,-0.4857875108718872,0.7917249798774719,-1.807162523269653,9,5
960,0.3031480014324188,0.2465929985046386,2.226408004760742,-0.7350749969482422,1.6847875118255615,-1.813349962234497,9,5
961,-0.7130789756774902,-0.03192999958992,4.930300235748291,-0.7288874983787537,2.2222750186920166,-1.7803499698638916,9,5
962,-1.4353419542312622,-0.3619219958782196,6.580763816833496,-0.4345000088214874,2.356750011444092,-1.7058249711990356,9,5
963,-1.6190060377120972,-0.8359140157699585,7.134195804595947,0.0676499977707862,2.236987590789795,-1.6032500267028809,9,5
964,-1.6596779823303225,-1.15408194065094,6.4965128898620605,0.6356624960899353,1.922937512397766,-1.4980624914169312,9,5
965,-1.8256789445877075,-1.4966230392456057,4.739391803741455,1.139050006866455,1.5234999656677246,-1.3772000074386597,9,5
966,-1.8463419675827024,-1.7984139919281006,2.334582090377808,1.450624942779541,1.0421124696731567,-1.2489124536514282,9,5
967,-1.643615961074829,-1.7466709613800049,0.0643500015139579,1.5129125118255615,0.5583875179290771,-1.1254374980926514,9,5
968,-1.2739739418029783,-1.8838289976119995,-1.6497700214385986,1.3553375005722046,0.167337492108345,-1.0240999460220337,9,5
969,-1.3348430395126345,-1.8465789556503296,-2.338583946228028,1.052287459373474,-0.0195249989628791,-0.9666249752044678,9,5
970,-1.5542089939117432,-1.671849012374878,-1.737957000732422,0.7261375188827515,-0.0452375002205371,-0.8860499858856201,9,5
971,-1.6180880069732666,-1.5165929794311523,-0.7826129794120789,0.509850025177002,0.0940499976277351,-0.781000018119812,9,5
972,-2.076427936553955,-1.4431320428848269,0.0044320002198219,0.4463250041007995,0.4006749987602234,-0.6832374930381775,9,5
