time,seconds_elapsed,z,y,x
1750743731157222000,0.057221923828125,1.6964770555496216,-0.06847900152206421,-1.4855250120162964
1750743731166825700,0.06682568359375,1.5403399467468262,-0.5249580144882202,-1.2142529487609863
1750743731176429800,0.076429931640625,1.1075769662857056,-0.5667870044708252,-0.9284740090370178
1750743731186033400,0.086033447265625,0.5717759728431702,-0.3709860146045685,-0.8412879705429077
1750743731195637500,0.095637451171875,0.1896509975194931,-0.12720899283885956,-0.9631410241127014
1750743731205241300,0.105241455078125,0.2604759931564331,0.2582570016384125,-1.1996760368347168
1750743731214845400,0.114845458984375,0.47909900546073914,0.4405969977378845,-1.3171440362930298
1750743731224449000,0.124448974609375,0.586234986782074,0.3153949975967407,-1.0374029874801636
1750743731234053000,0.13405322265625,0.35137999057769775,0.11851999908685684,-0.7034019827842712
1750743731243657000,0.143656982421875,0.08573299646377563,0.006457999814301729,-0.4705840051174164
1750743731253261000,0.153260986328125,-0.028656000271439552,-0.0883219987154007,-0.27107399702072144
1750743731262865200,0.162865234375,0.07124999910593033,-0.12878599762916565,-0.24018800258636475
1750743731272468700,0.17246875,0.27562201023101807,-0.052080001682043076,-0.2902199923992157
1750743731282072800,0.18207275390625,0.2803710103034973,0.03051000088453293,-0.3099690079689026
1750743731291676700,0.1916767578125,0.1479710042476654,-0.13119100034236908,-0.2565549910068512
1750743731301280800,0.20128076171875,-0.2934019863605499,-0.44539499282836914,-0.08461300283670425
1750743731310884400,0.21088427734375,-0.8361250162124634,-0.7544670104980469,-0.09651199728250504
1750743731320488400,0.220488525390625,-1.0774530172348022,-0.9930970072746277,0.001986999996006489
1750743731330092300,0.23009228515625,-1.1650609970092773,-1.0513739585876465,-0.023329999297857285
1750743731339696000,0.239696044921875,-0.5594499707221985,-0.7598180174827576,-0.2503589987754822
1750743731349300000,0.249300048828125,0.14448200166225433,-0.6472749710083008,-0.11291500180959702
1750743731358904000,0.258904052734375,1.2650749683380127,-0.7159050107002258,0.26033100485801697
1750743731368508000,0.2685078125,2.6238789558410645,-1.0513230562210083,0.37507501244544983
1750743731378112000,0.278112060546875,2.6513800621032715,-0.8817089796066284,0.05217700079083443
1750743731387715800,0.2877158203125,2.7226309776306152,-0.33951500058174133,-0.4407939910888672
1750743731397319700,0.297319580078125,2.4030299186706543,0.022843999788165092,-0.96526700258255
1750743731406923800,0.306923828125,1.9849400520324707,-0.10734599828720093,-1.1081039905548096
1750743731416527600,0.316527587890625,1.3891639709472656,-0.4923889935016632,-1.2628430128097534
1750743731426131500,0.32613134765625,0.6627259850502014,-0.8279290199279785,-1.219180941581726
1750743731435735600,0.335735595703125,-0.05462900176644325,-0.9448570013046265,-0.9517059922218323
1750743731445339400,0.34533935546875,-0.6470040082931519,-0.9036639928817749,-0.908610999584198
1750743731454943200,0.354943115234375,-1.2383480072021484,-0.7765100002288818,-0.7406889796257019
1750743731464547000,0.364547119140625,-1.4657469987869263,-0.43449100852012634,-0.7769960165023804
1750743731474151000,0.37415087890625,-1.6834570169448853,-0.23138900101184845,-0.8703709840774536
1750743731483755000,0.383755126953125,-1.9155030250549316,-0.15233899652957916,-0.9403319954872131
1750743731493359000,0.393359130859375,-1.9588069915771484,-0.1348000019788742,-0.889627993106842
1750743731502962700,0.402962646484375,-1.8133440017700195,0.024279000237584114,-0.7524660229682922
1750743731512566800,0.41256689453125,-1.9670939445495605,0.08896300196647644,-0.559349000453949
1750743731522170400,0.42217041015625,-2.104201078414917,0.015479999594390392,-0.30349698662757874
1750743731531774500,0.4317744140625,-1.8950109481811523,-0.09218700230121613,-0.13140499591827393
1750743731541378800,0.44137890625,-0.9507790207862854,0.23268400132656097,-0.2639720141887665
1750743731550982400,0.450982421875,0.7601789832115173,1.179880976676941,-0.8703640103340149
1750743731560586200,0.460586181640625,2.3556969165802,2.5716679096221924,-1.8266969919204712
1750743731570190000,0.470190185546875,3.219686985015869,2.5800299644470215,-1.9711899757385254
1750743731579794200,0.479794189453125,3.2784500122070312,1.0632909536361694,-1.220947027206421
1750743731589398000,0.48939794921875,1.912382960319519,-0.30692198872566223,-0.6161580085754395
1750743731599002000,0.499002197265625,0.2797029912471771,-0.6955850124359131,-0.4229710102081299
1750743731608605700,0.508605712890625,-0.7568169832229614,-0.5565959811210632,-0.4708479940891266
1750743731618209800,0.518209716796875,-1.29961097240448,-0.22814799845218658,-0.562949001789093
1750743731627813600,0.527813720703125,-1.3213679790496826,-0.02398099936544895,-0.6628299951553345
1750743731637417700,0.537417724609375,-0.9600110054016113,0.02356399968266487,-0.7544959783554077
1750743731647021300,0.547021240234375,-0.6824610233306885,0.006167000159621239,-0.49161800742149353
1750743731656625400,0.55662548828125,-0.36084800958633423,-0.06237500160932541,-0.305433988571167
1750743731666229200,0.566229248046875,-0.2909559905529022,-0.027379000559449196,-0.22305500507354736
1750743731675833300,0.575833251953125,-0.12407699972391129,0.017037000507116318,-0.1477469950914383
1750743731685437000,0.58543701171875,0.054340001195669174,0.05624600127339363,-0.22631900012493134
1750743731695041000,0.595041015625,0.3896790146827698,0.08633700013160706,-0.37462300062179565
1750743731704645000,0.60464501953125,0.5887150168418884,0.050988998264074326,-0.33677801489830017
1750743731714249000,0.6142490234375,0.6908550262451172,0.040456999093294144,-0.23044200241565704
1750743731723852800,0.623852783203125,0.5191320180892944,0.004530000034719706,-0.18191300332546234
1750743731733456600,0.63345654296875,0.3881179988384247,-0.05444499850273132,-0.15811499953269958
1750743731743060700,0.643060791015625,0.4193350076675415,-0.003837999887764454,-0.15637800097465515
1750743731752664800,0.652664794921875,0.35369500517845154,0.06443499773740768,-0.15354399383068085
1750743731762268400,0.662268310546875,0.2542549967765808,0.12257900089025497,-0.10133600234985352
1750743731771872300,0.671872314453125,0.1034810021519661,0.178847998380661,-0.2207619994878769
1750743731781476400,0.681476318359375,0.05142800137400627,0.10847000032663345,0.10542000085115433
1750743731791080200,0.691080078125,-0.05841999873518944,0.16651900112628937,0.11568299680948257
1750743731800684000,0.70068408203125,-0.1117049977183342,0.16948799788951874,0.13723400235176086
1750743731810288000,0.7102880859375,-0.22373700141906738,0.03347500041127205,0.12420699745416641
1750743731819892000,0.71989208984375,-0.42445001006126404,-0.0759510025382042,0.11908099800348282
1750743731829496000,0.72949609375,-0.6861969828605652,-0.02881699986755848,0.02354400046169758
1750743731839100000,0.739099853515625,-0.7845270037651062,0.08493400365114212,-0.05932300165295601
1750743731848704000,0.7487041015625,-0.6095749735832214,0.07424300163984299,-0.16850100457668304
1750743731858307800,0.758307861328125,-0.5788779854774475,0.0578560009598732,-0.3835810124874115
1750743731867912000,0.767911865234375,-0.41468098759651184,0.06065699830651283,-0.5026230216026306
1750743731877515500,0.777515625,-0.2597160041332245,0.08295600116252899,-0.6358619928359985
1750743731887119600,0.78711962890625,-0.2884399890899658,0.0534840002655983,-0.5109519958496094
1750743731896723700,0.7967236328125,-0.15693399310112,-0.08468300104141235,-0.321056991815567
1750743731906327600,0.80632763671875,-0.1095929965376854,-0.16857600212097168,-0.07305300235748291
1750743731915931400,0.815931396484375,0.019019000232219696,-0.16908100247383118,0.002822000067681074
1750743731925535500,0.825535400390625,0.28936800360679626,-0.12075900286436081,0.04096100106835365
1750743731935139300,0.835139404296875,0.4500429928302765,-0.11929800361394882,0.02745700068771839
1750743731944743200,0.8447431640625,0.4783949851989746,-0.07035999745130539,-0.03852299973368645
1750743731954347000,0.854346923828125,0.5659580230712891,-0.05059099942445755,-0.03884200006723404
1750743731963950800,0.863950927734375,0.6592130064964294,-0.082505002617836,0.01145699992775917
1750743731973555000,0.873554931640625,0.5525630116462708,-0.06068199872970581,0.06262300163507462
1750743731983159000,0.883158935546875,0.30923599004745483,-0.08744700253009796,0.13316400349140167
1750743731992763000,0.892762939453125,0.07310300320386887,-0.0913819968700409,0.18032699823379517
1750743732002366700,0.90236669921875,-0.009612999856472015,-0.030378999188542366,0.035089001059532166
1750743732011970600,0.911970458984375,0.061117999255657196,0.10269200056791306,-0.15662799775600433
1750743732021574700,0.92157470703125,0.14418800175189972,0.14661499857902527,-0.2620669901371002
1750743732031178500,0.931178466796875,0.031029999256134033,0.13607999682426453,-0.1560470014810562
1750743732040782300,0.9407822265625,-0.18986700475215912,0.07125099748373032,-0.006386000197380781
1750743732050386400,0.950386474609375,-0.26511499285697937,-0.026329999789595604,0.06738600134849548
1750743732059990300,0.959990234375,0.06833899766206741,-0.07932200282812119,0.024119999259710312
1750743732069594000,0.969593994140625,0.164014995098114,-0.043147001415491104,-0.03856400027871132
1750743732079198000,0.979197998046875,0.48350998759269714,0.1059269979596138,0.11642500013113022
1750743732088802000,0.988802001953125,0.49965301156044006,0.15313999354839325,0.1028050035238266
1750743732098406000,0.998406005859375,0.2977379858493805,0.08647599816322327,-0.005551000125706196
1750743732108010000,1.008010009765625,0.02338399924337864,-0.011872000060975552,-0.06725700199604034
1750743732117613600,1.017613525390625,-0.18213899433612823,-0.053311001509428024,-0.12653400003910065
1750743732127217700,1.0272177734375,-0.11652900278568268,-0.08205299824476242,-0.18001699447631836
1750743732136821800,1.03682177734375,-0.11512400209903717,-0.028528999537229538,-0.12319699674844742
1750743732146425600,1.046425537109375,-0.12567299604415894,0.0009660000214353204,-0.024658000096678734
1750743732156029700,1.05602978515625,-0.2347559928894043,0.05340899899601936,0.06895200163125992
1750743732165633300,1.06563330078125,-0.33570900559425354,0.11955100297927856,0.11796899884939194
1750743732175237400,1.0752373046875,0.14485399425029755,0.10964199900627136,0.1800920069217682
1750743732184841200,1.08484130859375,0.3413879871368408,0.20850799977779388,0.13226699829101562
1750743732194445000,1.094445068359375,0.07995399832725525,0.12441399693489075,0.09843999892473221
1750743732204049200,1.104049072265625,-0.2971630096435547,-0.10415100306272507,0.11848200112581253
1750743732213653000,1.113653076171875,-0.42225098609924316,-0.1538500040769577,0.2737849950790405
1750743732223257000,1.123257080078125,-0.28404000401496887,-0.27825701236724854,0.4041610062122345
1750743732232860700,1.132860595703125,-0.16849200427532196,-0.2934730052947998,0.30317598581314087
1750743732242464800,1.14246484375,-0.1838430017232895,-0.21432100236415863,0.12642300128936768
1750743732252068600,1.152068603515625,-0.32878100872039795,-0.08756399899721146,-0.021622000262141228
1750743732261672700,1.161672607421875,-0.6453850269317627,0.0765409991145134,-0.08668500185012817
1750743732271276500,1.171276611328125,-1.052224040031433,0.14442400634288788,-0.050282999873161316
1750743732280880400,1.18088037109375,-1.0603679418563843,0.14849600195884705,0.07460000365972519
1750743732290484500,1.190484375,-0.7881550192832947,0.04155699908733368,0.16774700582027435
1750743732300088300,1.20008837890625,-0.42437800765037537,-0.11908300220966339,0.10746700316667557
1750743732309692400,1.2096923828125,-0.21654699742794037,-0.3810279965400696,-0.1880349963903427
1750743732319296000,1.2192958984375,0.09455399960279465,-0.5800049901008606,-0.4030520021915436
1750743732328900000,1.228900146484375,0.165242999792099,-0.3135809898376465,-0.4395790100097656
1750743732338504200,1.238504150390625,0.3021810054779053,-0.03555599972605705,-0.5119159817695618
1750743732348107800,1.248107666015625,0.8027219772338867,0.06034800037741661,-0.5545240044593811
1750743732357712100,1.257712158203125,1.2544549703598022,-0.04119100049138069,-0.5286070108413696
1750743732367315700,1.267315673828125,1.4026880264282227,0.015358000062406063,-0.47920700907707214
1750743732376919800,1.276919921875,1.2578630447387695,0.053109001368284225,-0.4192480146884918
1750743732386523600,1.286523681640625,0.8987330198287964,0.07411199808120728,-0.29192298650741577
1750743732396127500,1.29612744140625,0.3387399911880493,0.09290800243616104,-0.16640399396419525
1750743732405731600,1.305731689453125,-0.27852800488471985,0.06512399762868881,-0.05993499979376793
1750743732415335400,1.31533544921875,-0.7035920023918152,0.030448999255895615,-0.08620099723339081
1750743732424939500,1.324939453125,-0.8207209706306458,-0.03276799991726875,-0.14160999655723572
1750743732434543000,1.334543212890625,-0.6830980181694031,-0.051902998238801956,-0.10601499676704407
1750743732444147200,1.344147216796875,-0.4314030110836029,-0.06499599665403366,-0.12248700112104416
1750743732453751000,1.3537509765625,-0.2031790018081665,-0.08871400356292725,-0.14525499939918518
1750743732463355100,1.363355224609375,-0.01066100038588047,-0.08590800315141678,-0.16688700020313263
1750743732472959000,1.372958984375,0.08242800086736679,-0.05230800062417984,-0.2111780047416687
1750743732482563000,1.38256298828125,0.11877799779176712,-0.015034999698400497,-0.23562300205230713
1750743732492167000,1.3921669921875,0.11136800050735474,0.03351400047540665,-0.19240200519561768
1750743732501770800,1.401770751953125,0.09378399699926376,0.05738700181245804,-0.16918300092220306
1750743732511374800,1.411374755859375,0.05991100147366524,0.032249998301267624,-0.08725900202989578
1750743732520978400,1.420978515625,0.0589429996907711,0.010123999789357185,0.025508999824523926
1750743732530582500,1.43058251953125,0.2693589925765991,0.03817300125956535,0.1590149998664856
1750743732540186400,1.440186279296875,0.4246779978275299,0.03145499899983406,0.2999019920825958
1750743732549790500,1.44979052734375,0.3962720036506653,-0.0221560001373291,0.40659499168395996
1750743732559394600,1.45939453125,0.2625359892845154,-0.07010000199079514,0.396465003490448
1750743732568998100,1.468998046875,0.15498700737953186,-0.08056599646806717,0.3311749994754791
1750743732578602200,1.478602294921875,0.011814000084996223,-0.056745000183582306,0.2316579967737198
1750743732588206000,1.4882060546875,-0.16414199769496918,-0.049685999751091,0.13183100521564484
1750743732597810200,1.49781005859375,-0.1573520004749298,-0.026691999286413193,0.049150001257658005
1750743732607414000,1.5074140625,-0.06881500035524368,-0.05261300131678581,0.014181000180542469
1750743732617017900,1.517017822265625,-0.08478599786758423,-0.09008699655532837,-0.06772899627685547
1750743732626622000,1.5266220703125,-0.12033999711275101,-0.0886790007352829,0.0037320000119507313
1750743732636225500,1.5362255859375,-0.18399600684642792,-0.07174699753522873,0.057948999106884
1750743732645829600,1.54582958984375,-0.17419099807739258,-0.07263500243425369,0.06355799734592438
1750743732655433700,1.555433837890625,-0.11487500369548798,-0.06487099826335907,0.05613299831748009
1750743732665037600,1.56503759765625,-0.09208299964666367,-0.05120300129055977,0.09570900350809097
1750743732674641700,1.5746416015625,-0.11169499903917313,-0.017193999141454697,0.16698400676250458
1750743732684245200,1.584245361328125,-0.19102199375629425,-0.0528389997780323,0.14211800694465637
1750743732693849300,1.593849365234375,-0.16173699498176575,-0.08821900188922882,0.13193200528621674
1750743732703453200,1.603453125,0.024508999660611153,-0.08882199972867966,0.06595399975776672
1750743732713057300,1.613057373046875,0.194691002368927,-0.03132199868559837,0.004271999932825565
1750743732722661000,1.6226611328125,0.341048002243042,0.018875999376177788,-0.02337699942290783
1750743732732265000,1.632264892578125,0.38235101103782654,0.011121000163257122,0.019701000303030014
1750743732741869000,1.641869140625,0.34390801191329956,-0.006670000031590462,0.03428100049495697
1750743732751473000,1.651472900390625,0.1976889967918396,-0.03575899824500084,0.052921999245882034
1750743732761076700,1.66107666015625,-0.004751000087708235,-0.01851700060069561,0.03800399973988533
1750743732770680800,1.670680908203125,-0.21811099350452423,0.007120999973267317,-0.02449999935925007
1750743732780284700,1.68028466796875,-0.3061099946498871,0.00020599999697878957,-0.07360100001096725
1750743732789888500,1.689888427734375,-0.26823800802230835,0.004681999795138836,-0.07427199929952621
1750743732799492600,1.69949267578125,-0.09548100084066391,-0.017470000311732292,-0.03136900067329407
1750743732809096700,1.7090966796875,0.09794099628925323,-0.005241999868303537,-0.021625999361276627
1750743732818700300,1.7187001953125,0.17991399765014648,-0.029051000252366066,0.010924999602138996
1750743732828304400,1.728304443359375,0.188292995095253,-0.018024999648332596,0.017048999667167664
1750743732837908200,1.737908203125,0.16029900312423706,0.02560500055551529,-0.040036000311374664
1750743732847512000,1.747511962890625,0.1353510022163391,-0.0013089999556541443,-0.054958999156951904
1750743732857116000,1.757115966796875,-0.02652899920940399,-0.01489999983459711,0.009996999986469746
1750743732866720000,1.766719970703125,-0.17932699620723724,-0.017472999170422554,0.03382100164890289
1750743732876324000,1.776323974609375,-0.241690993309021,0.05099000036716461,0.01080199982970953
1750743732885927700,1.785927734375,-0.21626800298690796,0.05145899951457977,-0.03153900057077408
1750743732895531800,1.79553173828125,-0.15311400592327118,-0.02668900042772293,-0.04124300181865692
1750743732905135900,1.805135986328125,-0.15659399330615997,-0.07260999828577042,-0.06483600288629532
1750743732914739700,1.81473974609375,-0.05270399898290634,-0.08981099724769592,0.034237999469041824
1750743732924343800,1.82434375,0.11188399791717529,-0.04214100167155266,0.14905400574207306
1750743732933947400,1.833947509765625,0.3125480115413666,-0.05756799876689911,0.1213039979338646
1750743732943551500,1.843551513671875,0.4085719883441925,-0.0771080031991005,0.04929199814796448
1750743732953155600,1.853155517578125,0.360493004322052,-0.06638800352811813,-0.06489100307226181
1750743732962759400,1.862759521484375,0.1714009940624237,-0.016519000753760338,-0.1429460048675537
1750743732972363300,1.87236328125,0.0295609999448061,0.014127999544143677,-0.16899900138378143
1750743732981967000,1.881967041015625,-0.06176900118589401,0.045024000108242035,-0.1867939978837967
1750743732991571200,1.8915712890625,-0.16636399924755096,0.03573799878358841,-0.1879590004682541
1750743733001175000,1.901175048828125,-0.19657599925994873,0.02618500031530857,-0.16703400015830994
1750743733010779000,1.91077880859375,-0.18722300231456757,0.011446000076830387,-0.159620001912117
1750743733020383000,1.920383056640625,-0.16249600052833557,-0.0008820000221021473,-0.1583240032196045
1750743733029986800,1.92998681640625,-0.07930199801921844,-0.008496999740600586,-0.10536599904298782
1750743733039591000,1.9395908203125,-0.002374999923631549,0.022179000079631805,-0.028845999389886856
1750743733049194800,1.94919482421875,0.09461300075054169,0.019392000511288643,0.0010369999799877405
1750743733058798600,1.958798583984375,0.14617300033569336,0.057142000645399094,-0.0016710000345483422
1750743733068402700,1.968402587890625,0.11171100288629532,0.034689001739025116,0.015915000811219215
1750743733078006500,1.978006591796875,0.02855299971997738,0.021455999463796616,0.024188999086618423
1750743733087610400,1.9876103515625,-0.05603199824690819,0.004141999874264002,0.034655001014471054
1750743733097214200,1.997214111328125,-0.15623800456523895,-0.005615000147372484,0.06552699953317642
1750743733106818300,2.006818359375,-0.21805399656295776,-0.013110999949276447,0.05563100054860115
1750743733116422100,2.016422119140625,-0.18761399388313293,-0.030556000769138336,0.0236820001155138
1750743733126026200,2.026026123046875,-0.05424800142645836,-0.03658200055360794,0.00687299994751811
1750743733135630000,2.035630126953125,0.026948999613523483,-0.022622000426054,0.03372899815440178
1750743733145234000,2.04523388671875,0.12147799879312515,-0.03078100085258484,0.032242998480796814
1750743733154837800,2.054837646484375,0.17064499855041504,-0.01513999979943037,-0.0076859998516738415
1750743733164441900,2.06444189453125,0.16992299258708954,-0.004960999824106693,-0.014043999835848808
1750743733174046000,2.0740458984375,0.10796999931335449,-0.027713000774383545,0.014399000443518162
1750743733183649500,2.0836494140625,-0.02109299972653389,-0.004280999768525362,0.03707500174641609
1750743733193253600,2.093253662109375,-0.07972600311040878,-0.006548000033944845,0.04244399815797806
1750743733202857700,2.102857666015625,-0.08809400349855423,0.012725000269711018,0.07023900002241135
1750743733212461600,2.112461669921875,-0.03687300160527229,0.0037609999999403954,0.0532119981944561
1750743733222065400,2.1220654296875,0.013154000043869019,-0.01743599958717823,0.03317800164222717
1750743733231669200,2.131669189453125,0.0011119999689981341,-0.017301000654697418,-0.038152001798152924
1750743733241273300,2.1412734375,0.04214800149202347,0.008510000072419643,-0.05766899883747101
1750743733250877400,2.15087744140625,0.10200800001621246,0.03489299863576889,-0.0652649998664856
1750743733260481300,2.160481201171875,0.1538120061159134,0.0339680016040802,-0.0073739998042583466
1750743733270085000,2.170085205078125,0.09449999779462814,0.056818000972270966,0.03756599873304367
1750743733279689000,2.17968896484375,-0.043664999306201935,0.053633999079465866,0.0616380013525486
1750743733289293000,2.18929296875,-0.12848299741744995,0.00380500010214746,0.08106400072574615
1750743733298897000,2.19889697265625,-0.2256460040807724,-0.04772299900650978,0.05370499938726425
1750743733308500700,2.208500732421875,-0.20687200129032135,-0.07284200191497803,0.03837699815630913
1750743733318104800,2.218104736328125,-0.028311999514698982,-0.06871700286865234,0.015573999844491482
1750743733327708700,2.227708740234375,0.1506499946117401,-0.022721000015735626,-0.07432500272989273
1750743733337312800,2.237312744140625,0.2056410014629364,0.017602000385522842,-0.1053370013833046
1750743733346916600,2.24691650390625,0.15929199755191803,0.03353799879550934,-0.08755999803543091
1750743733356520700,2.256520751953125,0.09100300073623657,0.06029900163412094,-0.045754000544548035
1750743733366124500,2.26612451171875,-0.008677000179886818,0.06894099712371826,-0.0038900000508874655
1750743733375728400,2.275728271484375,-0.03412200137972832,0.03687699884176254,-0.014272999949753284
1750743733385332200,2.285332275390625,-0.14546099305152893,0.004317999817430973,-0.014154000207781792
1750743733394936300,2.294936279296875,-0.21880799531936646,-0.051587000489234924,-0.019773000851273537
1750743733404540200,2.3045400390625,-0.21137000620365143,-0.06811399757862091,-0.01148299966007471
1750743733414144000,2.31414404296875,-0.09793200343847275,-0.019401000812649727,0.010030999779701233
1750743733423748000,2.323748046875,0.042507000267505646,0.01306500006467104,0.05674700066447258
1750743733433352000,2.33335205078125,0.1526930034160614,0.009821999818086624,0.07308000326156616
1750743733442955800,2.342955810546875,0.08639200031757355,-0.013787999749183655,0.07599599659442902
1750743733452560000,2.352559814453125,-0.00977999996393919,-0.029980000108480453,0.08146499842405319
1750743733462163700,2.362163818359375,-0.05857900157570839,0.005696000065654516,0.04656499996781349
1750743733471767800,2.371767822265625,-0.11142999678850174,0.01626800000667572,-0.039666999131441116
1750743733481371600,2.38137158203125,-0.07841300219297409,0.008322999812662601,-0.08900199830532074
1750743733490975500,2.3909755859375,-0.002220999915152788,-0.019571000710129738,-0.06472700089216232
1750743733500579600,2.40057958984375,-0.010498999617993832,-0.03439899906516075,-0.005371999926865101
1750743733510183400,2.410183349609375,0.002471999963745475,0.05483299866318703,0.04156700149178505
1750743733519787500,2.41978759765625,0.05395999923348427,0.07425999641418457,0.05660700052976608
1750743733529391000,2.42939111328125,0.10899700224399567,0.047940999269485474,0.028457000851631165
1750743733538995200,2.4389951171875,0.0913269966840744,-0.010347000323235989,0.001918999943882227
1750743733548599300,2.448599365234375,-0.021880999207496643,-0.05701800063252449,-0.03418299928307533
1750743733558203100,2.458203125,-0.13837400078773499,-0.05119699984788895,-0.04050400108098984
1750743733567807000,2.467806884765625,-0.10636799782514572,-0.0477989986538887,-0.10645800083875656
1750743733577410800,2.477410888671875,-0.0067540002055466175,-0.04121899977326393,-0.10218500345945358
1750743733587015200,2.48701513671875,0.018595000728964806,0.006037000101059675,-0.04208799824118614
1750743733596618800,2.49661865234375,0.04438399896025658,0.02131900005042553,0.02599399909377098
1750743733606222800,2.506222900390625,0.03913399949669838,0.017250999808311462,0.04194999858736992
1750743733615826400,2.515826416015625,-0.0006360000115819275,0.05389200150966644,0.01801300048828125
1750743733625430500,2.525430419921875,-0.06105700135231018,0.0387520007789135,0.008169000037014484
1750743733635034600,2.53503466796875,-0.10971699655056,0.004831000231206417,0.010471999645233154
1750743733644638500,2.544638427734375,-0.11076799780130386,0.00008800000068731606,0.03790400177240372
1750743733654242600,2.55424267578125,-0.06559199839830399,-0.02333799935877323,0.029402000829577446
1750743733663846100,2.56384619140625,-0.04776100069284439,-0.028293000534176826,0.03876600041985512
1750743733673450200,2.5734501953125,0.026700999587774277,-0.02700600028038025,0.02040800079703331
1750743733683054300,2.583054443359375,0.07909999787807465,-0.012804999947547913,-0.010320999659597874
1750743733692658200,2.592658203125,0.07145299762487411,-0.01740100048482418,-0.030292000621557236
1750743733702262000,2.602261962890625,0.06294000148773193,0.03044999949634075,-0.037321001291275024
1750743733711865900,2.611865966796875,0.003495000069960952,0.039361000061035156,-0.030424000695347786
1750743733721470000,2.621469970703125,0.013028999790549278,0.013104000128805637,-0.0038389998953789473
1750743733731073800,2.63107373046875,-0.007083000149577856,-0.03793499991297722,0.018983999267220497
1750743733740677600,2.640677734375,-0.08164100348949432,-0.025402000173926353,0.010959000326693058
1750743733750281700,2.65028173828125,-0.10742499679327011,-0.019193999469280243,0.02454500086605549
1750743733759885600,2.659885498046875,-0.1119220033288002,-0.038892000913619995,0.03960699960589409
1750743733769489700,2.66948974609375,-0.05544000118970871,-0.03481400012969971,0.029227999970316887
1750743733779093500,2.679093505859375,0.016238000243902206,-0.03756599873304367,-0.00595800019800663
1750743733788697600,2.688697509765625,0.08194500207901001,-0.026316000148653984,0.022244999185204506
1750743733798301400,2.698301513671875,0.07654300332069397,-0.013917000032961369,0.004687000066041946
1750743733807905300,2.7079052734375,0.08666300028562546,0.013267000205814838,-0.013801000081002712
1750743733817509400,2.71750927734375,0.10481899976730347,0.053335998207330704,-0.010448000393807888
1750743733827113200,2.72711328125,0.018660999834537506,0.03411699831485748,-0.005768999923020601
1750743733836717300,2.73671728515625,-0.04550600051879883,0.00215300009585917,0.013143000192940235
1750743733846321200,2.746321044921875,-0.08823899924755096,-0.03198099881410599,-0.002681999932974577
1750743733855925000,2.755925048828125,-0.10439299792051315,-0.011443999595940113,-0.03418499976396561
1750743733865528800,2.76552880859375,-0.10401900112628937,-0.019220000132918358,-0.043602000921964645
1750743733875133000,2.7751328125,-0.06908100098371506,-0.0318170003592968,-0.0408019982278347
1750743733884736800,2.78473681640625,-0.008545000106096268,-0.02879899926483631,-0.02287600003182888
1750743733894340600,2.794340576171875,0.13210900127887726,0.009999999776482582,-0.042851001024246216
1750743733903944700,2.80394482421875,0.18395599722862244,0.018048999831080437,-0.030038999393582344
1750743733913548800,2.813548828125,0.17890000343322754,0.010728999972343445,0.003249000059440732
1750743733923152600,2.823152587890625,0.1284569948911667,-0.0231539998203516,0.039055000990629196
1750743733932756700,2.8327568359375,0.005909999832510948,-0.02960599958896637,0.01841600053012371
1750743733942360300,2.8423603515625,-0.05770700052380562,-0.005096000153571367,0.024521000683307648
1750743733951964400,2.85196435546875,-0.04412800073623657,0.018411999568343163,-0.011823000386357307
1750743733961568500,2.861568603515625,-0.028155000880360603,0.04908699914813042,0.015644999220967293
1750743733971172400,2.87117236328125,-0.05284599959850311,0.01982400007545948,0.03273100033402443
1750743733980776200,2.880776123046875,-0.08220899850130081,0.009545999579131603,-0.0036559998989105225
1750743733990380000,2.890380126953125,-0.11824999749660492,0.017565999180078506,-0.017566999420523643
1750743733999984000,2.899984130859375,-0.09728199988603592,-0.002386000007390976,0.017173999920487404
1750743734009588000,2.909587890625,-0.040070001035928726,-0.00674699991941452,0.0046709999442100525
1750743734019192000,2.919192138671875,0.024599000811576843,-0.05050100013613701,0.014003000222146511
1750743734028796000,2.9287958984375,0.019896000623703003,-0.056040000170469284,0.00457199988886714
1750743734038399700,2.938399658203125,0.023180000483989716,-0.007907000370323658,0.00019299999985378236
1750743734048003800,2.94800390625,0.07451199740171432,0.00406600022688508,-0.028839999809861183
1750743734057607700,2.957607666015625,0.14673300087451935,0.01719599962234497,-0.007699999958276749
1750743734067211800,2.967211669921875,0.12101999670267105,-0.01559399999678135,0.0002809999859891832
1750743734076815600,2.976815673828125,-0.005963999778032303,-0.015437000431120396,-0.013864999637007713
1750743734086419500,2.98641943359375,-0.05186200141906738,0.017066000029444695,-0.06824500113725662
1750743734096023600,2.9960234375,-0.06611199676990509,0.036695998162031174,-0.06478899717330933
1750743734105627400,3.00562744140625,-0.028903000056743622,0.015325999818742275,-0.026878999546170235
1750743734115231200,3.015231201171875,0.03355100005865097,0.01254200004041195,0.022033000364899635
1750743734124835600,3.024835693359375,0.04065300151705742,0.0006009999779053032,0.07253099977970123
1750743734134439200,3.034439208984375,-0.011409999802708626,0.011377999559044838,0.08630300313234329
1750743734144043300,3.044043212890625,-0.048601001501083374,-0.002592999953776598,0.02440200001001358
1750743734153647000,3.053647216796875,-0.07814899832010269,0.009057000279426575,-0.033656999468803406
1750743734163251000,3.0632509765625,-0.06464000046253204,0.023180000483989716,-0.021957000717520714
1750743734172855300,3.072855224609375,-0.023778999224305153,-0.0033770001027733088,-0.02686299942433834
1750743734182459000,3.082458984375,0.037578001618385315,-0.011361000128090382,-0.00621799984946847
1750743734192063000,3.09206298828125,0.001825000043027103,0.009851000271737576,0.041802000254392624
1750743734201666600,3.10166650390625,-0.04004799947142601,0.01723100058734417,0.03427699953317642
1750743734211271000,3.11127099609375,0.018439000472426414,0.04892899841070175,0.008829999715089798
1750743734220874500,3.12087451171875,0.07022199779748917,-0.002167999977245927,-0.0261049997061491
1750743734230478600,3.130478515625,-0.030686000362038612,-0.025465000420808792,-0.041228000074625015
1750743734240082700,3.140082763671875,-0.08770500123500824,-0.03097200021147728,-0.02688699960708618
1750743734249686300,3.149686279296875,-0.010817999951541424,-0.0002629999944474548,-0.024670999497175217
1750743734259290400,3.159290283203125,0.052404001355171204,-0.02407900057733059,-0.02068299986422062
1750743734268894500,3.16889453125,0.0767970010638237,-0.03982499986886978,-0.0033549999352544546
1750743734278498300,3.178498291015625,0.07968399673700333,-0.03650899976491928,-0.003700000001117587
1750743734288102400,3.188102294921875,0.031039999797940254,-0.025609999895095825,-0.003924000076949596
1750743734297706000,3.1977060546875,-0.032923001796007156,-0.012477000243961811,0.0231890007853508
1750743734307310000,3.20731005859375,0.035406000912189484,0.04743000119924545,0.053082000464200974
1750743734316914000,3.216913818359375,0.07868000119924545,0.04704400151968002,0.035349998623132706
1750743734326518000,3.22651806640625,0.04696499928832054,-0.028584999963641167,0.02390100061893463
1750743734336121900,3.236121826171875,-0.06220899894833565,-0.044613998383283615,-0.00406099995598197
1750743734345726000,3.245725830078125,-0.09969700127840042,0.036058999598026276,-0.0742340013384819
1750743734355329800,3.255329833984375,-0.0723470002412796,0.078125,-0.07875700294971466
1750743734364933600,3.26493359375,-0.04389899969100952,0.021886000409722328,-0.05520100146532059
1750743734374537700,3.274537841796875,-0.04329900071024895,-0.02218399941921234,-0.05242399871349335
1750743734384141300,3.284141357421875,-0.08588600158691406,-0.03024899959564209,-0.001993000041693449
1750743734393745400,3.293745361328125,-0.09902399778366089,-0.013291999697685242,0.03633600100874901
1750743734403349200,3.303349365234375,-0.07406400144100189,0.02315099909901619,0.05877399817109108
1750743734412953300,3.312953369140625,0.0354899987578392,0.0025430000387132168,0.034258000552654266
1750743734422557200,3.32255712890625,0.11901599913835526,-0.019224999472498894,0.052747998386621475
1750743734432161300,3.332161376953125,0.07821100205183029,-0.041255999356508255,0.022317999973893166
1750743734441765000,3.34176513671875,0.03433699905872345,-0.018372999504208565,0.026316000148653984
1750743734451369000,3.351368896484375,0.04396999999880791,0.02702300064265728,0.014402000233530998
1750743734460973000,3.36097314453125,0.09634000062942505,0.022709999233484268,0.026333000510931015
1750743734470577000,3.370576904296875,0.11237800121307373,-0.011985000222921371,0.014971000142395496
1750743734480181000,3.380180908203125,0.014812000095844269,-0.017839999869465828,-0.00037299998803064227
1750743734489784800,3.389784912109375,-0.1618950068950653,-0.02522299997508526,-0.019525999203324318
1750743734499388700,3.399388671875,-0.17843900620937347,0.054701998829841614,-0.034595001488924026
1750743734508992800,3.40899267578125,0.08416999876499176,0.09267500042915344,-0.08029100298881531
1750743734518596600,3.4185966796875,0.2744329869747162,-0.030148999765515327,-0.059877000749111176
1750743734528200400,3.428200439453125,0.05304599925875664,-0.15571899712085724,-0.011396000161767006
1750743734537804500,3.437804443359375,-0.27870801091194153,-0.07554099708795547,0.011641999706625938
1750743734547408400,3.447408447265625,-0.37344101071357727,0.06583999842405319,-0.02833699993789196
1750743734557012500,3.457012451171875,-0.15951600670814514,0.09683600068092346,-0.011006000451743603
1750743734566616300,3.4666162109375,0.17293000221252441,0.0034229999873787165,0.010371999815106392
1750743734576220400,3.476220458984375,0.24374699592590332,-0.04884900152683258,0.04836700111627579
1750743734585824000,3.485823974609375,0.04545700177550316,-0.043118998408317566,0.03611600026488304
1750743734595428000,3.495427978515625,-0.07665800303220749,0.03174800053238869,-0.0022950000129640102
1750743734605032000,3.505031982421875,-0.031192999333143234,0.046845998615026474,-0.03387400135397911
1750743734614636000,3.514635986328125,0.06973200291395187,0.03426999971270561,-0.018254999071359634
1750743734624239900,3.524239990234375,0.09513100236654282,-0.009580000303685665,-0.005601999815553427
1750743734633843700,3.53384375,0.008210999891161919,-0.05385199934244156,0.026265999302268028
1750743734643447800,3.54344775390625,-0.17638899385929108,-0.04327400028705597,0.028464000672101974
1750743734653051600,3.5530517578125,-0.24623599648475647,0.018559999763965607,0.019867999479174614
1750743734662655700,3.56265576171875,-0.06701599806547165,0.022203000262379646,0.016901999711990356
1750743734672259600,3.572259521484375,0.1362989991903305,-0.0021009999327361584,0.033757999539375305
1750743734681863400,3.581863525390625,0.15806500613689423,-0.07804600149393082,0.04814400151371956
1750743734691467500,3.591467529296875,0.04572499915957451,-0.05513099953532219,0.04317000135779381
1750743734701071400,3.6010712890625,-0.017954999580979347,0.012645999900996685,-0.01362099964171648
1750743734710675500,3.610675537109375,0.022205999121069908,0.0765480026602745,-0.06532199680805206
1750743734720279300,3.620279296875,0.07048700004816055,0.03525200113654137,-0.05639500170946121
1750743734729883100,3.629883056640625,0.0410659983754158,-0.02573700062930584,-0.04865900054574013
1750743734739487200,3.6394873046875,-0.1035899966955185,-0.030534999445080757,0.0067819999530911446
1750743734749091000,3.649091064453125,-0.19332300126552582,0.015817999839782715,0.0036410000175237656
1750743734758695200,3.658695068359375,-0.1638299971818924,0.024730000644922256,-0.008670000359416008
1750743734768299000,3.668299072265625,-0.02434300072491169,0.021273000165820122,-0.01806199923157692
1750743734777902800,3.67790283203125,0.13142700493335724,0.010770999826490879,0.02410000003874302
1750743734787507000,3.6875068359375,0.12281700223684311,-0.05451200157403946,0.038290999829769135
1750743734797110800,3.69711083984375,-0.012941000051796436,-0.06125300005078316,0.03993900120258331
1750743734806715000,3.70671484375,-0.06708800047636032,0.0018179999897256494,-0.038043998181819916
1750743734816318700,3.716318603515625,-0.004304999951273203,0.015317999757826328,-0.04998600110411644
1750743734825922600,3.725922607421875,0.0664450004696846,-0.00432599987834692,-0.019538000226020813
1750743734835526700,3.735526611328125,0.010061999782919884,-0.04039999842643738,0.03132199868559837
1750743734845130500,3.745130615234375,-0.035374999046325684,-0.019003000110387802,0.059783000499010086
1750743734854734600,3.754734619140625,0.00786999985575676,0.007029999978840351,0.033803001046180725
1750743734864338400,3.76433837890625,-0.006554000079631805,0.002322999993339181,0.001630999962799251
1750743734873942300,3.7739423828125,-0.020941000431776047,-0.014406999573111534,-0.008279000408947468
1750743734883546400,3.78354638671875,-0.004792999941855669,-0.03967199847102165,-0.010021000169217587
1750743734893150200,3.793150146484375,0.011220999993383884,-0.0143630001693964,-0.06159700080752373
1750743734902754300,3.80275439453125,0.0042929998598992825,0.021159999072551727,-0.032976001501083374
1750743734912358100,3.812358154296875,-0.01693500019609928,0.001471000025048852,-0.003326999954879284
1750743734921962000,3.8219619140625,-0.03508999943733215,0.030872000381350517,0.01107800006866455
1750743734931566000,3.831566162109375,-0.021942000836133957,0.03840100020170212,0.005853999871760607
1750743734941170000,3.841169921875,-0.026342999190092087,0.01618799939751625,0.0037070000544190407
1750743734950773800,3.850773681640625,-0.014440000057220459,-0.017193999141454697,0.0069969999603927135
1750743734960377900,3.8603779296875,-0.03084300085902214,-0.015422999858856201,0.004275999963283539
1750743734969981700,3.869981689453125,-0.052028000354766846,-0.0016830000095069408,-0.014751999638974667
1750743734979585500,3.87958544921875,-0.021400000900030136,-0.01522000040858984,0.02213600091636181
1750743734989189600,3.889189697265625,0.07069099694490433,-0.010584999807178974,-0.01782199926674366
1750743734998793500,3.89879345703125,0.08473700284957886,-0.06811899691820145,-0.0026259999722242355
1750743735008397300,3.908397216796875,0.052046999335289,-0.03663700073957443,-0.03440999984741211
1750743735018001400,3.91800146484375,0.013264999724924564,-0.021435000002384186,-0.03617300093173981
1750743735027605200,3.927605224609375,0.03205300122499466,-0.001673000049777329,0.00572599982842803
1750743735037209300,3.937209228515625,0.01748800091445446,-0.008581000380218029,0.03616800159215927
1750743735046813200,3.946813232421875,-0.01539199985563755,-0.0001849999971454963,0.04236700013279915
1750743735056417000,3.9564169921875,-0.03992599993944168,0.030161000788211823,0.02824000082910061
1750743735066021000,3.966021240234375,-0.07878799736499786,0.003010000102221966,0.0009539999882690609
1750743735075625000,3.975625,-0.08827999979257584,0.037053000181913376,-0.009829999879002571
1750743735085229000,3.98522900390625,-0.09823700040578842,0.016829000785946846,-0.001858999952673912
1750743735094833000,3.9948330078125,-0.07097800076007843,0.005716000217944384,-0.03747500106692314
1750743735104436700,4.004436767578125,-0.01370800007134676,0.00611699977889657,-0.051210999488830566
1750743735114041000,4.014041015625,-0.012160000391304493,-0.021104000508785248,-0.02507700026035309
1750743735123644700,4.023644775390625,0.003478999948129058,-0.02159699983894825,0.02362300083041191
1750743735133248800,4.033248779296875,0.04548000171780586,0.0018149999668821692,0.02938699908554554
1750743735142852600,4.0428525390625,0.11960600316524506,-0.02501099929213524,0.024080999195575714
1750743735152456400,4.05245654296875,0.09573999792337418,-0.028223000466823578,0.041145000606775284
1750743735162060500,4.062060546875,0.011176999658346176,-0.03653600066900253,0.0432559996843338
1750743735171664400,4.071664306640625,-0.057360999286174774,-0.0045889997854828835,0.00393400015309453
1750743735181268500,4.0812685546875,-0.06784100085496902,0.016764000058174133,-0.008174999617040157
1750743735190872300,4.090872314453125,-0.06703300029039383,-0.006202999968081713,0.005171000026166439
1750743735200476200,4.10047607421875,-0.03555800020694733,0.007540999911725521,0.009197999723255634
1750743735210080000,4.110080078125,-0.021378999575972557,-0.02566399984061718,0.008786999620497227
1750743735219684000,4.11968408203125,-0.030473999679088593,0.01182899996638298,-0.009469999931752682
1750743735229288000,4.129287841796875,0.026792999356985092,0.005009000189602375,-0.00101500004529953
1750743735238892000,4.13889208984375,0.06604400277137756,-0.009212999604642391,-0.014325999654829502
1750743735248496000,4.14849609375,0.08354400098323822,-0.023079000413417816,-0.02743699960410595
1750743735258099700,4.158099609375,0.039716001600027084,-0.01700199954211712,-0.02881300076842308
1750743735267703800,4.167703857421875,-0.017315000295639038,0.0037980000488460064,-0.00496299983933568
1750743735277308000,4.177307861328125,-0.030796999111771584,0.002259999979287386,0.004366000182926655
1750743735286911700,4.186911865234375,-0.05121299996972084,0.002710999920964241,-0.013791999779641628
1750743735296515800,4.196515869140625,-0.059891000390052795,0.0059739998541772366,-0.02447200007736683
1750743735306119400,4.206119384765625,-0.035489000380039215,-0.009145000018179417,-0.02492400072515011
1750743735315723500,4.2157236328125,-0.03731999918818474,0.0018700000364333391,-0.021748999133706093
1750743735325327400,4.225327392578125,-0.04121299833059311,0.021894000470638275,-0.01819399930536747
1750743735334931500,4.234931396484375,0.00671500014141202,0.0050929998978972435,-0.014329000376164913
1750743735344535300,4.244535400390625,0.08886999636888504,-0.004023999907076359,0.0026279999874532223
1750743735354139100,4.25413916015625,0.029952000826597214,-0.03748299926519394,0.06447000056505203
1750743735363743200,4.2637431640625,-0.0773250013589859,-0.012051000259816647,0.0815339982509613
1750743735373347000,4.27334716796875,-0.09765800088644028,-0.009445000439882278,0.05642399936914444
1750743735382951200,4.282951171875,0.005235000047832727,0.01219400018453598,0.010236999951303005
1750743735392555000,4.292554931640625,0.04504299908876419,0.0017930000321939588,-0.007903000339865685
1750743735402158800,4.302158935546875,0.05123699828982353,-0.003640000009909272,-0.01105200033634901
1750743735411763000,4.311762939453125,0.017350999638438225,0.004170000087469816,-0.0016499999910593033
1750743735421367000,4.321366943359375,-0.0036359999794512987,0.01279900036752224,-0.002997000003233552
1750743735430971000,4.330970947265625,0.006273000035434961,0.00508200004696846,-0.024992000311613083
1750743735440575000,4.340574951171875,-0.003558000084012747,-0.008830999955534935,-0.002964999992400408
1750743735450178600,4.350178466796875,-0.004075999837368727,-0.02948799915611744,-0.005621000193059444
1750743735459782700,4.35978271484375,0.007668999955058098,-0.005148999858647585,-0.0006270000012591481
1750743735469386500,4.369386474609375,-0.011447999626398087,-0.017199000343680382,0.00585799990221858
1750743735478990600,4.378990478515625,-0.056063998490571976,0.010010000318288803,-0.003911000210791826
1750743735488594700,4.3885947265625,-0.031564000993967056,0.0018889999482780695,-0.041064001619815826
1750743735498198300,4.3981982421875,0.006833000108599663,0.020898999646306038,-0.0022960000205785036
1750743735507802400,4.40780224609375,-0.0007779999868944287,-0.0023070001043379307,-0.00018000000272877514
1750743735517406200,4.41740625,-0.015610000118613243,-0.027828000485897064,0.00019799999427050352
1750743735527010300,4.42701025390625,-0.02687700092792511,0.023649999871850014,-0.020241999998688698
1750743735536614400,4.436614501953125,-0.023749999701976776,0.017621999606490135,-0.021385999396443367
1750743735546218000,4.446218017578125,-0.021770000457763672,-0.005584999918937683,-0.020517000928521156
1750743735555822300,4.455822265625,-0.0036619999445974827,-0.025327999144792557,0.012683000415563583
1750743735565426000,4.465426025390625,0.012276999652385712,-0.012025999836623669,0.07567699998617172
1750743735575030000,4.475030029296875,0.004517000168561935,0.005617999937385321,0.08231599628925323
1750743735584633900,4.4846337890625,-0.0032319999299943447,-0.010243000462651253,0.051791001111269
1750743735594238000,4.494238037109375,-0.012676999904215336,0.006258000154048204,0.01680699922144413
1750743735603841800,4.503841796875,-0.005543000064790249,0.008762000128626823,-0.02263299934566021
1750743735613445600,4.513445556640625,-0.017595000565052032,-0.012590999715030193,-0.046250998973846436
1750743735623049700,4.5230498046875,-0.04416700080037117,-0.02885800041258335,-0.07334200292825699
1750743735632653600,4.532653564453125,-0.04185299947857857,-0.023825999349355698,-0.07813700288534164
1750743735642257700,4.542257568359375,-0.013601000420749187,-0.015758000314235687,-0.032597001641988754
1750743735651861500,4.551861572265625,0.0028890001121908426,0.006287999916821718,-0.016882000491023064
1750743735661465300,4.56146533203125,0.023617999628186226,0.01726200059056282,0.029798999428749084
1750743735671069200,4.571069091796875,0.003843999933451414,-0.008051999844610691,0.048962999135255814
1750743735680673300,4.58067333984375,-0.048958998173475266,-0.012687000446021557,0.06973399966955185
1750743735690277400,4.59027734375,-0.08468600362539291,-0.013055999763309956,0.03901100158691406
1750743735699881200,4.599881103515625,-0.07001499831676483,0.005578999873250723,0.0059380000457167625
1750743735709485000,4.609485107421875,0.008022000081837177,-0.002266000024974346,-0.025691000744700432
1750743735719089000,4.6190888671875,0.060210999101400375,-0.03074900060892105,-0.017045000568032265
1750743735728693000,4.62869287109375,0.06717299669981003,-0.03816999867558479,0.004528000019490719
1750743735738297000,4.638297119140625,0.006134000141173601,-0.0073979999870061874,0.020562000572681427
1750743735747900700,4.647900634765625,-0.05547099933028221,0.010617000050842762,0.015072000212967396
1750743735757505000,4.657505126953125,-0.08129499852657318,0.00011500000255182385,0.04247500002384186
1750743735767108600,4.667108642578125,-0.0834759995341301,-0.021820999681949615,0.02487099915742874
1750743735776712700,4.676712646484375,-0.09321799874305725,-0.007151000201702118,0.0017320000333711505
1750743735786316500,4.686316650390625,-0.10749100148677826,0.0023250000085681677,-0.029061000794172287
1750743735795920400,4.69592041015625,-0.07017900049686432,-0.01984499953687191,-0.010646999813616276
1750743735805524500,4.7055244140625,-0.07393600046634674,-0.0007009999826550484,-0.00304599991068244
1750743735815128300,4.71512841796875,-0.05109399929642677,0.025141000747680664,0.027248000726103783
1750743735824732400,4.724732421875,0.011845000088214874,0.025651000440120697,0.07187899947166443
1750743735834336300,4.734336181640625,0.09206099808216095,-0.016064999625086784,0.10103700309991837
1750743735843940000,4.743940185546875,0.2744460105895996,0.01070099975913763,0.058642998337745667
1750743735853544200,4.753544189453125,0.4704430103302002,0.03650299832224846,0.013508000411093235
1750743735863148000,4.76314794921875,0.7703350186347961,0.03615399822592735,0.020736999809741974
1750743735872752000,4.772752197265625,1.3886669874191284,-0.025213999673724174,0.04061499983072281
1750743735882356000,4.78235595703125,2.589308023452759,-0.08448000252246857,0.3253310024738312
1750743735891960000,4.7919599609375,5.842090129852295,-0.11509999632835388,0.4066449999809265
1750743735901564000,4.80156396484375,8.208943367004395,-0.6186339855194092,0.22470200061798096
1750743735911168000,4.81116796875,8.073216438293457,-1.036329984664917,0.03642600029706955
1750743735920771800,4.820771728515625,6.691915035247803,-1.1859279870986938,-0.15665499866008759
1750743735930375700,4.830375732421875,4.511896133422852,-1.2089519500732422,-0.3762040138244629
1750743735939979800,4.839979736328125,2.319969892501831,-1.266294002532959,-0.8815600275993347
1750743735949583400,4.849583251953125,0.18566900491714478,-1.3559759855270386,-0.9492530226707458
1750743735959187700,4.859187744140625,-0.655705988407135,-1.3411569595336914,-0.5329089760780334
1750743735968791600,4.86879150390625,-1.0961350202560425,-1.1124709844589233,-0.5341770052909851
1750743735978395400,4.8783955078125,-0.9161350131034851,-0.8813940286636353,0.34709298610687256
1750743735987999500,4.88799951171875,-1.1008930206298828,-0.7456799745559692,0.4776819944381714
1750743735997603300,4.897603271484375,-0.27587199211120605,-0.6437320113182068,0.3158490061759949
1750743736007207200,4.907207275390625,0.7462689876556396,-0.4814780056476593,-0.05521000176668167
1750743736016811300,4.916811279296875,0.26654699444770813,-0.5137730240821838,-0.46595698595046997
1750743736026415000,4.9264150390625,-1.1965579986572266,-0.6248459815979004,-0.450874000787735
1750743736036019200,4.936019287109375,-2.7206380367279053,-0.5925790071487427,-0.21411900222301483
1750743736045623000,4.945623046875,-3.98573899269104,-0.4592779874801636,-0.045976001769304276
1750743736055227000,4.955226806640625,-5.235607147216797,-0.2994779944419861,0.20893199741840363
1750743736064831000,4.9648310546875,-6.353597164154053,-0.053321998566389084,0.3567039966583252
1750743736074434800,4.974434814453125,-6.8311638832092285,0.1674650013446808,0.5347149968147278
1750743736084038700,4.98403857421875,-6.707304000854492,0.2631460130214691,0.6220960021018982
1750743736093642800,4.993642822265625,-5.840734958648682,0.6276419758796692,0.4759170114994049
1750743736103246800,5.003246826171875,-4.676749229431152,0.8087120056152344,0.36812999844551086
1750743736112850400,5.012850341796875,-3.926604986190796,0.7999730110168457,0.3906309902667999
1750743736122454500,5.02245458984375,-3.5734119415283203,0.5923699736595154,0.6397209763526917
1750743736132058400,5.032058349609375,-3.5975849628448486,0.46914100646972656,0.7787439823150635
1750743736141662500,5.041662353515625,-3.3651180267333984,0.3289090096950531,0.7481690049171448
1750743736151266600,5.0512666015625,-2.7344210147857666,0.19833900034427643,0.6445189714431763
1750743736160870100,5.0608701171875,-2.350663900375366,0.1654690057039261,0.44239699840545654
1750743736170474200,5.07047412109375,-2.4101319313049316,0.07318100333213806,0.33917099237442017
1750743736180078300,5.080078369140625,-2.6888821125030518,-0.03817300125956535,0.304408997297287
1750743736189682200,5.08968212890625,-2.9027180671691895,-0.22453300654888153,0.2951059937477112
1750743736199286000,5.0992861328125,-2.916584014892578,-0.2824600040912628,0.2569510042667389
1750743736208889900,5.108889892578125,-2.528346061706543,-0.3648979961872101,0.08049199730157852
1750743736218494200,5.118494140625,-2.1262590885162354,-0.47502401471138,0.0532200001180172
1750743736228098000,5.12809814453125,-1.3903510570526123,-0.3544690012931824,0.05042099952697754
1750743736237702000,5.137701904296875,-0.42300599813461304,-0.2407979965209961,0.1032399982213974
1750743736247305700,5.1473056640625,0.1621289998292923,-0.28547900915145874,0.09434399753808975
1750743736256909600,5.15690966796875,0.7412469983100891,-0.28628599643707275,0.07226099818944931
1750743736266513700,5.166513671875,1.2996779680252075,-0.16842100024223328,-0.09017299860715866
1750743736276117500,5.176117431640625,1.8712340593338013,-0.07899300009012222,-0.2323089987039566
1750743736285721600,5.1857216796875,2.4957339763641357,-0.08691199868917465,-0.31398099660873413
1750743736295325400,5.195325439453125,2.875967025756836,-0.21089400351047516,-0.336558997631073
1750743736304929300,5.20492919921875,2.9555160999298096,-0.37758100032806396,-0.26962000131607056
1750743736314533400,5.214533447265625,2.8992509841918945,-0.45645400881767273,-0.12116800248622894
1750743736324137200,5.22413720703125,3.204329013824463,-0.4740149974822998,0.05130600184202194
1750743736333741300,5.2337412109375,3.504776954650879,-0.542464017868042,0.12270200252532959
1750743736343345200,5.24334521484375,3.3317439556121826,-0.5465700030326843,0.12895099818706512
1750743736352949200,5.25294921875,2.9959630966186523,-0.4362019896507263,0.0965220034122467
1750743736362553300,5.26255322265625,2.543860912322998,-0.281466007232666,0.02065199986100197
1750743736372157200,5.2721572265625,2.1697230339050293,-0.09127499908208847,-0.024255000054836273
1750743736381761000,5.281760986328125,1.5702619552612305,0.010060000233352184,-0.041868001222610474
1750743736391365000,5.291365234375,1.0514990091323853,0.04090199992060661,-0.05037999898195267
1750743736400969000,5.300968994140625,0.6497139930725098,0.0682229995727539,-0.07182200253009796
1750743736410572800,5.31057275390625,0.11568800359964371,0.1471710056066513,-0.05568299815058708
1750743736420176600,5.3201767578125,-0.3547999858856201,0.21903899312019348,0.023305999115109444
1750743736429780700,5.32978076171875,-0.6572549939155579,0.30681800842285156,0.05295899882912636
1750743736439384800,5.339384765625,-0.8176029920578003,0.3417850136756897,0.09774699807167053
1750743736448988700,5.34898876953125,-0.7620090246200562,0.3256610035896301,0.13341200351715088
1750743736458592500,5.358592529296875,-0.6236720085144043,0.3150080144405365,0.18111099302768707
1750743736468196400,5.3681962890625,-0.5072699785232544,0.27020999789237976,0.16367700695991516
1750743736477800400,5.377800537109375,-0.3568350076675415,0.23747000098228455,0.13903799653053284
1750743736487404500,5.387404541015625,-0.20786499977111816,0.21125300228595734,0.07760600000619888
1750743736497008400,5.39700830078125,-0.13376300036907196,0.18771399557590485,0.035822998732328415
1750743736506612500,5.406612548828125,-0.09563100337982178,0.11553599685430527,0.021781999617815018
1750743736516216000,5.416216064453125,-0.08708100020885468,0.10462400317192078,0.006178999785333872
1750743736525820200,5.425820068359375,-0.11253999918699265,0.06577400118112564,0.030804000794887543
1750743736535424300,5.43542431640625,-0.09096799790859222,0.05466499924659729,0.017835000529885292
1750743736545028000,5.445028076171875,-0.07817000150680542,0.02218399941921234,0.02139200083911419
1750743736554632200,5.454632080078125,0.0340070016682148,0.04669500142335892,0.004459000192582607
1750743736564236000,5.464236083984375,0.12530599534511566,0.04287499934434891,0.004424999933689833
1750743736573840000,5.47383984375,0.11659300327301025,0.02139499969780445,0.01790199987590313
1750743736583443700,5.483443603515625,0.06933800131082535,-0.009322999976575375,0.06666000187397003
1750743736593047800,5.4930478515625,0.02834700047969818,0.01981399953365326,0.06699399650096893
1750743736602651600,5.502651611328125,0.0357230007648468,0.024240000173449516,0.04174000024795532
1750743736612255700,5.512255859375,-0.017826000228524208,0.031346000730991364,-0.004652000032365322
1750743736621859600,5.521859619140625,-0.044054001569747925,0.05364900082349777,-0.04159199818968773
1750743736631463400,5.53146337890625,-0.0886709988117218,0.0555730015039444,-0.03711700066924095
1750743736641067500,5.541067626953125,-0.12337200343608856,0.05213800072669983,-0.0037509999237954617
1750743736650671400,5.55067138671875,-0.16998200118541718,0.02226400002837181,0.009108000434935093
1750743736660275500,5.560275390625,-0.17163600027561188,0.01719599962234497,0.026597000658512115
1750743736669879300,5.56987939453125,-0.11246299743652344,0.04077399894595146,0.013779000379145145
1750743736679483100,5.579483154296875,-0.08544500172138214,0.018115000799298286,0.005278000142425299
1750743736689087200,5.589087158203125,-0.01956699974834919,-0.006370999850332737,0.01824299991130829
1750743736698691000,5.598691162109375,0.02622300013899803,-0.003025999991223216,0.030462000519037247
1750743736708295200,5.608295166015625,0.1396539956331253,-0.027928000316023827,0.07229100167751312
1750743736717899000,5.61789892578125,0.19736100733280182,-0.023034000769257545,0.07517100125551224
1750743736727502800,5.6275029296875,0.23659999668598175,-0.002460000105202198,0.0510529987514019
1750743736737107000,5.63710693359375,0.16787000000476837,0.01703600026667118,-0.011010999791324139
1750743736746710800,5.646710693359375,0.06142900139093399,0.05327000096440315,-0.04857899993658066
1750743736756315000,5.65631494140625,0.0066200001165270805,0.03465700149536133,-0.06352899968624115
1750743736765918700,5.665918701171875,-0.0689300000667572,0.021942000836133957,-0.06329099833965302
1750743736775522600,5.6755224609375,-0.13894599676132202,0.01040599960833788,-0.029238000512123108
1750743736785126700,5.685126708984375,-0.12072400003671646,0.020972000434994698,-0.006641000043600798
1750743736794730500,5.69473046875,-0.06550800055265427,0.00970499962568283,0.005431999918073416
1750743736804334600,5.70433447265625,0.026047000661492348,0.018341999500989914,0.008581000380218029
1750743736813938400,5.7139384765625,0.017865000292658806,0.0376489982008934,-0.015514999628067017
1750743736823542300,5.723542236328125,0.0004939999780617654,0.030003000050783157,-0.008170000277459621
1750743736833146400,5.733146484375,-0.042771998792886734,0.03840700164437294,-0.0009640000062063336
1750743736842750200,5.742750244140625,-0.057663001120090485,-0.0028929999098181725,-0.0058650001883506775
1750743736852354000,5.75235400390625,-0.07031799852848053,0.011121000163257122,0.015119999647140503
1750743736861958100,5.761958251953125,-0.11370299756526947,-0.004234000109136105,0.02100300043821335
1750743736871562200,5.771562255859375,-0.1114410012960434,0.013693000189960003,0.010855999775230885
1750743736881166000,5.781166015625,-0.007852000184357166,0.024650000035762787,0.003409000113606453
1750743736890770200,5.790770263671875,0.0462069995701313,0.011872000060975552,0.025381000712513924
1750743736900373800,5.800373779296875,0.04786999896168709,0.015413000248372555,0.03293899819254875
1750743736909977900,5.809977783203125,0.0736749991774559,0.03301199898123741,0.03191399946808815
1750743736919582000,5.81958203125,0.11609199643135071,0.029294999316334724,0.04020699858665466
1750743736929185800,5.829185791015625,0.11502300202846527,-0.02407499961555004,0.010262000374495983
1750743736938790000,5.838789794921875,-0.002518000081181526,-0.03807999938726425,-0.027475999668240547
1750743736948393700,5.848393798828125,-0.039751000702381134,-0.04216400161385536,-0.053387999534606934
1750743736957997600,5.85799755859375,-0.03913100063800812,-0.0502920001745224,-0.058750998228788376
1750743736967601400,5.867601318359375,-0.0311879999935627,-0.02751000039279461,-0.06157299876213074
1750743736977205500,5.87720556640625,-0.011106000281870365,-0.016979999840259552,-0.03680099919438362
1750743736986809600,5.8868095703125,-0.01682399958372116,0.02139499969780445,0.004819000139832497
1750743736996413200,5.8964130859375,-0.025422999635338783,-0.013690000399947166,0.014082999899983406
1750743737006017300,5.906017333984375,-0.03369000181555748,0.0009769999887794256,0.00887299980968237
1750743737015621000,5.91562109375,0.000598000013269484,0.004544000141322613,-0.012098999693989754
1750743737025225200,5.92522509765625,0.04156700149178505,0.02089099958539009,-0.03284899890422821
1750743737034829300,5.934829345703125,0.08940599858760834,0.018577000126242638,-0.025425000116229057
1750743737044433000,5.944432861328125,0.09672799706459045,0.013555999845266342,-0.0021649999544024467
1750743737054037000,5.954037109375,0.05486200004816055,0.035521000623703,0.001214000047184527
1750743737063641000,5.96364111328125,0.05840599909424782,0.007331000175327063,0.009202999994158745
1750743737073245000,5.973244873046875,0.009083000011742115,-0.013365999795496464,0.017172999680042267
1750743737082849000,5.98284912109375,-0.1076200008392334,-0.00621799984946847,0.05460200086236
1750743737092452900,5.992452880859375,-0.16808199882507324,-0.008101999759674072,0.040095001459121704
1750743737102057000,6.002056884765625,-0.14576999843120575,-0.005944000091403723,0.040796998888254166
1750743737111660800,6.011660888671875,-0.12492799758911133,-0.02540300041437149,0.05029100179672241
1750743737121264600,6.0212646484375,0.010487999767065048,-0.035718001425266266,0.0317780002951622
1750743737130868700,6.03086865234375,0.024052999913692474,0.001449999981559813,-0.0053980001248419285
1750743737140472600,6.04047265625,0.0928729996085167,0.02637699991464615,-0.02604999952018261
1750743737150076400,6.050076416015625,0.12522000074386597,0.018667999655008316,-0.032322999089956284
1750743737159680500,6.059680419921875,0.08606799691915512,0.0032389999832957983,-0.001825000043027103
1750743737169284400,6.069284423828125,-0.023527000099420547,-0.02396799996495247,0.006560999900102615
1750743737178888400,6.078888427734375,-0.1123809963464737,-0.005795000120997429,-0.020047999918460846
1750743737188492300,6.0884921875,-0.16915999352931976,-0.003467000089585781,-0.05874200165271759
1750743737198096400,6.098096435546875,-0.11008799821138382,0.0059899999760091305,-0.053286999464035034
1750743737207700200,6.1077001953125,0.0038900000508874655,-0.03555700182914734,-0.07962200045585632
1750743737217304000,6.117303955078125,0.03999900072813034,-0.03682800009846687,-0.050533000379800797
1750743737226908200,6.126908203125,0.10676699876785278,-0.02061600051820278,-0.036977000534534454
1750743737236512000,6.136511962890625,0.1590700000524521,-0.004271999932825565,0.004985000006854534
1750743737246116000,6.1461162109375,0.10696099698543549,0.000994000001810491,0.031105000525712967
1750743737255720000,6.155719970703125,0.039994001388549805,0.0008210000232793391,0.05478199943900108
1750743737265323800,6.16532373046875,-0.08455300331115723,0.02338000014424324,0.0618400014936924
1750743737274927900,6.174927978515625,-0.14368799328804016,-0.003137999912723899,0.04218899831175804
1750743737284531700,6.18453173828125,-0.11803700029850006,-0.029797999188303947,0.02410300076007843
1750743737294135800,6.1941357421875,-0.0790100023150444,-0.021361999213695526,-0.004974000155925751
1750743737303739400,6.203739501953125,0.02510100044310093,-0.024181000888347626,-0.015745000913739204
1750743737313343500,6.213343505859375,0.11534299701452255,-0.03356799855828285,-0.01950100064277649
1750743737322947600,6.222947509765625,0.12669500708580017,-0.04075400158762932,-0.00953300017863512
1750743737332551400,6.232551513671875,0.09129200130701065,-0.021004000678658485,0.004747000057250261
1750743737342155500,6.242155517578125,0.09461899846792221,-0.018695000559091568,0.0200009997934103
1750743737351759400,6.25175927734375,0.1008789986371994,0.011474999599158764,0.03131699934601784
1750743737361363500,6.261363525390625,0.040821999311447144,-0.026541000232100487,0.05416100099682808
1750743737370967300,6.27096728515625,-0.07258699834346771,-0.033764999359846115,0.04390000179409981
1750743737380571100,6.280571044921875,-0.13162000477313995,-0.026920000091195107,0.034658998250961304
1750743737390175000,6.290175048828125,-0.10163400322198868,0.034327998757362366,0.003513999981805682
1750743737399779000,6.299779052734375,-0.04132099822163582,0.0322129987180233,-0.005570000037550926
1750743737409383200,6.309383056640625,0.003254000097513199,0.041839998215436935,0.00853700004518032
1750743737418986800,6.31898681640625,-0.047846999019384384,0.008232999593019485,-0.019732000306248665
1750743737428590800,6.3285908203125,-0.10981100052595139,0.01359300035983324,-0.055100999772548676
1750743737438195000,6.33819482421875,-0.11683300137519836,0.01679299958050251,-0.0969109982252121
1750743737447798800,6.347798828125,-0.07690399885177612,0.04541099816560745,-0.08929400146007538
1750743737457403000,6.35740283203125,0.010893000289797783,-0.0107810003682971,-0.03884100168943405
1750743737467006700,6.3670068359375,0.04216799885034561,-0.038384001702070236,0.014175999909639359
1750743737476610600,6.376610595703125,0.07342900335788727,-0.027664000168442726,0.03468399867415428
1750743737486214700,6.386214599609375,0.07112900167703629,-0.02644200064241886,0.02077599987387657
1750743737495818500,6.395818603515625,0.038610998541116714,-0.0338280014693737,0.01717199943959713
1750743737505422300,6.40542236328125,0.039730001240968704,-0.0270370002835989,0.03164200112223625
1750743737515026400,6.4150263671875,0.019618000835180283,-0.025536999106407166,0.027155999094247818
1750743737524630300,6.42463037109375,0.04024999961256981,-0.007342000026255846,0.031982000917196274
1750743737534234400,6.434234375,0.0182109996676445,-0.011359999887645245,0.019102999940514565
1750743737543838200,6.443838134765625,-0.04778800159692764,0.01332399994134903,-0.005373999942094088
1750743737553442000,6.453442138671875,-0.06307300180196762,0.008592000231146812,-0.0007249999907799065
1750743737563046100,6.463046142578125,-0.06254799664020538,-0.011385000310838223,-0.011938000097870827
1750743737572650200,6.472650146484375,-0.06959199905395508,-0.025969000533223152,0.014665000140666962
1750743737582254000,6.482254150390625,-0.043772000819444656,-0.03472600132226944,0.0008079999824985862
1750743737591858000,6.49185791015625,0.014587000012397766,-0.013199999928474426,0.005528999958187342
1750743737601462000,6.5014619140625,0.05853699892759323,0.008391999639570713,0.009928000159561634
1750743737611065900,6.51106591796875,0.032997000962495804,-0.027363000437617302,-0.047453999519348145
1750743737620670000,6.520669921875,0.04874299839138985,0.007786000147461891,-0.039914000779390335
1750743737630273800,6.530273681640625,0.1258459985256195,0.0012619999470189214,-0.04441099986433983
1750743737639877600,6.539877685546875,0.21849800646305084,-0.015314999967813492,-0.026159999892115593
1750743737649481700,6.549481689453125,0.41984501481056213,0.0038920000661164522,0.08565700054168701
1750743737659085600,6.55908544921875,0.68892502784729,0.016241999343037605,0.09790299832820892
1750743737668689700,6.568689697265625,1.1380640268325806,0.06091399863362312,0.054545000195503235
1750743737678293500,6.57829345703125,1.7992019653320312,0.04994700103998184,0.23683999478816986
1750743737687897600,6.587897705078125,3.235903024673462,-0.07254000008106232,0.4292350113391876
1750743737697501400,6.59750146484375,5.885146141052246,-0.3024120032787323,0.34472599625587463
1750743737707105300,6.607105224609375,8.522207260131836,-0.6364150047302246,0.1775439977645874
1750743737716709400,6.61670947265625,9.692341804504395,-0.9920729994773865,-0.20407499372959137
1750743737726313200,6.626313232421875,9.031675338745117,-1.6254589557647705,-0.19494399428367615
1750743737735917300,6.635917236328125,7.420421123504639,-2.127074956893921,0.06742600351572037
1750743737745521200,6.645521240234375,4.1739068031311035,-2.4825119972229004,0.17067399621009827
1750743737755125000,6.655125,1.3230949640274048,-2.0368149280548096,-0.48742398619651794
1750743737764729000,6.66472900390625,0.16044799983501434,-1.6869399547576904,-0.10211899876594543
1750743737774333000,6.6743330078125,0.86080002784729,-1.535614013671875,0.5234090089797974
1750743737783937000,6.68393701171875,1.665174961090088,-1.389902949333191,0.7306659817695618
1750743737793541000,6.693541015625,1.4413479566574097,-1.310238003730774,0.25310400128364563
1750743737803145000,6.70314501953125,0.4782469868659973,-1.2451210021972656,-0.12151499837636948
1750743737812749000,6.7127490234375,-1.068977952003479,-1.1159559488296509,-0.4002630114555359
1750743737822353000,6.722352783203125,-3.3271028995513916,-1.3152029514312744,-0.8260779976844788
1750743737831956700,6.731956787109375,-5.140791893005371,-1.4190380573272705,-0.9939990043640137
1750743737841560800,6.741560791015625,-6.706154823303223,-1.325145959854126,-0.9818940162658691
1750743737851164700,6.75116455078125,-7.974163055419922,-1.036486029624939,-0.7357739806175232
1750743737860768500,6.7607685546875,-8.953166007995605,-0.5993170142173767,-0.2991180121898651
1750743737870372400,6.770372314453125,-9.19825553894043,-0.39747801423072815,-0.028548000380396843
1750743737879976400,6.7799765625,-8.87596321105957,-0.1947460025548935,-0.001339999958872795
1750743737889580300,6.789580322265625,-7.987783908843994,-0.08863800019025803,0.11909300088882446
1750743737899184400,6.799184326171875,-6.656662940979004,-0.1267230063676834,0.3753879964351654
1750743737908788500,6.80878857421875,-5.278841018676758,-0.14129100739955902,0.40138599276542664
1750743737918392000,6.81839208984375,-4.005453109741211,-0.07459799945354462,0.28703200817108154
1750743737927996200,6.82799609375,-3.168653964996338,-0.15629899501800537,0.19095900654792786
1750743737937600000,6.83760009765625,-2.4435319900512695,-0.47467899322509766,0.23189599812030792
1750743737947204000,6.8472041015625,-1.4763059616088867,-0.705411970615387,0.28168201446533203
1750743737956808200,6.85680810546875,-1.1764589548110962,-0.9488229751586914,0.28880199790000916
1750743737966411800,6.866411865234375,-1.2812700271606445,-1.2509280443191528,0.2808830142021179
1750743737985619700,6.88561962890625,-1.1595580577850342,-1.7187260389328003,0.2674179971218109
1750743737995223800,6.895223876953125,-0.6463279724121094,-1.8674989938735962,0.2193319946527481
1750743738004827600,6.90482763671875,-0.13187600672245026,-2.047991991043091,0.12200500071048737
1750743738014431700,6.914431640625,0.27957698702812195,-2.2415308952331543,0.08849100023508072
1750743738024035800,6.924035888671875,0.9424409866333008,-2.2592599391937256,0.04003800079226494
1750743738033639400,6.933639404296875,1.7978229522705078,-2.1903231143951416,-0.04634900018572807
1750743738043243500,6.943243408203125,2.422266960144043,-2.084547996520996,-0.11948999762535095
1750743738052847600,6.95284765625,2.7413909435272217,-2.0134670734405518,-0.18591299653053284
1750743738072055600,6.9720556640625,3.2783119678497314,-1.7186640501022339,-0.3504450023174286
1750743738081659100,6.9816591796875,3.650233030319214,-1.5841890573501587,-0.27254199981689453
1750743738091263500,6.991263427734375,4.4513630867004395,-1.594912052154541,-0.3732779920101166
1750743738100867000,7.0008671875,5.158717155456543,-1.6814179420471191,-0.6235700249671936
1750743738110471200,7.01047119140625,5.524641036987305,-1.8156089782714844,-0.8153719902038574
1750743738120075300,7.0200751953125,5.499864101409912,-2.0197019577026367,-0.7232769727706909
1750743738129679000,7.02967919921875,5.310651779174805,-2.119555950164795,-0.5323219895362854
1750743738139283200,7.039283203125,5.0899977684021,-2.1274960041046143,-0.3568800091743469
1750743738148887000,7.048886962890625,4.923203945159912,-1.993461012840271,-0.19059300422668457
1750743738158491000,7.058490966796875,4.601332187652588,-1.8852460384368896,-0.13799400627613068
1750743738168095000,7.068094970703125,4.086906909942627,-1.847195029258728,-0.16661299765110016
1750743738177698800,7.07769873046875,3.5954439640045166,-1.7596180438995361,-0.2598409950733185
1750743738187303000,7.087302978515625,2.9716920852661133,-1.5317139625549316,-0.2757810056209564
1750743738196906800,7.09690673828125,2.075521945953369,-1.318945050239563,-0.22197499871253967
1750743738206510600,7.106510498046875,1.2261359691619873,-1.1399439573287964,-0.1528339982032776
1750743738216114700,7.11611474609375,0.5105209946632385,-1.0305490493774414,-0.06137499958276749
1750743738225718500,7.125718505859375,-0.05550200119614601,-0.9319779872894287,-0.027247000485658646
1750743738235322600,7.135322509765625,-0.3646419942378998,-0.7808120250701904,-0.03235999867320061
1750743738244926700,7.1449267578125,-0.43576499819755554,-0.6743239760398865,-0.06080099940299988
1750743738254530300,7.1545302734375,-0.45617300271987915,-0.611024022102356,-0.08636000007390976
1750743738264134400,7.164134521484375,-0.4242999851703644,-0.6086750030517578,-0.04259999841451645
1750743738273738500,7.173738525390625,-0.26106300950050354,-0.5974709987640381,0.04392300173640251
1750743738283342300,7.18334228515625,0.01693500019609928,-0.5770440101623535,0.10270600020885468
1750743738292946200,7.1929462890625,0.3093380033969879,-0.5833100080490112,0.1377590000629425
1750743738302550300,7.20255029296875,0.5167959928512573,-0.6035590171813965,0.10999699681997299
1750743738312154000,7.212154052734375,0.6944929957389832,-0.6046940088272095,0.11218900233507156
1750743738321758000,7.221758056640625,0.6765050292015076,-0.6131809949874878,0.054659999907016754
1750743738331362000,7.231362060546875,0.5801360011100769,-0.6248589754104614,0.019116999581456184
1750743738340966000,7.2409658203125,0.5045589804649353,-0.6309130191802979,-0.005452999845147133
1750743738350570000,7.250570068359375,0.4134739935398102,-0.5908790230751038,-0.04281599819660187
1750743738360173800,7.260173828125,0.38598498702049255,-0.5713409781455994,-0.08026599884033203
1750743738369777700,7.269777587890625,0.4262079894542694,-0.5307419896125793,-0.13018600642681122
1750743738379381800,7.2793818359375,0.5080919861793518,-0.516569972038269,-0.16711300611495972
1750743738388985900,7.28898583984375,0.5766109824180603,-0.47694599628448486,-0.13814599812030792
1750743738398589700,7.298589599609375,0.6039199829101562,-0.4490399956703186,-0.15267999470233917
1750743738408193500,7.308193603515625,0.5582900047302246,-0.38508298993110657,-0.196260005235672
1750743738417797600,7.317797607421875,0.43158701062202454,-0.3326779901981354,-0.17066499590873718
1750743738427401500,7.3274013671875,0.3296569883823395,-0.32286199927330017,-0.10547900199890137
1750743738437005600,7.337005615234375,0.22713099420070648,-0.3513430058956146,-0.08304999768733978
1750743738446609400,7.346609375,0.11035899817943573,-0.34493300318717957,-0.05914299935102463
1750743738456213500,7.356213623046875,0.04545300081372261,-0.3047809898853302,-0.03484899923205376
1750743738465817300,7.3658173828125,-0.027406999841332436,-0.2788409888744354,-0.03570900112390518
1750743738475421200,7.375421142578125,-0.019286999478936195,-0.2666270136833191,-0.03861299902200699
1750743738485025000,7.38502490234375,0.05459100008010864,-0.2333970069885254,-0.05807400122284889
1750743738494629000,7.394629150390625,0.1696079969406128,-0.21408100426197052,-0.04581800103187561
1750743738504233000,7.40423291015625,0.24998100101947784,-0.19549599289894104,0.014825000427663326
1750743738513837000,7.413837158203125,0.28717198967933655,-0.19825699925422668,0.055608998984098434
1750743738523441000,7.42344091796875,0.3797920048236847,-0.14397600293159485,0.002322999993339181
1750743738533045000,7.433044921875,0.3517400026321411,-0.14197100698947906,0.012000000104308128
1750743738542648800,7.44264892578125,0.2683030068874359,-0.15489499270915985,0.0007070000283420086
1750743738552252700,7.452252685546875,0.14222900569438934,-0.1599780023097992,0.033576998859643936
1750743738561856800,7.461856689453125,0.05933000147342682,-0.1519020050764084,0.021623000502586365
1750743738571460600,7.471460693359375,0.0019399999873712659,-0.11737900227308273,0.03621400147676468
1750743738581064700,7.481064697265625,-0.04705899953842163,-0.10138799995183945,0.042500998824834824
1750743738590668300,7.490668212890625,-0.06027400121092796,-0.1043580025434494,0.07599800080060959
1750743738600272400,7.5002724609375,-0.1045520007610321,-0.10980899631977081,0.043772000819444656
1750743738609876500,7.50987646484375,-0.10068599879741669,-0.07493499666452408,0.010073999874293804
1750743738619480300,7.519480224609375,-0.06611199676990509,-0.05620399862527847,-0.032485999166965485
1750743738629084400,7.52908447265625,-0.023313000798225403,-0.05942400172352791,-0.04430399835109711
1750743738638688500,7.5386884765625,0.07047399878501892,-0.05297200009226799,-0.062043000012636185
1750743738648292400,7.548292236328125,0.14359299838542938,-0.06342700123786926,-0.05225500091910362
1750743738657896200,7.557896240234375,0.1446940004825592,-0.0735820010304451,-0.048204001039266586
1750743738667500000,7.5675,0.07874699681997299,-0.032186999917030334,-0.04623600095510483
1750743738677104000,7.577104248046875,0.04030799865722656,-0.030827000737190247,-0.045993998646736145
1750743738686708000,7.5867080078125,0.05373699963092804,-0.04742300137877464,-0.02746500074863434
1750743738696312000,7.59631201171875,0.02408199943602085,-0.06163699924945831,-0.021662000566720963
1750743738705916000,7.605916015625,-0.06180400028824806,-0.06810799986124039,-0.0000870000003487803
1750743738715519700,7.615519775390625,-0.11116299778223038,-0.08028499782085419,0.022665999829769135
1750743738725123800,7.625123779296875,-0.1010420024394989,-0.06555700302124023,0.028922000899910927
1750743738734727700,7.634727783203125,-0.023564999923110008,-0.08124300092458725,0.010071000084280968
1750743738744331800,7.644331787109375,0.06607300043106079,-0.09600800275802612,-0.014859000220894814
1750743738753935600,7.653935546875,0.13764099776744843,-0.08243100345134735,-0.07716000080108643
1750743738763539700,7.663539794921875,0.22789199650287628,-0.0561399981379509,-0.07811400294303894
1750743738773143800,7.673143798828125,0.27107301354408264,-0.02865700051188469,-0.0423940010368824
1750743738782747400,7.682747314453125,0.2990320026874542,0.010869000107049942,0.02319600060582161
1750743738792351700,7.692351806640625,0.2421019971370697,-0.011428000405430794,0.04193900153040886
1750743738801955600,7.70195556640625,0.06844700127840042,-0.031067999079823494,0.03428100049495697
1750743738811559400,7.711559326171875,-0.1137159988284111,-0.04159500077366829,0.03207499906420708
1750743738821163300,7.721163330078125,-0.1820629984140396,-0.015745000913739204,-0.0038530000019818544
1750743738830767000,7.73076708984375,-0.18159300088882446,-0.01766199991106987,-0.08317700028419495
1750743738840371500,7.740371337890625,-0.09663499891757965,-0.014589999802410603,-0.08458799868822098
1750743738849975000,7.74997509765625,0.02206999994814396,-0.005855000112205744,-0.0563570000231266
1750743738859579100,7.7595791015625,0.037592001259326935,0.0007949999999254942,0.028389999642968178
1750743738869183000,7.769182861328125,0.12481799721717834,0.021988000720739365,0.06062300130724907
1750743738878787000,7.778787109375,0.22709999978542328,0.03140300139784813,0.054861001670360565
1750743738888391200,7.78839111328125,0.20520399510860443,0.006818000227212906,0.03129800036549568
1750743738897995000,7.7979951171875,0.24839100241661072,-0.013629999943077564,0.054026998579502106
1750743738907598800,7.807598876953125,0.25133800506591797,-0.025198999792337418,0.056623999029397964
1750743738917203000,7.817202880859375,0.20833300054073334,0.005795000120997429,0.010625000111758709
1750743738926806800,7.826806884765625,0.07271300256252289,0.017647000029683113,-0.011225000023841858
1750743738936411000,7.836410888671875,-0.13106900453567505,0.000012999999853491317,0.002492999890819192
1750743738946014500,7.846014404296875,-0.3360089957714081,0.024817999452352524,-0.026758000254631042
1750743738955618800,7.855618896484375,-0.44502899050712585,0.04828299954533577,-0.054767001420259476
1750743738965222700,7.86522265625,-0.2493789941072464,0.0637269988656044,-0.02758999913930893
1750743738974826500,7.874826416015625,-0.07104700058698654,0.027327999472618103,-0.04191099852323532
1750743738984430600,7.8844306640625,0.031998999416828156,-0.018303999677300453,0.02722500078380108
1750743738994034400,7.894034423828125,0.5908759832382202,-0.018673000857234,0.10932300239801407
1750743739003638500,7.903638427734375,1.3304710388183594,-0.027876999229192734,0.20326299965381622
1750743739013242400,7.913242431640625,1.825523018836975,-0.00533400010317564,0.1751289963722229
1750743739022846500,7.922846435546875,1.971166968345642,-0.06545399874448776,-0.02723200060427189
1750743739032450300,7.9324501953125,1.573441982269287,-0.15296199917793274,-0.021174000576138496
1750743739042054100,7.94205419921875,1.0340019464492798,-0.20136600732803345,-0.050641000270843506
1750743739051658200,7.951658203125,0.5277199745178223,-0.1843540072441101,-0.09460999816656113
1750743739061262000,7.961261962890625,-0.1258620023727417,-0.1572290062904358,-0.10201100260019302
1750743739070866000,7.970865966796875,-0.8873710036277771,-0.09800499677658081,-0.06710600107908249
1750743739080470000,7.980469970703125,-1.5684709548950195,0.01472499966621399,0.0222609993070364
1750743739090073900,7.990073974609375,-1.9659069776535034,0.12916800379753113,0.07774700224399567
1750743739099678000,7.999677978515625,-2.138833999633789,0.23060999810695648,0.00762399984523654
1750743739109281800,8.00928173828125,-2.126128911972046,0.27168700098991394,-0.055768001824617386
1750743739118886000,8.018885986328126,-1.9445040225982666,0.32158899307250977,-0.10246399790048599
1750743739128490000,8.028489990234375,-1.5839630365371704,0.31266099214553833,-0.10243400186300278
1750743739138093800,8.03809375,-1.1203639507293701,0.22625599801540375,-0.0482340008020401
1750743739147697700,8.04769775390625,-0.6308609843254089,0.12328299880027771,-0.0180479995906353
1750743739157301800,8.0573017578125,-0.24006299674510956,0.0452210009098053,0.023590000346302986
1750743739166905600,8.066905517578125,0.09123499691486359,-0.001069999998435378,0.05104599893093109
1750743739176509400,8.076509521484375,0.5283420085906982,0.02200300060212612,0.05263099819421768
1750743739186113500,8.086113525390624,0.7406949996948242,0.03883599862456322,0.015557000413537025
1750743739195717400,8.09571728515625,0.6860179901123047,0.05355700105428696,0.033810000866651535
1750743739205321200,8.1053212890625,0.5550349950790405,0.011123999953269958,0.04357599839568138
1750743739214925300,8.11492529296875,0.4060789942741394,-0.017007000744342804,0.024011999368667603
1750743739224529200,8.124529052734376,0.2318120002746582,-0.06900499761104584,-0.04222499951720238
1750743739234133200,8.13413330078125,0.08958099782466888,-0.08014000207185745,-0.06925199925899506
1750743739243737000,8.143737060546876,-0.011314000003039837,-0.05007899925112724,-0.08239799737930298
1750743739253341200,8.153341064453125,-0.038520000874996185,-0.00595899997279048,-0.03610699996352196
1750743739262945300,8.1629453125,0.022969000041484833,0.018835999071598053,-0.020881999284029007
1750743739272549000,8.172549072265625,0.10100500285625458,0.07265699654817581,0.029397999867796898
1750743739282153000,8.182153076171875,0.19039100408554077,0.08669000118970871,0.03541800007224083
1750743739291757000,8.191757080078125,0.20861400663852692,0.10455500334501266,0.0808119997382164
1750743739301361000,8.20136083984375,0.24973200261592865,0.10611200332641602,0.08360300213098526
1750743739310965000,8.210965087890624,0.10724599659442902,0.09351599961519241,0.04455599933862686
1750743739320568800,8.22056884765625,-0.0020179999992251396,0.05631500110030174,0.01935500092804432
1750743739330173000,8.2301728515625,-0.05515399947762489,0.05109100043773651,0.017351999878883362
1750743739339777000,8.239777099609375,-0.08436600118875504,0.06025699898600578,0.016882000491023064
1750743739349380900,8.249380859375,-0.08076299726963043,0.029750000685453415,0.02071700058877468
1750743739358984700,8.258984619140625,-0.0737529993057251,-0.005927999969571829,0.03721899911761284
1750743739368588500,8.268588623046876,-0.03121500089764595,0.021203000098466873,0.05036799982190132
1750743739378192600,8.278192626953125,0.022369999438524246,0.00420599989593029,0.031129000708460808
1750743739387796700,8.287796630859376,0.07313500344753265,0.026159999892115593,-0.009081000462174416
1750743739397400600,8.297400634765625,0.10785099864006042,0.059057001024484634,-0.03518600016832352
1750743739407004400,8.30700439453125,0.06798399984836578,0.09377499669790268,-0.07377199828624725
1750743739416608500,8.3166083984375,0.04298099875450134,0.060722000896930695,-0.045816998928785324
1750743739426212400,8.32621240234375,0.02081199921667576,0.06772100180387497,-0.038610998541116714
1750743739435816400,8.33581640625,-0.015217999927699566,0.047642000019550323,-0.027434000745415688
1750743739445420300,8.345420166015625,-0.06687600165605545,0.05940600112080574,0.009517000056803226
1750743739455024400,8.3550244140625,-0.12698300182819366,0.06952200084924698,0.02858399972319603
1750743739464628200,8.364628173828125,-0.14222100377082825,0.037445999681949615,0.06693600118160248
1750743739474232000,8.374232177734376,-0.15352199971675873,0.03295699879527092,0.050425998866558075
1750743739483836200,8.383836181640625,-0.1346379965543747,0.01548600010573864,0.04423699900507927
1750743739493440000,8.39343994140625,-0.059356000274419785,0.0354899987578392,0.007294000126421452
1750743739503044000,8.403044189453125,0.023176999762654305,0.0157880000770092,-0.041822999715805054
1750743739512648000,8.41264794921875,0.04360299929976463,0.03897999972105026,-0.060773998498916626
1750743739522252000,8.422251953125,0.07643499970436096,0.051979999989271164,-0.07788600027561188
1750743739531856000,8.43185595703125,0.13937799632549286,0.049685999751091,-0.03695699945092201
1750743739541460000,8.4414599609375,0.08529999852180481,0.013411000370979309,0.024013999849557877
1750743739551064000,8.45106396484375,-0.0007539999787695706,-0.005975000094622374,0.07694300264120102
1750743739560668000,8.46066796875,-0.11291500180959702,0.013913000002503395,0.09471400082111359
1750743739570271700,8.470271728515625,-0.16903899610042572,0.0324070006608963,0.06787300109863281
1750743739579875800,8.479875732421876,-0.1618639975786209,-0.00458399998024106,0.04121999815106392
1750743739589479700,8.489479736328125,-0.06383199989795685,-0.01635799929499626,-0.005921999923884869
1750743739599083800,8.499083740234376,0.023180000483989716,0.01945599913597107,-0.05110500007867813
1750743739608687600,8.5086875,0.07132499665021896,0.017788000404834747,-0.0777989998459816
1750743739618291500,8.51829150390625,0.09324900060892105,0.03271700069308281,-0.07569699734449387
1750743739627895600,8.5278955078125,0.05573999881744385,0.008716999553143978,-0.04163999855518341
1750743739637499600,8.537499755859375,-0.087226003408432,0.007708999793976545,0.02247299998998642
1750743739647103500,8.547103515625,-0.23756399750709534,-0.010878999717533588,0.051603998988866806
1750743739656707300,8.556707275390625,-0.20340900123119354,0.015850000083446503,0.011435000225901604
1750743739666311400,8.5663115234375,-0.07189100235700607,0.013713999651372433,-0.01522899977862835
1750743739675915300,8.575915283203125,0.009863999672234058,0.009503999724984169,0.00008600000001024455
1750743739685519400,8.585519287109374,0.1531520038843155,-0.02130899950861931,0.009097999893128872
1750743739695123200,8.595123291015625,0.2825410068035126,-0.0157880000770092,0.047168001532554626
1750743739704727300,8.604727294921876,0.49946099519729614,0.024827999994158745,0.08004599809646606
1750743739714331100,8.6143310546875,0.7789940237998962,0.0014349999837577343,0.09511899948120117
1750743739723935200,8.623935302734376,1.2853790521621704,0.0019539999775588512,0.11996299773454666
1750743739733539000,8.6335390625,1.6043920516967773,-0.02008499950170517,0.1351500004529953
1750743739743143200,8.64314306640625,2.0829451084136963,0.04452800005674362,-0.006426999811083078
1750743739752747000,8.6527470703125,2.6307480335235596,-0.027719000354409218,-0.08500999957323074
1750743739762351000,8.66235107421875,3.707047939300537,-0.28000399470329285,-0.1000330001115799
1750743739771955000,8.671954833984374,5.204139232635498,-0.4264349937438965,0.07517100125551224
1750743739781558800,8.681558837890625,6.20525598526001,-0.6316739916801453,-0.05435499921441078
1750743739791163000,8.691162841796874,5.391345024108887,-0.7398930191993713,-0.38238799571990967
1750743739800766700,8.7007666015625,3.137579917907715,-0.7703400254249573,-0.6177499890327454
1750743739810370800,8.710370849609374,0.554735004901886,-1.0482959747314453,-0.41636401414871216
1750743739819974700,8.719974609375,-1.7557580471038818,-1.1649080514907837,0.14845100045204163
1750743739829578500,8.72957861328125,-3.72196888923645,-0.9625020027160645,0.5750160217285156
1750743739839182600,8.7391826171875,-4.99325704574585,-0.5742689967155457,0.6314830183982849
1750743739848786700,8.74878662109375,-5.827847003936768,-0.23429900407791138,0.48843398690223694
1750743739858390500,8.758390625,-6.260642051696777,0.08812099695205688,0.2485319972038269
1750743739867994400,8.767994384765625,-5.992149829864502,0.36965298652648926,0.2853820025920868
1750743739877598500,8.777598388671874,-5.681262969970703,0.5687980055809021,-0.1018500030040741
1750743739887202600,8.78720263671875,-5.036768913269043,0.8414869904518127,-0.4012939929962158
1750743739896806100,8.79680615234375,-4.069868087768555,0.9378600120544434,-0.4062809944152832
1750743739906410200,8.80641015625,-3.017401933670044,0.8988959789276123,-0.2578830122947693
1750743739916014000,8.81601416015625,-2.095586061477661,0.633184015750885,-0.06278800219297409
1750743739925618200,8.8256181640625,-1.378708004951477,0.36756598949432373,0.18386399745941162
1750743739935222300,8.83522216796875,-0.7770130038261414,0.13717800378799438,0.313757985830307
1750743739944826000,8.844826171875,-0.22960099577903748,-0.024493999779224396,0.2535319924354553
1750743739954430200,8.85443017578125,0.26718801259994507,-0.08438099920749664,0.0990459993481636
1750743739964034000,8.864033935546875,0.6379280090332031,-0.13683900237083435,-0.012264000251889229
1750743739973638000,8.873637939453126,0.8639839887619019,-0.19922399520874023,-0.044537000358104706
1750743739983242200,8.8832421875,1.050616979598999,-0.27152401208877563,0.10761400312185287
1750743739992845800,8.892845703125,1.0065690279006958,-0.35007399320602417,0.1613679975271225
1750743740002450000,8.902449951171874,0.9847440123558044,-0.303523987531662,0.10051800310611725
1750743740012053800,8.9120537109375,0.995510995388031,-0.18863700330257416,-0.06646999716758728
1750743740021657900,8.921657958984374,1.1006989479064941,-0.11973900347948074,-0.21014299988746643
1750743740031262000,8.931261962890625,1.2660859823226929,-0.09821899980306625,-0.30270999670028687
1750743740040865500,8.940865478515626,1.3227009773254395,-0.09798499941825867,-0.3417550027370453
1750743740050469600,8.9504697265625,1.3246569633483887,-0.049359001219272614,-0.34661999344825745
1750743740060073700,8.96007373046875,1.2309279441833496,0.012005999684333801,-0.3137669861316681
1750743740069677600,8.969677490234375,1.0843420028686523,0.025567999109625816,-0.23349499702453613
1750743740079281700,8.97928173828125,0.8779039978981018,0.033344000577926636,-0.13767899572849274
1750743740088885500,8.988885498046875,0.6478989720344543,0.025908000767230988,-0.008640999905765057
1750743740098489600,8.998489501953125,0.40099799633026123,0.034876998513936996,0.08805699646472931
1750743740108093700,9.00809375,0.24116100370883942,0.03579400107264519,0.09707999974489212
1750743740117697300,9.017697265625,0.12763099372386932,0.04410399869084358,0.12125799804925919
1750743740127301400,9.02730126953125,0.04594400152564049,0.06949999928474426,0.10748200118541718
1750743740136905500,9.036905517578125,0.038637999445199966,0.12474200129508972,0.03767300024628639
1750743740146509300,9.04650927734375,0.052698999643325806,0.18636299669742584,0.011241000145673752
1750743740156113400,9.056113525390625,0.018838999792933464,0.21106299757957458,0.0239850003272295
1750743740165717200,9.06571728515625,-0.07503899931907654,0.20143400132656097,0.06798200309276581
1750743740175321300,9.0753212890625,-0.14178800582885742,0.1571740061044693,0.05686600133776665
1750743740184925200,9.08492529296875,-0.16977199912071228,0.16256999969482422,0.03265099972486496
1750743740194529000,9.094529052734375,-0.17132599651813507,0.1702599972486496,0.004112999886274338
1750743740204133000,9.104133056640626,-0.17564700543880463,0.1521739959716797,-0.013363000005483627
1750743740213737000,9.113737060546875,-0.18379899859428406,0.1170009970664978,-0.030079999938607216
1750743740223341000,9.123341064453125,-0.1187020018696785,0.12393400073051453,-0.03504500165581703
1750743740232945200,9.132945068359374,0.01969599910080433,0.12120799720287323,-0.030876999720931053
1750743740242549000,9.142549072265625,0.06647700071334839,0.13853700459003448,-0.058768998831510544
1750743740252153000,9.152153076171874,0.06151000037789345,0.14019399881362915,-0.09153500199317932
1750743740261757000,9.1617568359375,-0.00113800005055964,0.1435769945383072,-0.09733399748802185
1750743740271361000,9.171361083984374,-0.024968000128865242,0.14146800339221954,-0.093811996281147
1750743740280964900,9.18096484375,-0.04136500135064125,0.14142000675201416,-0.09302300214767456
1750743740290568700,9.190568603515626,-0.037668000906705856,0.06681399792432785,-0.05905500054359436
1750743740300172800,9.2001728515625,-0.09076599776744843,0.06311199814081192,-0.05384400114417076
1750743740309776600,9.209776611328126,-0.1781879961490631,0.0643640011548996,-0.04413999989628792
1750743740319380700,9.219380615234375,-0.22610999643802643,0.08074399828910828,-0.06192599982023239
1750743740328984600,9.228984619140626,-0.13783499598503113,0.05539099872112274,-0.09227800369262695
1750743740338588700,9.238588623046875,-0.007581000216305256,0.03495199978351593,-0.0906829982995987
1750743740348192500,9.248192626953125,0.03382100164890289,0.001424000016413629,-0.044697001576423645
1750743740357796400,9.25779638671875,0.04672199860215187,0.027421999722719193,-0.043333999812603
1750743740367400400,9.267400390625,-0.015076999552547932,0.06269600242376328,-0.015595999546349049
1750743740377004300,9.27700439453125,-0.03573700040578842,0.04468600079417229,-0.0024170000106096268
1750743740386608400,9.2866083984375,-0.005512999836355448,-0.021093999966979027,-0.03346100077033043
1750743740396212500,9.29621240234375,-0.0071840002201497555,-0.013969999738037586,-0.03519900143146515
1750743740405816300,9.30581640625,-0.03550700098276138,0.03333299979567528,0.0018840000266209245
1750743740415420200,9.315420166015626,0.03723200038075447,0.07273399829864502,0.04390199854969978
1750743740425024300,9.325024169921875,0.1250009983778,0.06666699796915054,0.05268000066280365
1750743740434628000,9.334628173828126,0.057927001267671585,0.03795799985527992,0.051975999027490616
1750743740444232200,9.344232177734375,0.04158499836921692,0.015797000378370285,0.05962299928069115
1750743740453836000,9.3538359375,-0.002400000113993883,0.016057999804615974,0.07596900314092636
1750743740463440100,9.363440185546875,-0.027627000585198402,-0.0070580001920461655,0.04841599985957146
1750743740473044000,9.3730439453125,0.004145000129938126,0.006401000078767538,0.023036999627947807
1750743740482648000,9.38264794921875,-0.01144300028681755,0.021542999893426895,-0.05564400181174278
1750743740492252000,9.392251953125,-0.012300999835133553,0.03619199991226196,-0.07273499667644501
1750743740501855700,9.401855712890624,0.010985000059008598,0.03141399845480919,-0.07972099632024765
1750743740511459800,9.4114599609375,0.005745999980717897,0.045504000037908554,-0.06352800130844116
1750743740521063700,9.421063720703126,-0.01769999973475933,0.05827299878001213,-0.034519001841545105
1750743740530667800,9.430667724609375,-0.03539400175213814,0.06011899933218956,-0.02153800055384636
1750743740540271600,9.440271728515626,-0.08153600245714188,0.06395799666643143,-0.0008709999965503812
1750743740549875700,9.449875732421875,-0.10350599884986877,0.043529000133275986,0.04636799916625023
1750743740559479600,9.4594794921875,-0.06703899800777435,0.032246001064777374,0.05914900079369545
1750743740569083400,9.46908349609375,-0.05090299993753433,0.017813000828027725,0.03718600049614906
1750743740578687500,9.4786875,-0.027434000745415688,0.03671500086784363,-0.005934999790042639
1750743740588291600,9.48829150390625,-0.004732000175863504,0.018370000645518303,-0.009890999644994736
1750743740597895400,9.4978955078125,-0.01167600043118,0.0012929999502375722,-0.013086000457406044
1750743740607499300,9.507499267578124,-0.04661799967288971,0.007164000067859888,-0.047892000526189804
1750743740617103400,9.517103271484375,-0.08352400362491608,0.010042999871075153,-0.04256200045347214
1750743740626707500,9.52670751953125,-0.01997300051152706,0.03699199855327606,0.005805000197142363
1750743740636311000,9.53631103515625,0.049038998782634735,0.028008000925183296,-0.02619599923491478
1750743740645915400,9.545915283203126,0.1092350035905838,-0.0026700000744313,-0.027267999947071075
1750743740655519500,9.55551953125,0.10058700293302536,0.018490999937057495,0.0005109999910928309
1750743740665123000,9.565123046875,0.05721500143408775,0.009278000332415104,0.022810999304056168
1750743740674727200,9.57472705078125,0.03368400037288666,-0.0032599999103695154,0.008372999727725983
1750743740684331000,9.5843310546875,-0.020099999383091927,-0.00023999999393709004,-0.006080999970436096
1750743740693935000,9.59393505859375,-0.08520299941301346,-0.022064000368118286,-0.008919999934732914
1750743740703539200,9.603539306640625,-0.12101700156927109,-0.003942999988794327,-0.01107100024819374
1750743740713143000,9.61314306640625,-0.14066000282764435,-0.016141999512910843,0.005390999838709831
1750743740722747100,9.6227470703125,-0.09453699737787247,-0.019404999911785126,-0.0042420001700520515
1750743740732351000,9.63235107421875,-0.0000470000013592653,-0.0008970000199042261,0.015773000195622444
1750743740741954800,9.641954833984375,0.12094700336456299,0.008704000152647495,0.026366999372839928
1750743740751559000,9.651558837890626,0.14019300043582916,-0.03511200100183487,-0.010207000188529491
1750743740761162800,9.661162841796875,0.07524000108242035,-0.009846000000834465,0.003278000047430396
1750743740770766800,9.670766845703126,0.019727999344468117,0.012310000136494637,-0.006647999864071608
1750743740780370700,9.68037060546875,0.0034749999176710844,0.023578999564051628,-0.0021170000545680523
1750743740789974800,9.689974853515626,0.008040999993681908,0.009525000117719173,-0.015912000089883804
1750743740799579000,9.699578857421875,-0.0034260000102221966,0.01362599991261959,-0.01285799965262413
1750743740809182500,9.709182373046875,-0.03810200095176697,0.009522000327706337,-0.0106819998472929
1750743740818786600,9.71878662109375,-0.06704500317573547,0.03765000030398369,-0.033094000071287155
1750743740828390400,9.728390380859375,-0.058531999588012695,0.014291999861598015,-0.030438000336289406
1750743740837994500,9.737994384765624,-0.017347000539302826,0.0040779998525977135,-0.046222999691963196
1750743740847598300,9.747598388671875,-0.008163000456988811,0.004637999925762415,-0.0395830012857914
1750743740857202400,9.757202392578124,0.047513000667095184,-0.0024800000246614218,-0.010947000235319138
1750743740866806500,9.766806640625,0.05018400028347969,-0.03070800006389618,0.01549999974668026
1750743740876410000,9.77641015625,0.011243999935686588,0.01322800014168024,0.03567900136113167
1750743740886014500,9.786014404296875,-0.014409000054001808,0.0218339990824461,0.046227000653743744
1750743740895618300,9.795618408203126,0.005140000022947788,0.016478000208735466,0.04817799851298332
1750743740905222100,9.80522216796875,-0.009362000040709972,0.0022849999368190765,0.028912000358104706
1750743740914826200,9.814826171875,-0.007418000139296055,-0.011467999778687954,0.020263999700546265
1750743740924430000,9.82443017578125,-0.022153999656438828,-0.022931000217795372,-0.0038930000737309456
1750743740934034200,9.8340341796875,0.0034000000450760126,-0.014662999659776688,-0.01028400007635355
1750743740943638000,9.843637939453124,0.022180000320076942,0.00980400014668703,-0.01614600047469139
1750743740953242000,9.8532421875,0.061781998723745346,0.008940000087022781,-0.028808999806642532
1750743740962846200,9.86284619140625,0.04128900170326233,0.0012159999459981918,-0.03517799824476242
1750743740972450000,9.872449951171875,-0.004827000200748444,-0.009897000156342983,0.0019910000264644623
1750743740982054000,9.882053955078124,-0.03807299956679344,-0.010285000316798687,0.012706000357866287
1750743740991657700,9.89165771484375,-0.023699000477790833,0.004064999986439943,-0.01168499980121851
1750743741001261800,9.90126171875,0.006802999880164862,0.01450399961322546,-0.0019399999873712659
1750743741010866000,9.910865966796875,0.04846100136637688,-0.00266700005158782,0.008968000300228596
1750743741020469800,9.9204697265625,0.04707999899983406,0.0064130001701414585,0.01711300015449524
1750743741030073600,9.930073486328125,0.03376799821853638,-0.008502000011503696,0.01988000050187111
1750743741039677700,9.939677734375,-0.004191000014543533,0.0029879999347031116,0.0008410000009462237
1750743741049281500,9.949281494140624,-0.015302999876439571,0.032926999032497406,-0.01524099987000227
1750743741058885600,9.9588857421875,-0.00005900000178371556,0.029326999559998512,-0.023406000807881355
1750743741068489700,9.96848974609375,-0.007201000116765499,-0.006643000058829784,0.0026920000091195107
1750743741078093600,9.978093505859375,-0.050025999546051025,-0.026187999173998833,0.03630499914288521
1750743741087697700,9.98769775390625,-0.06379099935293198,-0.0007009999826550484,0.056605998426675797
1750743741097301500,9.997301513671875,-0.020987000316381454,0.004478000104427338,0.0489020012319088
1750743741106905600,10.006905517578126,0.022975999861955643,-0.012570999562740326,0.032614000141620636
1750743741116509200,10.01650927734375,0.051874998956918716,-0.00470399996265769,-0.0015010000206530094
1750743741126113300,10.02611328125,0.12544399499893188,-0.01005600020289421,-0.012622999958693981
1750743741135717400,10.03571728515625,0.12283100187778473,0.0007510000141337514,-0.023597000166773796
1750743741145321200,10.0453212890625,0.09554299712181091,0.018843999132514,-0.05433100089430809
1750743741154925300,10.05492529296875,0.022616999223828316,0.029035000130534172,-0.06966300308704376
1750743741164529200,10.064529052734375,-0.08224699646234512,0.02266000024974346,-0.02041199989616871
1750743741174133200,10.07413330078125,-0.07430800050497055,0.05420700088143349,0.03584200143814087
1750743741183737300,10.0837373046875,-0.02273700013756752,0.011699999682605267,0.04945800080895424
1750743741193341000,10.0933408203125,-0.0647210031747818,-0.011398999951779842,0.03722900152206421
1750743741202945300,10.1029453125,-0.08330000191926956,-0.04332699999213219,-0.0001289999927394092
1750743741212549000,10.112549072265624,-0.07125899940729141,-0.038635000586509705,-0.021599000319838524
1750743741222153000,10.122153076171875,0.004002000205218792,-0.029565999284386635,-0.0599760003387928
1750743741231757000,10.131757080078126,0.12471800297498703,-0.024310000240802765,-0.06657300144433975
1750743741241361200,10.141361083984375,0.21807000041007996,-0.010443000122904778,-0.05698399990797043
1750743741250965000,10.150965087890626,0.12048599869012833,0.03757200017571449,-0.038711000233888626
1750743741260568800,10.16056884765625,0.0312809981405735,0.056648001074790955,0.0012069999938830733
1750743741270173000,10.1701728515625,-0.05140500143170357,0.06613700091838837,0.041735000908374786
1750743741279776800,10.17977685546875,-0.09124000370502472,0.006533000152558088,0.06449999660253525
1750743741289380900,10.189380859375,-0.1197659969329834,-0.0090549997985363,0.08360400050878525
1750743741298984700,10.198984619140624,-0.16284799575805664,-0.014789000153541565,0.039673998951911926
1750743741308588800,10.2085888671875,-0.15805499255657196,-0.018107999116182327,0.025779999792575836
1750743741318192600,10.218192626953124,-0.09502200037240982,-0.028762999922037125,0.008960999548435211
1750743741327796700,10.227796630859375,0.014600000344216824,-0.05826500058174133,-0.009088999591767788
1750743741337400800,10.23740087890625,0.13688400387763977,-0.013570000417530537,-0.042305998504161835
1750743741347004700,10.247004638671875,0.2123039960861206,-0.02442299947142601,-0.051419999450445175
1750743741356608800,10.25660888671875,0.18130899965763092,-0.020346999168395996,-0.014085999689996243
1750743741366212400,10.26621240234375,0.13286300003528595,-0.006668000016361475,0.006599000189453363
1750743741375816400,10.27581640625,0.07488799840211868,0.027557000517845154,-0.008937000297009945
1750743741385420300,10.285420166015625,0.01584400050342083,0.019233999773859978,0.01757499948143959
1750743741395024400,10.2950244140625,-0.0900849997997284,-0.019210999831557274,0.06158800050616264
1750743741404628200,10.304628173828124,-0.1609019935131073,-0.019158000126481056,0.03531799837946892
1750743741414232300,10.314232421875,-0.16900299489498138,0.008992999792098999,-0.012892999686300755
1750743741423836200,10.323836181640624,-0.08745399862527847,0.0318170003592968,0.006467999890446663
1750743741433440000,10.33343994140625,0.006165000144392252,0.012331999838352203,-0.01607700064778328
1750743741443044400,10.34304443359375,0.05994100123643875,0.016522999852895737,-0.04945199936628342
1750743741452648400,10.3526484375,0.04245299845933914,0.03909200057387352,-0.07188499718904495
1750743741462252000,10.362251953125,0.00609799986705184,0.02774900011718273,-0.06557299941778183
1750743741471856000,10.371856201171875,-0.02792299911379814,-0.03140300139784813,-0.03515800088644028
1750743741481460200,10.381460205078126,0.0047439998015761375,-0.006275999825447798,-0.020387999713420868
1750743741491064000,10.39106396484375,0.06985700130462646,-0.0036120000295341015,0.011935999616980553
1750743741500668000,10.40066796875,0.05544700101017952,-0.03854700177907944,0.023750999942421913
1750743741510272000,10.41027197265625,-0.031766001135110855,-0.03714900091290474,0.043425001204013824
1750743741519876000,10.4198759765625,-0.028977999463677406,0.010178999975323677,0.03313399851322174
1750743741529480000,10.42947998046875,0.01474899984896183,0.02844800055027008,0.027892999351024628
1750743741539084000,10.439083984375,0.04694699868559837,-0.01281800027936697,0.032099999487400055
1750743741548688000,10.44868798828125,0.052955999970436096,-0.01119100023061037,0.0439159981906414
1750743741558291700,10.458291748046875,0.018508000299334526,-0.012299999594688416,0.02000500075519085
1750743741567895800,10.467895751953124,-0.06216299906373024,0.008225999772548676,-0.016648000106215477
1750743741577499600,10.477499755859375,-0.08953200280666351,-0.0008479999960400164,-0.005096000153571367
1750743741587103700,10.487103759765626,-0.04554399847984314,0.0098879998549819,-0.04118800163269043
1750743741596707600,10.49670751953125,-0.05257299914956093,-0.01905200071632862,-0.036364998668432236
1750743741606311400,10.5063115234375,-0.04120799899101257,-0.02299400046467781,-0.03384799882769585
1750743741615915500,10.51591552734375,-0.015207000076770782,0.013388000428676605,-0.016555000096559525
1750743741625519400,10.525519287109375,0.05953099951148033,-0.00076299998909235,0.015943000093102455
1750743741635123500,10.53512353515625,0.10121099650859833,-0.03616800159215927,0.02430099993944168
1750743741644727600,10.5447275390625,0.05322999879717827,-0.023127000778913498,0.015812000259757042
1750743741654331400,10.554331298828124,0.02887599915266037,0.03011699952185154,0.012800999917089939
1750743741663935500,10.563935546875,0.019697999581694603,0.03674599900841713,0.01959799975156784
1750743741673539300,10.573539306640624,-0.016479000449180603,0.0035910001024603844,0.00008800000068731606
1750743741683143400,10.583143310546875,-0.07118300348520279,-0.028044000267982483,0.029579000547528267
1750743741692747500,10.59274755859375,-0.04991700127720833,-0.027651000767946243,0.0214610006660223
1750743741702351000,10.60235107421875,-0.00927099958062172,0.02270600013434887,0.029469000175595284
1750743741711955200,10.611955078125,-0.002795000094920397,-0.0026469998992979527,0.005148999858647585
1750743741721559000,10.62155908203125,-0.02976199984550476,-0.023315999656915665,0.021656999364495277
1750743741731163100,10.6311630859375,-0.08027900010347366,-0.03016900084912777,0.023504000157117844
1750743741740767200,10.640767333984375,-0.10786300152540207,0.02090499922633171,0.00038400001358240843
1750743741750371000,10.65037109375,-0.04265400022268295,0.03448599949479103,-0.01065600011497736
1750743741759975000,10.659974853515624,-0.029865000396966934,-0.004017999861389399,0.004077000077813864
1750743741769578800,10.669578857421875,-0.03574699908494949,-0.016858000308275223,-0.0005109999910928309
1750743741779182800,10.679182861328124,-0.07292799651622772,-0.031849998980760574,-0.004470000043511391
1750743741788787000,10.688786865234375,-0.022328000515699387,-0.024165000766515732,-0.021635999903082848
1750743741798390800,10.698390869140624,-0.0011249999515712261,0.01079300045967102,-0.026530999690294266
1750743741807995000,10.707994873046875,0.024647999554872513,-0.00901199970394373,0.002902999985963106
1750743741817598700,10.7175986328125,0.04918599873781204,-0.019899999722838402,0.009947000071406364
1750743741827202800,10.727202880859375,0.1093209981918335,-0.008782999590039253,-0.015835000202059746
1750743741836806700,10.736806640625,0.11485199630260468,0.004081000108271837,-0.003963999915868044
1750743741846410500,10.746410400390625,0.03348800167441368,0.01217699982225895,0.016472000628709793
1750743741856014600,10.7560146484375,0.0321040004491806,0.014125999994575977,-0.021192999556660652
1750743741865618400,10.765618408203125,0.08679399639368057,-0.003510999958962202,-0.050227001309394836
1750743741875222500,10.775222412109375,0.14554999768733978,0.011002999730408192,-0.08501999825239182
1750743741884826400,10.784826416015624,0.1750580072402954,-0.009650000371038914,-0.08560000360012054
1750743741894430500,10.794430419921875,0.16080400347709656,0.0055610002018511295,-0.07450500130653381
1750743741904034300,10.804034423828124,0.27303099632263184,0.03572399914264679,-0.039726000279188156
1750743741913638400,10.813638427734375,0.35629698634147644,0.03986600041389465,-0.00008800000068731606
1750743741923242200,10.8232421875,0.4894869923591614,0.04211600124835968,0.07523799687623978
1750743741932846300,10.832846435546875,0.700950026512146,0.05738399922847748,0.13045500218868256
1750743741942450200,10.8424501953125,0.7733569741249084,0.039420001208782196,0.0769909992814064
1750743741952054500,10.852054443359375,0.690671980381012,0.00532200001180172,0.0404760017991066
1750743741961658400,10.861658447265626,0.5724279880523682,-0.09254399687051773,0.07305099815130234
1750743741971262200,10.87126220703125,1.825281023979187,-0.08929300308227539,0.45132601261138916
1750743741980866300,10.8808662109375,4.195027828216553,-0.21172699332237244,1.003525972366333
1750743741990470000,10.890469970703125,5.910247802734375,-0.4185650050640106,0.7012159824371338
1750743742000074200,10.90007421875,6.14768123626709,-0.5797079801559448,0.12376700341701508
1750743742009678000,10.909677978515624,4.608920097351074,-0.6652269959449768,-0.5542740225791931
1750743742019282000,10.919281982421875,2.3681089878082275,-0.6476439833641052,-0.7816020250320435
1750743742028886000,10.928885986328124,-0.0036979999858886003,-0.7293769717216492,-0.5801159739494324
1750743742038490000,10.938489990234375,-2.124617099761963,-0.7617499828338623,0.10792800039052963
1750743742048094000,10.948093994140624,-4.177053928375244,-0.6292589902877808,0.4884360134601593
1750743742057698000,10.957697998046875,-5.36099910736084,-0.3156209886074066,0.4492030143737793
1750743742067302000,10.967302001953126,-5.318085193634033,0.008805000223219395,0.20002800226211548
1750743742076906000,10.976906005859375,-4.741034030914307,0.472463995218277,0.00802600011229515
1750743742086510000,10.986510009765626,-4.052909851074219,0.8481829762458801,-0.182110995054245
1750743742096113700,10.99611376953125,-3.445220947265625,1.0536750555038452,-0.30862998962402344
1750743742105717800,11.0057177734375,-3.1863179206848145,0.993008017539978,-0.26868298649787903
1750743742115321900,11.01532177734375,-3.188683032989502,0.923416018486023,-0.17313799262046814
1750743742124925700,11.02492578125,-3.073678970336914,0.7106000185012817,-0.06173500046133995
1750743742134529500,11.034529541015624,-2.9493799209594727,0.42694199085235596,-0.023215999826788902
1750743742144133600,11.044133544921875,-2.621634006500244,0.22108399868011475,-0.04678000137209892
1750743742153737700,11.05373779296875,-2.045599937438965,0.1323689967393875,-0.10071899741888046
1750743742163341600,11.063341552734375,-1.501945972442627,0.10685499757528305,-0.22991999983787537
1750743742172945700,11.072945556640626,-1.149006962776184,0.03514900058507919,-0.3131760060787201
1750743742182549500,11.082549560546875,-1.1572480201721191,-0.08589500188827515,-0.2503640055656433
1750743742192153300,11.0921533203125,-1.3426059484481812,-0.16183899343013763,-0.12438900023698807
1750743742201757400,11.10175732421875,-1.2954009771347046,-0.16075800359249115,0.028842000290751457
1750743742211361300,11.111361328125,-0.977275013923645,-0.1250630021095276,0.16753999888896942
1750743742220965400,11.12096533203125,-0.20202000439167023,-0.08026699721813202,0.14946800470352173
1750743742230569200,11.1305693359375,0.9876530170440674,-0.05206799879670143,0.10991399735212326
1750743742240173300,11.14017333984375,2.1157379150390625,-0.10631199926137924,0.1842219978570938
1750743742249777200,11.149777099609375,2.8652329444885254,-0.18029199540615082,0.24851299822330475
1750743742259381000,11.159381103515624,3.1144819259643555,-0.24549999833106995,0.31041499972343445
1750743742268985000,11.168985107421875,3.0525100231170654,-0.2981730103492737,0.31921300292015076
1750743742278589200,11.178589111328124,2.735002040863037,-0.3247700035572052,0.3125320076942444
1750743742288193000,11.188193115234375,2.2339060306549072,-0.3561779856681824,0.25977298617362976
1750743742297796900,11.197796875,1.6900219917297363,-0.3694790005683899,0.17017300426959991
1750743742307401000,11.20740087890625,1.1943479776382446,-0.27826398611068726,0.05861299857497215
1750743742317005000,11.217005126953126,0.7338560223579407,-0.19654600322246552,-0.009975999593734741
1750743742326608600,11.226608642578125,0.49462199211120605,-0.14335599541664124,-0.027173999696969986
1750743742336212700,11.236212646484375,0.2594340145587921,-0.04332499951124191,0.01909399963915348
1750743742345816800,11.24581689453125,0.0894860029220581,0.04035700112581253,0.04015599936246872
1750743742355420700,11.255420654296875,-0.05314899981021881,0.10112199932336807,0.05041399970650673
1750743742365024800,11.265024658203124,-0.19910700619220734,0.13225799798965454,0.037262000143527985
1750743742374628900,11.27462890625,-0.333050012588501,0.12634100019931793,0.03832799941301346
1750743742384232700,11.284232666015624,-0.41094401478767395,0.1334560066461563,0.005685000214725733
1750743742393836800,11.2938369140625,-0.45257601141929626,0.16409200429916382,0.024025000631809235
1750743742403440600,11.303440673828124,-0.4048539996147156,0.17564399540424347,0.041985999792814255
1750743742413044700,11.313044677734375,-0.22148099541664124,0.10678599774837494,0.07163000106811523
1750743742422648600,11.322648681640626,-0.04130899906158447,0.0795539990067482,0.08300100266933441
1750743742432252400,11.33225244140625,0.021044999361038208,0.02538900077342987,0.10589800029993057
1750743742441856500,11.3418564453125,0.07861699908971786,0.06939899921417236,0.11208900064229965
1750743742451460400,11.35146044921875,0.10787200182676315,0.10084600001573563,0.044599998742341995
1750743742461064200,11.361064208984375,0.1273149996995926,0.06798599660396576,-0.03703700006008148
1750743742470668300,11.370668212890624,0.21708600223064423,0.039698000997304916,-0.04048199951648712
1750743742480272400,11.3802724609375,0.20129500329494476,0.016517000272870064,-0.05493500083684921
1750743742489876000,11.3898759765625,0.07818999886512756,0.032333001494407654,-0.056981999427080154
1750743742499480300,11.399480224609375,-0.05545800179243088,0.04977099969983101,-0.017768999561667442
1750743742509084200,11.409084228515624,-0.1270119994878769,0.06396400183439255,0.019478000700473785
1750743742518688000,11.41868798828125,-0.13411599397659302,0.06887999922037125,0.057089999318122864
1750743742528292000,11.4282919921875,-0.15098600089550018,0.05732399970293045,0.07044299691915512
1750743742537896200,11.437896240234375,-0.19155800342559814,0.04064600169658661,0.05293399840593338
1750743742547500000,11.4475,-0.12808600068092346,0.06656400114297867,0.03790200129151344
1750743742557104000,11.457104248046875,-0.05467800050973892,0.05711600184440613,0.05808499827980995
1750743742566708000,11.4667080078125,0.05083300173282623,-0.018671000376343727,0.046261001378297806
1750743742576312000,11.47631201171875,0.10470999777317047,-0.02067900076508522,0.005113000050187111
1750743742585915600,11.48591552734375,0.12227000296115875,-0.02928600087761879,-0.027884000912308693
1750743742595519700,11.495519775390624,0.14282800257205963,0.0043379999697208405,-0.01968800090253353
1750743742605123800,11.505123779296875,0.12806999683380127,-0.0035989999305456877,-0.023643000051379204
1750743742614727700,11.514727783203124,0.02600499987602234,-0.049306999891996384,-0.06005899980664253
1750743742624331800,11.524331787109375,0.004515000153332949,-0.006297000218182802,-0.03552300110459328
1750743742633936000,11.533935791015624,-0.011099000461399555,0.008805000223219395,0.011176000349223614
1750743742643539700,11.543539794921875,-0.038311999291181564,0.004217999987304211,0.023785000666975975
1750743742653143800,11.553143798828126,-0.055654000490903854,-0.007978999987244606,0.029075000435113907
1750743742662747600,11.56274755859375,-0.0912109985947609,0.02635199949145317,0.0234179999679327
1750743742672351700,11.572351806640626,-0.05283600091934204,0.022796999663114548,0.01840299926698208
1750743742681955600,11.58195556640625,-0.011807999573647976,-0.01837499998509884,0.011440999805927277
1750743742691559400,11.591559326171875,0.012063000351190567,-0.008693999610841274,0.02286599949002266
1750743742701163500,11.60116357421875,0.0278680007904768,0.0022690000478178263,0.016441000625491142
1750743742710767400,11.610767333984375,0.09638100117444992,0.03473600000143051,0.02857000008225441
1750743742720371500,11.620371337890624,0.1270579993724823,0.05933700129389763,0.03137199953198433
1750743742729975300,11.629975341796875,0.034028999507427216,0.01813500002026558,0.018358999863266945
1750743742739579400,11.639579345703124,-0.09570600092411041,-0.02298399992287159,0.012152000330388546
1750743742749183500,11.64918359375,-0.17795300483703613,0.0168210007250309,0.02435700036585331
1750743742758787300,11.658787353515624,-0.1700190007686615,0.07826700061559677,-0.022345999255776405
1750743742768391200,11.66839111328125,-0.03177500143647194,0.0985959991812706,-0.04003399983048439
1750743742777995300,11.677995361328126,0.010231999680399895,0.046431999653577805,-0.007216999772936106
1750743742787599000,11.68759912109375,-0.02798200026154518,-0.027914000675082207,0.041606999933719635
1750743742797203200,11.697203125,-0.05591600015759468,-0.0075079998932778835,0.016599999740719795
1750743742806807000,11.70680712890625,-0.031178999692201614,0.015287999995052814,-0.04892599955201149
