time,seconds_elapsed,z,y,x
1750743731162024000,0.06202392578125,0.006049999967217445,0.4068624973297119,-0.3156999945640564
1750743731171627800,0.071627685546875,-0.0013749999925494194,0.38733750581741333,-0.18507499992847443
1750743731181231600,0.081231689453125,-0.037950001657009125,0.33976250886917114,-0.11783749610185623
1750743731190835500,0.09083544921875,-0.0648999959230423,0.24447499215602875,-0.1190750002861023
1750743731200439300,0.100439208984375,-0.05623750016093254,0.10023749619722366,-0.172837495803833
1750743731210043400,0.11004345703125,-0.008662499487400055,-0.06104999780654907,-0.22536249458789825
1750743731219647200,0.119647216796875,0.06462500244379044,-0.1929125040769577,-0.22907499969005585
1750743731229251000,0.1292509765625,0.11838749796152115,-0.31267499923706055,-0.20707499980926514
1750743731238855200,0.138855224609375,0.14409999549388885,-0.44591251015663147,-0.20336249470710754
1750743731248459000,0.148458984375,0.1611499935388565,-0.547249972820282,-0.22288750112056732
1750743731258062800,0.158062744140625,0.18067499995231628,-0.6278250217437744,-0.2595999836921692
1750743731267667000,0.1676669921875,0.18067499995231628,-0.6705874800682068,-0.27541249990463257
1750743731277270800,0.177270751953125,0.17338749766349792,-0.6743000149726868,-0.2461249977350235
1750743731286875000,0.186875,0.16609999537467957,-0.6180624961853027,-0.19112500548362732
1750743731296478500,0.196478515625,0.15262499451637268,-0.5362499952316284,-0.1313125044107437
1750743731306082600,0.20608251953125,0.13433749973773956,-0.43367499113082886,-0.11178749799728394
1750743731315686700,0.215686767578125,0.12333749979734421,-0.2858625054359436,-0.14354999363422394
1750743731325290200,0.225290283203125,0.10615000128746033,-0.1428624987602234,-0.1825999915599823
1750743731334894000,0.23489404296875,0.09515000134706497,-0.01209999993443489,-0.2204124927520752
1750743731344498200,0.244498291015625,0.13557499647140503,-0.006049999967217445,-0.2521750032901764
1750743731354102000,0.25410205078125,0.1648624986410141,-0.12815000116825104,-0.255887508392334
1750743731363705900,0.263705810546875,0.1293874979019165,-0.45925000309944153,-0.1691250056028366
1750743731373310000,0.27331005859375,0.01952499896287918,-1.0029250383377075,0.06792499870061874
1750743731382913800,0.282913818359375,-0.0966624990105629,-1.3499749898910522,0.259737491607666
1750743731392518000,0.292517822265625,-0.14918750524520874,-1.5661250352859497,0.40988749265670776
1750743731402121500,0.30212158203125,-0.14300000667572021,-1.5943125486373901,0.5308874845504761
1750743731411725600,0.3117255859375,-0.13199999928474426,-1.4830750226974487,0.6078875064849854
1750743731421329400,0.321329345703125,-0.13695000112056732,-1.2460249662399292,0.6641250252723694
1750743731430933500,0.33093359375,-0.1344749927520752,-0.9283999800682068,0.6848874688148499
1750743731440537300,0.340537353515625,-0.13199999928474426,-0.6437749862670898,0.6641250252723694
1750743731450141200,0.35014111328125,-0.1381874978542328,-0.4409624934196472,0.6164125204086304
1750743731459745300,0.359745361328125,-0.1625249981880188,-0.28462499380111694,0.5406500101089478
1750743731469348900,0.369348876953125,-0.19552500545978546,-0.18562500178813934,0.44907498359680176
1750743731478953000,0.378952880859375,-0.19676250219345093,-0.13791249692440033,0.358599990606308
1750743731488557000,0.38855712890625,-0.19552500545978546,-0.07081250101327896,0.26083749532699585
1750743731498161000,0.398160888671875,-0.20528750121593475,0.008662499487400055,0.16431249678134918
1750743731507765000,0.407764892578125,-0.22495000064373016,0.10999999940395355,0.08249999582767487
1750743731517368600,0.41736865234375,-0.2554749846458435,0.28600001335144043,0.012924999929964542
1750743731526972700,0.42697265625,-0.3092375099658966,0.5181000232696533,-0.06655000150203705
1750743731536576500,0.436576416015625,-0.38733750581741333,0.7049624919891357,-0.1691250056028366
1750743731546180600,0.4461806640625,-0.44481250643730164,0.6769124865531921,-0.30236250162124634
1750743731555784400,0.455784423828125,-0.41304999589920044,0.32628750801086426,-0.4745124876499176
1750743731565388300,0.46538818359375,-0.22247499227523804,-0.08304999768733978,-0.5527499914169312
1750743731574992100,0.4749921875,0.004812499973922968,-0.24186250567436218,-0.38417500257492065
1750743731584596000,0.484595947265625,0.12815000116825104,-0.29067498445510864,-0.07507500052452087
1750743731594200000,0.494199951171875,0.14038750529289246,-0.2223374992609024,0.1522125005722046
1750743731603804000,0.503803955078125,0.09033749997615814,0.00013749999925494194,0.29631251096725464
1750743731613408000,0.513407958984375,0.0340999998152256,0.16005000472068787,0.3110249936580658
1750743731623011800,0.52301171875,-0.002474999986588955,0.19181250035762787,0.20473749935626984
1750743731632615700,0.53261572265625,-0.018424998968839645,0.1344749927520752,0.060499999672174454
1750743731642219500,0.542219482421875,-0.00989999994635582,0.0611874982714653,-0.050599999725818634
1750743731651823400,0.5518232421875,-0.00013749999925494194,0.02694999985396862,-0.11288750171661377
1750743731661427500,0.561427490234375,-0.00989999994635582,-0.01209999993443489,-0.14354999363422394
1750743731671031300,0.57103125,-0.02213750034570694,-0.007287499960511923,-0.16307500004768372
1750743731680635100,0.58063525390625,-0.03671250119805336,0.028187500312924385,-0.18136249482631683
1750743731690239000,0.590239013671875,-0.04647500067949295,0.06476250290870667,-0.18507499992847443
1750743731699843000,0.599843017578125,-0.035475000739097595,0.09171249717473984,-0.15565000474452972
1750743731709447000,0.609447021484375,-0.0147124994546175,0.10518749803304672,-0.09583749622106552
1750743731719050800,0.61905078125,-0.002474999986588955,0.10023749619722366,-0.031075000762939453
1750743731728654800,0.62865478515625,0.004812499973922968,0.08923749625682831,0.010449999943375587
1750743731738258700,0.6382587890625,0.01209999993443489,0.06476250290870667,0.03244999796152115
1750743731747862500,0.647862548828125,0.0170499999076128,0.01718750037252903,0.05692499876022339
1750743731757466600,0.657466552734375,0.02186249941587448,-0.0085249999538064,0.09102500230073929
1750743731767070500,0.667070556640625,0.028049999848008156,-0.00976249948143959,0.13144999742507935
1750743731776674600,0.676674560546875,0.045099999755620956,0.01223750039935112,0.15702499449253082
1750743731786278400,0.6862783203125,0.037812501192092896,0.020899999886751175,0.16802500188350677
1750743731795882200,0.69588232421875,0.02186249941587448,0.01347499992698431,0.15826250612735748
1750743731805486000,0.705486083984375,0.006049999967217445,0.018424998968839645,0.15578749775886536
1750743731815090200,0.715090087890625,-0.011137500405311584,0.025712499395012856,0.15950000286102295
1750743731824694300,0.7246943359375,-0.033137500286102295,0.028187500312924385,0.148499995470047
1750743731834297900,0.7342978515625,-0.050187498331069946,0.047712501138448715,0.10449999570846558
1750743731843902000,0.74390185546875,-0.0611874982714653,0.07342500239610672,0.04221250116825104
1750743731853505800,0.753505859375,-0.0672374963760376,0.07095000147819519,-0.007837500423192978
1750743731863110000,0.76310986328125,-0.0611874982714653,0.08318749815225601,-0.04702499881386757
1750743731872713700,0.772713623046875,-0.03918749839067459,0.08552499860525131,-0.08607500046491623
1750743731882317600,0.782317626953125,-0.0013749999925494194,0.06599999964237213,-0.11412499845027924
1750743731891921700,0.791921630859375,0.032862499356269836,0.057475000619888306,-0.13007499277591705
1750743731901525800,0.80152587890625,0.04138749837875366,0.02447500079870224,-0.15565000474452972
1750743731911129300,0.81112939453125,0.02928750030696392,0.002474999986588955,-0.17531250417232513
1750743731920733400,0.8207333984375,0.018287500366568565,0.030662499368190765,-0.1691250056028366
1750743731930337300,0.830337158203125,0.004812499973922968,0.037950001657009125,-0.1471250057220459
1750743731939941000,0.839941162109375,-0.008662499487400055,0.015949999913573265,-0.1190750002861023
1750743731949545000,0.849544921875,-0.011137500405311584,0.01223750039935112,-0.08483749628067017
1750743731959149000,0.859149169921875,-0.00989999994635582,0.01347499992698431,-0.038362499326467514
1750743731968753200,0.868753173828125,-0.002474999986588955,0.025712499395012856,0.016499999910593033
1750743731978356700,0.878356689453125,0.0035749999806284904,0.04895000159740448,0.07026249915361404
1750743731987960800,0.8879609375,-0.0013749999925494194,0.07466249912977219,0.09968750178813934
1750743731997564700,0.897564697265625,-0.012374999932944775,0.08923749625682831,0.10449999570846558
1750743732007168800,0.907168701171875,-0.02213750034570694,0.08318749815225601,0.09721250087022781
1750743732016772600,0.916772705078125,-0.01347499992698431,0.06847500056028366,0.10202500224113464
1750743732026376400,0.92637646484375,0.002337499987334013,0.05376249924302101,0.12044999748468399
1750743732035980500,0.93598046875,0.010862499475479126,0.059950001537799835,0.13750000298023224
1750743732045584400,0.94558447265625,0.007287499960511923,0.08442500233650208,0.13255000114440918
1750743732055188200,0.955188232421875,-0.007424999959766865,0.10271249711513519,0.10202500224113464
1750743732064792000,0.9647919921875,-0.01718750037252903,0.0929500013589859,0.08249999582767487
1750743732074396200,0.974396240234375,-0.00494999997317791,0.0929500013589859,0.09226249903440475
1750743732084000000,0.984,0.010862499475479126,0.028187500312924385,0.11178749799728394
1750743732093603800,0.993603759765625,0.015812499448657036,-0.05857500061392784,0.13144999742507935
1750743732103208000,1.0032080078125,0.004812499973922968,-0.09157499670982361,0.1424500048160553
1750743732112811800,1.012811767578125,-0.012374999932944775,-0.08428750187158585,0.13750000298023224
1750743732122415900,1.022415771484375,-0.023237500339746475,-0.0695749968290329,0.116737499833107
1750743732132019700,1.032019775390625,-0.028187500312924385,-0.09157499670982361,0.0812624990940094
1750743732141623600,1.04162353515625,-0.01966249942779541,-0.12581250071525574,0.048262499272823334
1750743732151227400,1.051227294921875,-0.012374999932944775,-0.16362500190734863,0.03616249933838844
1750743732160831500,1.06083154296875,-0.00494999997317791,-0.2003374993801117,0.022687500342726707
1750743732170435300,1.070435302734375,-0.006187499966472387,-0.20391249656677246,-0.015262499451637268
1750743732180039200,1.0800390625,-0.018424998968839645,-0.2601499855518341,-0.07136250287294388
1750743732189643300,1.089643310546875,-0.011137500405311584,-0.35791251063346863,-0.13255000114440918
1750743732199247000,1.0992470703125,-0.007424999959766865,-0.38843750953674316,-0.16664999723434448
1750743732208851200,1.108851318359375,-0.015949999913573265,-0.3236750066280365,-0.17531250417232513
1750743732218454800,1.118454833984375,-0.025712499395012856,-0.18562500178813934,-0.1508374959230423
1750743732228059000,1.128058837890625,-0.045237500220537186,-0.03904999792575836,-0.10807500034570694
1750743732237663000,1.1376630859375,-0.07590000331401825,0.06599999964237213,-0.058024998754262924
1750743732247266600,1.1472666015625,-0.10147500038146973,0.12223749607801437,-0.010312499478459358
1750743732256871000,1.156870849609375,-0.11123749613761902,0.1722874939441681,0.027499999850988388
1750743732266474500,1.166474609375,-0.10876250267028809,0.2652375102043152,0.05073750019073486
1750743732276078600,1.17607861328125,-0.10023749619722366,0.41304999589920044,0.025162499397993088
1750743732285682400,1.185682373046875,-0.10518749803304672,0.5486249923706055,-0.038362499326467514
1750743732295286300,1.195286376953125,-0.12952500581741333,0.64267498254776,-0.11055000126361847
1750743732304890400,1.204890380859375,-0.14918750524520874,0.6719624996185303,-0.16183750331401825
1750743732314494200,1.214494140625,-0.15152500569820404,0.64267498254776,-0.22165000438690186
1750743732324098300,1.224098388671875,-0.15523749589920044,0.5339124798774719,-0.3011249899864197
1750743732333702100,1.2337021484375,-0.13571250438690186,0.4716250002384186,-0.3694624900817871
1750743732343306000,1.243305908203125,-0.10147500038146973,0.48510000109672546,-0.382937490940094
1750743732352909800,1.252909912109375,-0.07947500050067902,0.4936249852180481,-0.3316499888896942
1750743732362514000,1.262513916015625,-0.06599999964237213,0.42157500982284546,-0.22536249458789825
1750743732372117800,1.27211767578125,-0.05142499879002571,0.2993375062942505,-0.08607500046491623
1750743732381721600,1.2817216796875,-0.028187500312924385,0.1722874939441681,0.058024998754262924
1750743732391325700,1.29132568359375,-0.007424999959766865,0.05623750016093254,0.17297500371932983
1750743732400929500,1.300929443359375,-0.00013749999925494194,-0.01209999993443489,0.22302499413490295
1750743732410533400,1.310533447265625,-0.0013749999925494194,-0.03162499889731407,0.20473749935626984
1750743732420137500,1.320137451171875,-0.0013749999925494194,-0.02681249938905239,0.1424500048160553
1750743732429741300,1.3297412109375,0.002337499987334013,-0.02681249938905239,0.06173750013113022
1750743732439345400,1.339345458984375,0.007287499960511923,-0.057337500154972076,-0.010312499478459358
1750743732448949000,1.348948974609375,0.015812499448657036,-0.1050499975681305,-0.05926249921321869
1750743732458553000,1.358552978515625,0.025575000792741776,-0.14781250059604645,-0.08483749628067017
1750743732468157000,1.368156982421875,0.0340999998152256,-0.1868624985218048,-0.09102500230073929
1750743732477761000,1.377760986328125,0.047575000673532486,-0.19786250591278076,-0.0873124971985817
1750743732487364900,1.38736474609375,0.05609999969601631,-0.18933749198913574,-0.07507500052452087
1750743732496968700,1.39696875,0.062150001525878906,-0.18562500178813934,-0.058024998754262924
1750743732506572800,1.40657275390625,0.07562500238418579,-0.17338749766349792,-0.045787498354911804
1750743732516176600,1.4161767578125,0.08786249905824661,-0.15991249680519104,-0.04207500070333481
1750743732525780700,1.42578076171875,0.09638749808073044,-0.14781250059604645,-0.04455000162124634
1750743732535384300,1.43538427734375,0.10615000128746033,-0.14891250431537628,-0.03231250122189522
1750743732544988400,1.444988525390625,0.10986249893903732,-0.1648624986410141,0.0031624999828636646
1750743732554592300,1.45459228515625,0.10491249710321426,-0.17215000092983246,0.04468749836087227
1750743732564196400,1.4641962890625,0.09033749997615814,-0.1746249943971634,0.07150000333786011
1750743732573800200,1.47380029296875,0.07204999774694443,-0.17215000092983246,0.08002500236034393
1750743732583404300,1.483404296875,0.05128749832510948,-0.15015000104904175,0.07768750190734863
1750743732593008000,1.493008056640625,0.03657500073313713,-0.10615000128746033,0.06668750196695328
1750743732602612000,1.502612060546875,0.02928750030696392,-0.07686249911785126,0.048262499272823334
1750743732612215800,1.5122158203125,0.032862499356269836,-0.08181250095367432,0.03849999979138374
1750743732621820000,1.52181982421875,0.04138749837875366,-0.1050499975681305,0.028737500309944153
1750743732631423700,1.531423828125,0.04633750021457672,-0.12333749979734421,0.015262499451637268
1750743732641027600,1.541027587890625,0.04633750021457672,-0.12086249887943268,-0.0005499999970197678
1750743732650631700,1.550631591796875,0.04386249929666519,-0.09404999762773514,-0.015262499451637268
1750743732660235500,1.560235595703125,0.04028749838471413,-0.057337500154972076,-0.023787500336766243
1750743732669839400,1.56983935546875,0.03657500073313713,-0.03162499889731407,-0.026262499392032623
1750743732679443500,1.579443359375,0.02928750030696392,-0.02681249938905239,-0.03231250122189522
1750743732689047600,1.589047607421875,0.0170499999076128,-0.035337500274181366,-0.045787498354911804
1750743732698651400,1.5986513671875,0.004812499973922968,-0.035337500274181366,-0.06531249731779099
1750743732708255500,1.60825537109375,-0.006187499966472387,-0.037812501192092896,-0.07012499868869781
1750743732717859000,1.617859130859375,-0.00989999994635582,-0.0340999998152256,-0.058024998754262924
1750743732727463200,1.627463134765625,-0.011137500405311584,-0.02928750030696392,-0.036024998873472214
1750743732737067000,1.63706689453125,-0.012374999932944775,-0.0170499999076128,-0.006599999964237213
1750743732746670800,1.6466708984375,-0.012374999932944775,-0.004812499973922968,0.027499999850988388
1750743732756275000,1.65627490234375,-0.01966249942779541,-0.00976249948143959,0.0471624992787838
1750743732765878800,1.665878662109375,-0.025712499395012856,-0.01952499896287918,0.04592499881982803
1750743732775483000,1.67548291015625,-0.030662499368190765,-0.023099999874830246,0.028737500309944153
1750743732785086500,1.68508642578125,-0.033137500286102295,-0.02433750033378601,0.0006874999962747097
1750743732794690600,1.694690673828125,-0.033137500286102295,-0.023099999874830246,-0.02736249938607216
1750743732804294400,1.70429443359375,-0.033137500286102295,-0.03162499889731407,-0.040837500244379044
1750743732813898500,1.7138984375,-0.033137500286102295,-0.02928750030696392,-0.031075000762939453
1750743732823502300,1.72350244140625,-0.03423750028014183,-0.015812499448657036,-0.007837500423192978
1750743732833106200,1.733106201171875,-0.033137500286102295,-0.006049999967217445,0.009212499484419823
1750743732842710300,1.742710205078125,-0.028187500312924385,-0.002337499987334013,0.018975000828504562
1750743732852314000,1.752314208984375,-0.025712499395012856,-0.014574999921023846,0.027499999850988388
1750743732861918000,1.76191796875,-0.033137500286102295,-0.03162499889731407,0.028737500309944153
1750743732871522300,1.771522216796875,-0.04166249930858612,-0.037812501192092896,0.016499999910593033
1750743732881126000,1.7811259765625,-0.045237500220537186,-0.03657500073313713,-0.007837500423192978
1750743732890730000,1.79072998046875,-0.045237500220537186,-0.02928750030696392,-0.02983750030398369
1750743732900333800,1.800333740234375,-0.04413750022649765,-0.013337500393390656,-0.03959999978542328
1750743732909938000,1.80993798828125,-0.037950001657009125,0.01347499992698431,-0.04936249926686287
1750743732919541800,1.819541748046875,-0.03671250119805336,0.035475000739097595,-0.060362499207258224
1750743732929145600,1.8291455078125,-0.04647500067949295,0.04895000159740448,-0.05926249921321869
1750743732938749400,1.83874951171875,-0.054999999701976776,0.04399999976158142,-0.04331250116229057
1750743732948353300,1.848353271484375,-0.05871250107884407,0.03671250119805336,-0.012787500396370888
1750743732957957600,1.85795751953125,-0.05623750016093254,0.037950001657009125,0.023924998939037323
1750743732967561200,1.867561279296875,-0.052662499248981476,0.03918749839067459,0.048262499272823334
1750743732977165300,1.877165283203125,-0.045237500220537186,0.03918749839067459,0.055687498301267624
1750743732986769200,1.88676904296875,-0.030662499368190765,0.035475000739097595,0.0494999997317791
1750743732996373000,1.896373046875,-0.01718750037252903,0.03189999982714653,0.03973750025033951
1750743733005977000,1.90597705078125,-0.0037124999798834324,0.025712499395012856,0.026262499392032623
1750743733015581000,1.915580810546875,0.0035749999806284904,0.01718750037252903,0.012924999929964542
1750743733025185000,1.92518505859375,0.009624999947845936,0.010999999940395355,0.0031624999828636646
1750743733034788600,1.93478857421875,0.01209999993443489,0.0037124999798834324,-0.005499999970197678
1750743733044392700,1.944392822265625,0.010862499475479126,-0.00976249948143959,-0.010312499478459358
1750743733053996500,1.95399658203125,0.0085249999538064,-0.02433750033378601,-0.007837500423192978
1750743733063600600,1.9636005859375,0.009624999947845936,-0.03657500073313713,0.0019249999895691872
1750743733073204700,1.973204833984375,0.010862499475479126,-0.030524998903274536,0.015262499451637268
1750743733082808600,1.98280859375,0.013337500393390656,-0.018287500366568565,0.023924998939037323
1750743733092412400,1.992412353515625,0.013337500393390656,-0.01209999993443489,0.023924998939037323
1750743733102016500,2.0020166015625,0.0085249999538064,-0.01209999993443489,0.012924999929964542
1750743733111620400,2.011620361328125,0.0035749999806284904,-0.015812499448657036,-0.006599999964237213
1750743733121224200,2.02122412109375,0.0010999999940395355,-0.01952499896287918,-0.023787500336766243
1750743733130828000,2.030828125,0.004812499973922968,-0.02433750033378601,-0.031075000762939453
1750743733140432100,2.04043212890625,0.0035749999806284904,-0.020762499421834946,-0.026262499392032623
1750743733150036000,2.050035888671875,0.002337499987334013,-0.018287500366568565,-0.016499999910593033
1750743733159640000,2.05964013671875,0.004812499973922968,-0.020762499421834946,-0.007837500423192978
1750743733169244000,2.069243896484375,0.004812499973922968,-0.01952499896287918,0.0006874999962747097
1750743733178847700,2.07884765625,0.0035749999806284904,-0.020762499421834946,0.009212499484419823
1750743733188451800,2.088451904296875,0.0035749999806284904,-0.020762499421834946,0.012924999929964542
1750743733198055400,2.098055419921875,0.004812499973922968,-0.02186249941587448,0.005499999970197678
1750743733207659800,2.10765966796875,0.006049999967217445,-0.01952499896287918,-0.0017874999903142452
1750743733217263600,2.117263671875,0.006049999967217445,-0.006049999967217445,0.0006874999962747097
1750743733226867500,2.126867431640625,0.0035749999806284904,-0.004812499973922968,0.010449999943375587
1750743733236471300,2.13647119140625,-0.0013749999925494194,-0.010862499475479126,0.011687500402331352
1750743733246075100,2.1460751953125,-0.0013749999925494194,-0.020762499421834946,0.007974999956786633
1750743733255679200,2.15567919921875,-0.0013749999925494194,-0.03162499889731407,0.011687500402331352
1750743733265283000,2.165282958984375,-0.0013749999925494194,-0.04881250113248825,0.021449999883770943
1750743733274887200,2.17488720703125,-0.0013749999925494194,-0.04881250113248825,0.031212499365210533
1750743733284491000,2.184490966796875,-0.0013749999925494194,-0.0340999998152256,0.03616249933838844
1750743733294094800,2.1940947265625,-0.0013749999925494194,-0.02186249941587448,0.031212499365210533
1750743733303699000,2.203698974609375,-0.002474999986588955,-0.013337500393390656,0.016499999910593033
1750743733313302800,2.213302734375,-0.006187499966472387,0.0012374999932944775,-0.0017874999903142452
1750743733322906600,2.22290673828125,-0.008662499487400055,0.00013749999925494194,-0.011549999937415123
1750743733332510700,2.2325107421875,-0.00494999997317791,-0.00976249948143959,-0.0017874999903142452
1750743733342114800,2.24211474609375,-0.00013749999925494194,-0.018287500366568565,0.020212499424815178
1750743733351718700,2.25171875,0.0035749999806284904,-0.025575000792741776,0.03492499887943268
1750743733361322500,2.261322509765625,0.006049999967217445,-0.023099999874830246,0.03973750025033951
1750743733370926600,2.270926513671875,0.007287499960511923,-0.01209999993443489,0.03973750025033951
1750743733380530200,2.2805302734375,0.0035749999806284904,-0.00976249948143959,0.03726249933242798
1750743733390134300,2.29013427734375,0.0035749999806284904,-0.004812499973922968,0.031212499365210533
1750743733399738000,2.299738037109375,0.004812499973922968,0.006187499966472387,0.022687500342726707
1750743733409342200,2.30934228515625,0.007287499960511923,0.00989999994635582,0.004399999976158142
1750743733418946000,2.318946044921875,0.004812499973922968,0.00013749999925494194,-0.012787500396370888
1750743733428550000,2.3285498046875,0.0010999999940395355,-0.01209999993443489,-0.014024999924004078
1750743733438154000,2.338154052734375,-0.0037124999798834324,-0.02186249941587448,-0.0017874999903142452
1750743733447757800,2.3477578125,-0.007424999959766865,-0.02186249941587448,0.012924999929964542
1750743733457362000,2.35736181640625,-0.011137500405311584,-0.01209999993443489,0.016499999910593033
1750743733466965800,2.3669658203125,-0.012374999932944775,0.002474999986588955,0.010449999943375587
1750743733476569600,2.376569580078125,-0.00989999994635582,0.010999999940395355,-0.0017874999903142452
1750743733486173700,2.386173583984375,-0.006187499966472387,0.01223750039935112,-0.009074999950826168
1750743733495777500,2.395777587890625,-0.002474999986588955,0.006187499966472387,-0.005499999970197678
1750743733505381400,2.40538134765625,-0.0013749999925494194,0.007424999959766865,0.0031624999828636646
1750743733514985500,2.4149853515625,-0.002474999986588955,0.008662499487400055,0.0031624999828636646
1750743733524589300,2.42458935546875,-0.0013749999925494194,0.006187499966472387,0.0006874999962747097
1750743733534193400,2.434193359375,-0.0037124999798834324,0.008662499487400055,0.004399999976158142
1750743733543797200,2.44379736328125,-0.00494999997317791,0.008662499487400055,0.017737500369548798
1750743733553401000,2.453401123046875,-0.006187499966472387,0.008662499487400055,0.021449999883770943
1750743733563005200,2.463005126953125,-0.00494999997317791,0.007424999959766865,0.007974999956786633
1750743733572609000,2.472609130859375,-0.00494999997317791,0.00494999997317791,-0.007837500423192978
1750743733582212900,2.482212890625,-0.0013749999925494194,-0.004812499973922968,-0.011549999937415123
1750743733591817000,2.49181689453125,0.002337499987334013,-0.010862499475479126,-0.007837500423192978
1750743733601421000,2.501421142578125,0.004812499973922968,-0.00976249948143959,-0.0030249999836087227
1750743733611024600,2.511024658203125,0.0010999999940395355,-0.007287499960511923,0.0006874999962747097
1750743733620628700,2.520628662109375,-0.0013749999925494194,-0.002337499987334013,0.0031624999828636646
1750743733630232600,2.530232666015625,-0.0013749999925494194,0.002474999986588955,0.0006874999962747097
1750743733639836400,2.53983642578125,-0.00013749999925494194,0.00494999997317791,-0.007837500423192978
1750743733649440500,2.5494404296875,-0.0013749999925494194,0.00494999997317791,-0.018837500363588333
1750743733659044400,2.55904443359375,-0.0013749999925494194,0.0012374999932944775,-0.02502499893307686
1750743733668648200,2.568648193359375,-0.002474999986588955,0.00013749999925494194,-0.028599999845027924
1750743733678252000,2.578251953125,-0.006187499966472387,-0.0035749999806284904,-0.02736249938607216
1750743733687856400,2.5878564453125,-0.007424999959766865,-0.006049999967217445,-0.022549999877810478
1750743733697460000,2.5974599609375,-0.00989999994635582,-0.004812499973922968,-0.014024999924004078
1750743733707064000,2.60706396484375,-0.007424999959766865,-0.006049999967217445,-0.007837500423192978
1750743733716668000,2.61666796875,-0.0013749999925494194,-0.006049999967217445,-0.007837500423192978
1750743733726272000,2.62627197265625,-0.00013749999925494194,-0.007287499960511923,-0.009074999950826168
1750743733735875800,2.635875732421875,-0.002474999986588955,-0.007287499960511923,-0.007837500423192978
1750743733745479700,2.645479736328125,-0.002474999986588955,0.002474999986588955,-0.007837500423192978
1750743733755083800,2.655083740234375,-0.0037124999798834324,0.008662499487400055,-0.012787500396370888
1750743733764687600,2.6646875,-0.0037124999798834324,0.007424999959766865,-0.023787500336766243
1750743733774291500,2.67429150390625,-0.00494999997317791,0.006187499966472387,-0.03355000168085098
1750743733783895600,2.6838955078125,-0.006187499966472387,0.002474999986588955,-0.03478749841451645
1750743733793499400,2.69349951171875,-0.00989999994635582,-0.004812499973922968,-0.02736249938607216
1750743733803103500,2.703103515625,-0.011137500405311584,-0.0035749999806284904,-0.01759999990463257
1750743733812707300,2.712707275390625,-0.00989999994635582,-0.004812499973922968,-0.014024999924004078
1750743733822311200,2.722311279296875,-0.006187499966472387,-0.006049999967217445,-0.009074999950826168
1750743733831915300,2.731915283203125,-0.0037124999798834324,0.0012374999932944775,0.0006874999962747097
1750743733841519000,2.74151904296875,-0.002474999986588955,0.00989999994635582,0.0019249999895691872
1750743733851123200,2.751123291015625,-0.00494999997317791,0.008662499487400055,-0.007837500423192978
1750743733860726800,2.760726806640625,-0.007424999959766865,0.002474999986588955,-0.018837500363588333
1750743733870331000,2.770330810546875,-0.007424999959766865,-0.002337499987334013,-0.026262499392032623
1750743733879935000,2.77993505859375,-0.007424999959766865,-0.007287499960511923,-0.031075000762939453
1750743733889538800,2.789538818359375,-0.008662499487400055,-0.00976249948143959,-0.03355000168085098
1750743733899143000,2.799142822265625,-0.00494999997317791,-0.01209999993443489,-0.028599999845027924
1750743733908746800,2.808746826171875,-0.0013749999925494194,-0.010862499475479126,-0.016499999910593033
1750743733918350600,2.8183505859375,0.002337499987334013,-0.004812499973922968,-0.0005499999970197678
1750743733927954400,2.827954345703125,0.0010999999940395355,0.00013749999925494194,0.014162499457597733
1750743733937558500,2.83755859375,-0.00013749999925494194,0.0037124999798834324,0.018975000828504562
1750743733947162600,2.84716259765625,-0.00013749999925494194,-0.0010999999940395355,0.014162499457597733
1750743733956766500,2.856766357421875,0.002337499987334013,-0.004812499973922968,0.006737499963492155
1750743733966370300,2.866370361328125,-0.0013749999925494194,-0.007287499960511923,0.007974999956786633
1750743733975974100,2.87597412109375,-0.0037124999798834324,-0.007287499960511923,0.010449999943375587
1750743733985578200,2.885578125,-0.006187499966472387,-0.007287499960511923,0.005499999970197678
1750743733995182000,2.89518212890625,-0.007424999959766865,-0.004812499973922968,-0.005499999970197678
1750743734004786000,2.904785888671875,-0.007424999959766865,-0.0035749999806284904,-0.015262499451637268
1750743734014390000,2.91439013671875,-0.007424999959766865,-0.002337499987334013,-0.020075000822544098
1750743734023994000,2.923994140625,-0.006187499966472387,0.002474999986588955,-0.016499999910593033
1750743734033598000,2.933597900390625,-0.007424999959766865,0.006187499966472387,-0.009074999950826168
1750743734043201800,2.943201904296875,-0.008662499487400055,0.006187499966472387,-0.010312499478459358
1750743734052805600,2.9528056640625,-0.006187499966472387,0.007424999959766865,-0.011549999937415123
1750743734062409700,2.96240966796875,-0.0037124999798834324,0.006187499966472387,-0.0005499999970197678
1750743734072013600,2.972013671875,-0.0037124999798834324,0.002474999986588955,0.016499999910593033
1750743734081617700,2.98161767578125,-0.006187499966472387,0.002474999986588955,0.023924998939037323
1750743734091221800,2.9912216796875,-0.0037124999798834324,-0.0010999999940395355,0.014162499457597733
1750743734100825300,3.000825439453125,0.0010999999940395355,-0.002337499987334013,0.007974999956786633
1750743734110429400,3.010429443359375,0.004812499973922968,-0.0035749999806284904,0.005499999970197678
1750743734120033300,3.020033203125,0.0035749999806284904,-0.004812499973922968,0.006737499963492155
1750743734129637400,3.029637451171875,-0.0013749999925494194,-0.0085249999538064,0.009212499484419823
1750743734139241200,3.0392412109375,-0.006187499966472387,-0.004812499973922968,0.015262499451637268
1750743734148845000,3.048844970703125,-0.007424999959766865,-0.002337499987334013,0.014162499457597733
1750743734158449200,3.05844921875,-0.007424999959766865,-0.0010999999940395355,0.005499999970197678
1750743734168053000,3.068052978515625,-0.00494999997317791,0.00013749999925494194,-0.0042624999769032
1750743734177657000,3.077656982421875,-0.002474999986588955,0.0012374999932944775,-0.005499999970197678
1750743734187261200,3.08726123046875,-0.0037124999798834324,-0.0035749999806284904,0.004399999976158142
1750743734196864800,3.09686474609375,-0.0037124999798834324,-0.006049999967217445,0.006737499963492155
1750743734206468900,3.10646875,-0.0037124999798834324,-0.004812499973922968,-0.0017874999903142452
1750743734216072700,3.11607275390625,-0.0037124999798834324,0.002474999986588955,-0.006599999964237213
1750743734225676800,3.1256767578125,-0.002474999986588955,0.0037124999798834324,0.0019249999895691872
1750743734235280600,3.13528076171875,-0.002474999986588955,0.00494999997317791,0.007974999956786633
1750743734244884500,3.144884521484375,-0.002474999986588955,0.007424999959766865,0.0019249999895691872
1750743734254488300,3.15448828125,-0.002474999986588955,0.006187499966472387,-0.007837500423192978
1750743734264092400,3.164092529296875,-0.002474999986588955,0.0012374999932944775,-0.007837500423192978
1750743734273696500,3.173696533203125,-0.002474999986588955,-0.0035749999806284904,0.0031624999828636646
1750743734283300400,3.18330029296875,-0.0037124999798834324,-0.0085249999538064,0.011687500402331352
1750743734292904200,3.192904296875,-0.002474999986588955,-0.00976249948143959,0.017737500369548798
1750743734302508300,3.20250830078125,-0.002474999986588955,-0.004812499973922968,0.014162499457597733
1750743734312112000,3.212112060546875,-0.00013749999925494194,-0.007287499960511923,0.005499999970197678
1750743734321716000,3.221716064453125,-0.002474999986588955,-0.007287499960511923,0.009212499484419823
1750743734331320000,3.231320068359375,-0.0037124999798834324,0.00013749999925494194,0.025162499397993088
1750743734340924000,3.240923828125,-0.002474999986588955,0.006187499966472387,0.029975000768899918
1750743734350527700,3.25052783203125,-0.0013749999925494194,0.00494999997317791,0.015262499451637268
1750743734360131600,3.260131591796875,0.0010999999940395355,0.00494999997317791,0.004399999976158142
1750743734369735700,3.269735595703125,0.002337499987334013,0.0012374999932944775,0.004399999976158142
1750743734379339500,3.279339599609375,0.004812499973922968,-0.007287499960511923,0.005499999970197678
1750743734388943600,3.288943603515625,0.002337499987334013,-0.01209999993443489,0.0031624999828636646
1750743734398547500,3.29854736328125,-0.00013749999925494194,-0.014574999921023846,-0.006599999964237213
1750743734408151600,3.308151611328125,-0.00013749999925494194,-0.007287499960511923,-0.018837500363588333
1750743734417755100,3.317755126953125,-0.00013749999925494194,-0.002337499987334013,-0.018837500363588333
1750743734427359200,3.327359130859375,-0.00013749999925494194,0.00013749999925494194,-0.005499999970197678
1750743734436963300,3.33696337890625,-0.002474999986588955,0.002474999986588955,0.009212499484419823
1750743734446567200,3.346567138671875,-0.00494999997317791,0.0012374999932944775,0.010449999943375587
1750743734456171000,3.3561708984375,-0.006187499966472387,-0.006049999967217445,0.006737499963492155
1750743734465775000,3.365775146484375,-0.00494999997317791,-0.0085249999538064,0.012924999929964542
1750743734475379000,3.37537890625,-0.0037124999798834324,-0.007287499960511923,0.029975000768899918
1750743734484982800,3.384982666015625,-0.00494999997317791,-0.0085249999538064,0.043449997901916504
1750743734494587000,3.3945869140625,-0.006187499966472387,-0.006049999967217445,0.03244999796152115
1750743734504190700,3.404190673828125,-0.00494999997317791,0.0012374999932944775,-0.0030249999836087227
1750743734513794600,3.413794677734375,-0.0013749999925494194,0.00013749999925494194,-0.01759999990463257
1750743734523398700,3.423398681640625,-0.002474999986588955,-0.0085249999538064,0.020212499424815178
1750743734533002500,3.43300244140625,-0.0037124999798834324,-0.01209999993443489,0.060499999672174454
1750743734542606600,3.442606689453125,-0.00494999997317791,-0.00976249948143959,0.0494999997317791
1750743734552210400,3.45221044921875,-0.002474999986588955,-0.00976249948143959,-0.0017874999903142452
1750743734561814300,3.461814208984375,0.0010999999940395355,-0.004812499973922968,-0.040837500244379044
1750743734571418400,3.47141845703125,0.0010999999940395355,-0.0035749999806284904,-0.02983750030398369
1750743734581022200,3.481022216796875,-0.00013749999925494194,-0.004812499973922968,0.010449999943375587
1750743734590626000,3.4906259765625,-0.002474999986588955,-0.0035749999806284904,0.027499999850988388
1750743734600230100,3.500230224609375,-0.0013749999925494194,-0.002337499987334013,0.012924999929964542
1750743734609834000,3.509833984375,0.0010999999940395355,0.0012374999932944775,-0.0005499999970197678
1750743734619437800,3.519437744140625,0.0035749999806284904,0.00013749999925494194,0.0006874999962747097
1750743734629042000,3.5290419921875,0.002337499987334013,0.00013749999925494194,0.016499999910593033
1750743734638646000,3.53864599609375,-0.00013749999925494194,0.00013749999925494194,0.03244999796152115
1750743734648249600,3.54824951171875,-0.002474999986588955,0.00013749999925494194,0.023924998939037323
1750743734657853700,3.557853759765625,-0.0037124999798834324,0.0012374999932944775,-0.007837500423192978
1750743734667457500,3.56745751953125,-0.0037124999798834324,0.00013749999925494194,-0.02983750030398369
1750743734677061600,3.5770615234375,-0.0037124999798834324,-0.0035749999806284904,-0.018837500363588333
1750743734686665500,3.58666552734375,-0.006187499966472387,-0.002337499987334013,0.007974999956786633
1750743734696269300,3.596269287109375,-0.008662499487400055,0.002474999986588955,0.018975000828504562
1750743734705873400,3.605873291015625,-0.008662499487400055,0.002474999986588955,0.007974999956786633
1750743734715477200,3.615477294921875,-0.00494999997317791,0.002474999986588955,-0.0005499999970197678
1750743734725081300,3.625081298828125,-0.0013749999925494194,0.0012374999932944775,0.006737499963492155
1750743734734685200,3.634685302734375,0.002337499987334013,0.0012374999932944775,0.021449999883770943
1750743734744289000,3.6442890625,0.0010999999940395355,-0.002337499987334013,0.022687500342726707
1750743734753893000,3.65389306640625,-0.002474999986588955,-0.007287499960511923,0.005499999970197678
1750743734763497000,3.6634970703125,-0.002474999986588955,-0.0085249999538064,-0.016499999910593033
1750743734773101000,3.67310107421875,-0.00013749999925494194,-0.004812499973922968,-0.02736249938607216
1750743734782705000,3.682704833984375,-0.00013749999925494194,-0.007287499960511923,-0.016499999910593033
1750743734792309000,3.69230908203125,-0.0037124999798834324,-0.007287499960511923,0.004399999976158142
1750743734801912800,3.701912841796875,-0.00494999997317791,-0.006049999967217445,0.010449999943375587
1750743734811516700,3.7115166015625,-0.00494999997317791,-0.006049999967217445,-0.0030249999836087227
1750743734821120800,3.721120849609375,0.0010999999940395355,-0.002337499987334013,-0.012787500396370888
1750743734830724600,3.730724609375,0.0035749999806284904,-0.0035749999806284904,-0.0042624999769032
1750743734840328400,3.740328369140625,0.002337499987334013,0.0012374999932944775,0.006737499963492155
1750743734849932500,3.7499326171875,-0.0013749999925494194,0.0037124999798834324,0.004399999976158142
1750743734859536400,3.759536376953125,-0.0013749999925494194,-0.002337499987334013,-0.0017874999903142452
1750743734869140500,3.769140380859375,-0.0013749999925494194,-0.006049999967217445,0.0006874999962747097
1750743734878744300,3.778744384765625,-0.00013749999925494194,-0.002337499987334013,0.0031624999828636646
1750743734888348400,3.788348388671875,0.0010999999940395355,0.0012374999932944775,-0.0005499999970197678
1750743734897952300,3.7979521484375,0.0010999999940395355,0.002474999986588955,-0.0005499999970197678
1750743734907556000,3.80755615234375,0.002337499987334013,0.002474999986588955,0.004399999976158142
1750743734917160000,3.817159912109375,0.002337499987334013,0.002474999986588955,0.0031624999828636646
1750743734926764000,3.826763916015625,0.0010999999940395355,0.006187499966472387,-0.0005499999970197678
1750743734936367900,3.836367919921875,-0.00013749999925494194,0.007424999959766865,-0.0042624999769032
1750743734945971700,3.8459716796875,-0.00013749999925494194,0.007424999959766865,-0.0030249999836087227
1750743734955575800,3.855575927734375,-0.00013749999925494194,0.0012374999932944775,-0.0017874999903142452
1750743734965179600,3.8651796875,-0.0013749999925494194,-0.006049999967217445,-0.0042624999769032
1750743734974783700,3.87478369140625,0.002337499987334013,-0.004812499973922968,-0.009074999950826168
1750743734984387600,3.8843876953125,0.0010999999940395355,-0.0010999999940395355,-0.009074999950826168
1750743734993991400,3.893991455078125,0.002337499987334013,0.00494999997317791,-0.0030249999836087227
1750743735003595500,3.903595458984375,0.0010999999940395355,0.0037124999798834324,0.006737499963492155
1750743735013199400,3.913199462890625,0.0010999999940395355,-0.004812499973922968,0.007974999956786633
1750743735022803500,3.922803466796875,0.002337499987334013,-0.01209999993443489,0.005499999970197678
1750743735032407600,3.932407470703125,0.0010999999940395355,-0.0170499999076128,0.004399999976158142
1750743735042011100,3.94201123046875,-0.00013749999925494194,-0.010862499475479126,0.009212499484419823
1750743735051615200,3.951615234375,-0.0013749999925494194,-0.004812499973922968,0.011687500402331352
1750743735061219000,3.961218994140625,-0.0013749999925494194,0.0012374999932944775,0.011687500402331352
1750743735070823200,3.9708232421875,-0.002474999986588955,0.0037124999798834324,0.009212499484419823
1750743735080427000,3.980427001953125,-0.0037124999798834324,0.002474999986588955,0.0006874999962747097
1750743735090030800,3.99003076171875,-0.0037124999798834324,0.002474999986588955,-0.009074999950826168
1750743735099635000,3.999635009765625,-0.0013749999925494194,0.002474999986588955,-0.014024999924004078
1750743735109238800,4.00923876953125,-0.0013749999925494194,0.0012374999932944775,-0.012787500396370888
1750743735118843000,4.0188427734375,0.002337499987334013,-0.002337499987334013,-0.010312499478459358
1750743735128446700,4.02844677734375,0.002337499987334013,0.00013749999925494194,-0.010312499478459358
1750743735138050800,4.03805078125,0.002337499987334013,0.0037124999798834324,-0.009074999950826168
1750743735147654700,4.047654541015625,-0.00013749999925494194,0.00013749999925494194,-0.0042624999769032
1750743735157258500,4.057258544921875,-0.00013749999925494194,-0.006049999967217445,0.006737499963492155
1750743735166862300,4.0668623046875,-0.002474999986588955,-0.004812499973922968,0.012924999929964542
1750743735176466400,4.076466552734375,-0.00494999997317791,-0.007287499960511923,0.006737499963492155
1750743735186070300,4.0860703125,-0.0037124999798834324,-0.00976249948143959,-0.0030249999836087227
1750743735195674000,4.095674072265625,-0.00494999997317791,-0.006049999967217445,-0.006599999964237213
1750743735205278200,4.1052783203125,-0.00494999997317791,-0.0010999999940395355,-0.005499999970197678
1750743735214882300,4.11488232421875,-0.002474999986588955,0.0012374999932944775,-0.0030249999836087227
1750743735224486100,4.124486083984375,-0.0013749999925494194,0.00989999994635582,-0.0042624999769032
1750743735234090200,4.13409033203125,0.0010999999940395355,0.01223750039935112,-0.005499999970197678
1750743735243693800,4.14369384765625,0.002337499987334013,0.007424999959766865,-0.0017874999903142452
1750743735253298000,4.1532978515625,0.002337499987334013,0.0012374999932944775,0.006737499963492155
1750743735262902000,4.162902099609375,0.0010999999940395355,-0.002337499987334013,0.011687500402331352
1750743735272505900,4.172505859375,-0.00013749999925494194,-0.0010999999940395355,0.009212499484419823
1750743735282109700,4.182109619140625,-0.0013749999925494194,0.0012374999932944775,0.004399999976158142
1750743735291713500,4.191713623046875,-0.0037124999798834324,-0.002337499987334013,-0.0005499999970197678
1750743735301317600,4.201317626953125,-0.0037124999798834324,-0.0010999999940395355,-0.0005499999970197678
1750743735310921500,4.21092138671875,-0.002474999986588955,0.00013749999925494194,0.0006874999962747097
1750743735320525600,4.220525634765625,-0.002474999986588955,-0.0010999999940395355,-0.0017874999903142452
1750743735330129400,4.23012939453125,-0.002474999986588955,-0.0010999999940395355,-0.009074999950826168
1750743735339733200,4.239733154296875,0.0010999999940395355,0.0012374999932944775,-0.011549999937415123
1750743735349337300,4.24933740234375,0.002337499987334013,-0.0010999999940395355,-0.0030249999836087227
1750743735358941200,4.258941162109375,-0.00013749999925494194,-0.0085249999538064,0.005499999970197678
1750743735368545300,4.268545166015625,-0.0013749999925494194,-0.0035749999806284904,0.0019249999895691872
1750743735378149000,4.278149169921875,-0.002474999986588955,0.0037124999798834324,-0.010312499478459358
1750743735387753200,4.287753173828125,-0.0013749999925494194,0.007424999959766865,-0.012787500396370888
1750743735397357000,4.297357177734375,-0.0013749999925494194,0.008662499487400055,-0.0030249999836087227
1750743735406961000,4.3069609375,-0.002474999986588955,0.0012374999932944775,0.004399999976158142
1750743735416564700,4.316564697265625,-0.006187499966472387,-0.002337499987334013,0.0031624999828636646
1750743735426169000,4.326169189453125,-0.006187499966472387,-0.0010999999940395355,0.0006874999962747097
1750743735435772700,4.335772705078125,-0.0037124999798834324,-0.006049999967217445,0.0006874999962747097
1750743735445376800,4.345376708984375,-0.0037124999798834324,-0.010862499475479126,-0.0005499999970197678
1750743735454980900,4.35498095703125,-0.002474999986588955,-0.007287499960511923,0.0006874999962747097
1750743735464584700,4.364584716796875,-0.00013749999925494194,-0.0010999999940395355,0.0019249999895691872
1750743735474188500,4.3741884765625,0.0010999999940395355,0.00494999997317791,0.004399999976158142
1750743735483792400,4.38379248046875,0.0010999999940395355,0.00494999997317791,0.0006874999962747097
1750743735493396500,4.393396484375,0.002337499987334013,0.0012374999932944775,-0.005499999970197678
1750743735503000600,4.40300048828125,0.002337499987334013,-0.004812499973922968,-0.006599999964237213
1750743735512604400,4.4126044921875,0.0010999999940395355,-0.0010999999940395355,-0.0017874999903142452
1750743735522208300,4.422208251953125,-0.00013749999925494194,0.002474999986588955,-0.0005499999970197678
1750743735531812000,4.43181201171875,-0.00013749999925494194,0.0012374999932944775,-0.0042624999769032
1750743735541416200,4.441416259765625,0.0010999999940395355,-0.0035749999806284904,-0.010312499478459358
1750743735551020000,4.45102001953125,0.0035749999806284904,-0.004812499973922968,-0.011549999937415123
1750743735560624000,4.4606240234375,0.004812499973922968,-0.0010999999940395355,-0.011549999937415123
1750743735570228000,4.47022802734375,-0.00013749999925494194,-0.0035749999806284904,-0.006599999964237213
1750743735579831800,4.479831787109375,-0.0037124999798834324,-0.0035749999806284904,-0.0042624999769032
1750743735589436000,4.489435791015625,-0.008662499487400055,-0.0010999999940395355,-0.005499999970197678
1750743735599039700,4.499039794921875,-0.008662499487400055,-0.0010999999940395355,-0.005499999970197678
1750743735608643800,4.508643798828125,-0.008662499487400055,-0.0010999999940395355,-0.0042624999769032
1750743735618247700,4.51824755859375,-0.006187499966472387,0.00013749999925494194,-0.0030249999836087227
1750743735627851500,4.5278515625,-0.0037124999798834324,0.002474999986588955,-0.005499999970197678
1750743735637456000,4.537455810546875,-0.0013749999925494194,0.0012374999932944775,-0.009074999950826168
1750743735647059500,4.5470595703125,0.0010999999940395355,-0.0010999999940395355,-0.010312499478459358
1750743735656663600,4.55666357421875,0.002337499987334013,-0.002337499987334013,-0.014024999924004078
1750743735666267400,4.566267333984375,0.0035749999806284904,-0.004812499973922968,-0.014024999924004078
1750743735675871500,4.57587158203125,0.0010999999940395355,0.00013749999925494194,-0.007837500423192978
1750743735685475300,4.585475341796875,-0.002474999986588955,0.007424999959766865,-0.006599999964237213
1750743735695079200,4.5950791015625,-0.00494999997317791,0.010999999940395355,-0.012787500396370888
1750743735704683000,4.60468310546875,-0.006187499966472387,0.00989999994635582,-0.021312499418854713
1750743735714287000,4.614287109375,-0.006187499966472387,0.00494999997317791,-0.023787500336766243
1750743735723891000,4.623890869140625,-0.007424999959766865,0.00013749999925494194,-0.016499999910593033
1750743735733494800,4.633494873046875,-0.007424999959766865,0.00013749999925494194,-0.005499999970197678
1750743735743099000,4.643098876953125,-0.006187499966472387,0.0012374999932944775,-0.0005499999970197678
1750743735752703000,4.652702880859375,-0.00494999997317791,0.002474999986588955,-0.009074999950826168
1750743735762306800,4.662306884765625,-0.007424999959766865,0.002474999986588955,-0.018837500363588333
1750743735771911000,4.671910888671875,-0.008662499487400055,0.007424999959766865,-0.026262499392032623
1750743735781514500,4.681514404296875,-0.011137500405311584,0.010999999940395355,-0.02983750030398369
1750743735791118600,4.69111865234375,-0.011137500405311584,0.00989999994635582,-0.036024998873472214
1750743735800722400,4.700722412109375,-0.011137500405311584,0.00013749999925494194,-0.04207500070333481
1750743735810326500,4.710326416015625,-0.012374999932944775,0.00013749999925494194,-0.04702499881386757
1750743735819930400,4.719930419921875,-0.012374999932944775,0.0012374999932944775,-0.050599999725818634
1750743735829534200,4.7295341796875,-0.018424998968839645,-0.0010999999940395355,-0.04936249926686287
1750743735848742100,4.7487421875,-0.02447500079870224,0.03189999982714653,-0.006599999964237213
1750743735858346200,4.75834619140625,-0.025712499395012856,0.030662499368190765,0.025162499397993088
1750743735867950000,4.7679501953125,-0.029424998909235,0.05623750016093254,0.08249999582767487
1750743735877554000,4.777553955078125,-0.035475000739097595,0.08923749625682831,0.19126249849796295
1750743735887158000,4.787157958984375,-0.0648999959230423,0.11976250261068344,0.3623124957084656
1750743735896761900,4.796761962890625,-0.09171249717473984,0.1405249983072281,0.7067499756813049
1750743735906366000,4.806365966796875,-0.10876250267028809,0.05142499879002571,1.2516624927520752
1750743735915969800,4.8159697265625,-0.12099999934434891,-0.01209999993443489,1.8576250076293945
1750743735925573600,4.82557373046875,-0.11618749797344208,-0.10381250083446503,2.334199905395508
1750743735935177700,4.835177734375,-0.10147500038146973,-0.22343750298023224,2.6078250408172607
1750743735944781600,4.844781494140625,-0.028187500312924385,-0.23333749175071716,2.733637571334839
1750743735954385700,4.8543857421875,0.020624998956918716,-0.025575000792741776,2.733637571334839
1750743735963989500,4.863989501953125,0.05128749832510948,0.09776250272989273,2.6541624069213867
1750743735973593600,4.873593505859375,0.10257499665021896,0.24199999868869781,2.572350025177002
1750743735983197400,4.883197509765625,0.12457499653100967,0.296999990940094,2.489300012588501
1750743735992801300,4.89280126953125,0.08786249905824661,0.43738749623298645,2.3915374279022217
1750743736002405400,4.9024052734375,0.037812501192092896,0.6011499762535095,2.3365375995635986
1750743736012009200,4.91200927734375,0.023099999874830246,0.5326749682426453,2.3720123767852783
1750743736021613000,4.921613037109375,0.0695749968290329,0.3372874855995178,2.42330002784729
1750743736031217200,4.931217041015625,0.10381250083446503,0.20281249284744263,2.392775058746338
1750743736040821000,4.940821044921875,0.11110000312328339,0.14300000667572021,2.271775007247925
1750743736050424800,4.9504248046875,0.12086249887943268,0.10147500038146973,2.068962574005127
1750743736060029000,4.96002880859375,0.11357499659061432,0.01718750037252903,1.773337483406067
1750743736069633000,4.969633056640625,0.09515000134706497,-0.0340999998152256,1.3934249877929688
1750743736079236600,4.979236572265625,0.06833750009536743,-0.037812501192092896,0.97308748960495
1750743736088840700,4.9888408203125,0.020624998956918716,-0.0010999999940395355,0.5455999970436096
1750743736098444800,4.99844482421875,-0.00013749999925494194,0.04647500067949295,0.17531250417232513
1750743736108048600,5.008048583984375,0.010862499475479126,0.015949999913573265,-0.11659999936819077
1750743736117652700,5.01765283203125,0.03162499889731407,-0.06104999780654907,-0.37193748354911804
1750743736127256300,5.02725634765625,0.03162499889731407,-0.12333749979734421,-0.593037486076355
1750743736136860700,5.036860595703125,0.0170499999076128,-0.11110000312328339,-0.7885624766349792
1750743736146464300,5.04646435546875,-0.006187499966472387,-0.0695749968290329,-0.981612503528595
1750743736156068400,5.056068359375,-0.03423750028014183,-0.08662500232458115,-1.1672375202178955
1750743736165672200,5.065672119140625,-0.045237500220537186,-0.15757499635219574,-1.3199999332427979
1750743736175276000,5.075276123046875,-0.042899999767541885,-0.21738749742507935,-1.454337477684021
1750743736184880000,5.084880126953125,-0.042899999767541885,-0.23333749175071716,-1.5985749959945679
1750743736194484200,5.094484130859375,-0.050187498331069946,-0.24186250567436218,-1.7756749391555786
1750743736204088000,5.104088134765625,-0.05871250107884407,-0.23333749175071716,-1.9577250480651855
1750743736213692000,5.11369189453125,-0.054999999701976776,-0.24062499403953552,-2.114062547683716
1750743736223296000,5.1232958984375,-0.05389999970793724,-0.24791249632835388,-2.265587568283081
1750743736232900000,5.132900146484375,-0.0648999959230423,-0.1966249942779541,-2.373112440109253
1750743736242503700,5.142503662109375,-0.07699999958276749,-0.17215000092983246,-2.3963499069213867
1750743736252107800,5.152107666015625,-0.08071249723434448,-0.11481250077486038,-2.367062568664551
1750743736261711600,5.161711669921875,-0.08923749625682831,-0.06228749826550484,-2.318112373352051
1750743736271315700,5.171315673828125,-0.09542500227689743,-0.047575000673532486,-2.249774932861328
1750743736280919800,5.180919921875,-0.08442500233650208,-0.05609999969601631,-2.145824909210205
1750743736290523400,5.1905234375,-0.059950001537799835,-0.07328750193119049,-1.9919624328613281
1750743736300127500,5.20012744140625,-0.03189999982714653,-0.1013374999165535,-1.7976750135421753
1750743736309731300,5.2097314453125,-0.008662499487400055,-0.12333749979734421,-1.5888124704360962
1750743736319335400,5.21933544921875,-0.0013749999925494194,-0.12209999561309814,-1.3860000371932983
1750743736328939300,5.228939208984375,-0.011137500405311584,-0.12581250071525574,-1.1684750318527222
1750743736338543000,5.238543212890625,-0.030662499368190765,-0.15015000104904175,-0.9253749847412109
1750743736348147200,5.248147216796875,-0.05142499879002571,-0.14162500202655792,-0.6773250102996826
1750743736357751300,5.257751220703125,-0.0648999959230423,-0.11962500214576721,-0.44769999384880066
1750743736367355100,5.267355224609375,-0.062424998730421066,-0.11110000312328339,-0.25712499022483826
1750743736376959000,5.276958984375,-0.04647500067949295,-0.12333749979734421,-0.10078749805688858
1750743736386563000,5.28656298828125,-0.025712499395012856,-0.1073874980211258,0.026262499392032623
1750743736396167000,5.2961669921875,-0.002474999986588955,-0.0695749968290329,0.12526249885559082
1750743736405770800,5.305770751953125,0.02186249941587448,-0.04881250113248825,0.1985500007867813
1750743736415374800,5.315374755859375,0.045099999755620956,-0.010862499475479126,0.2400749921798706
1750743736424979000,5.32497900390625,0.05609999969601631,0.032999999821186066,0.24255000054836273
1750743736434582800,5.334582763671875,0.05857500061392784,0.059950001537799835,0.20707499980926514
1750743736444186600,5.3441865234375,0.05362499877810478,0.057475000619888306,0.148499995470047
1750743736453790700,5.353790771484375,0.047575000673532486,0.035475000739097595,0.08744999766349792
1750743736463394600,5.36339453125,0.03657500073313713,0.01718750037252903,0.04592499881982803
1750743736472998700,5.37299853515625,0.023099999874830246,0.0037124999798834324,0.021449999883770943
1750743736482602500,5.3826025390625,0.009624999947845936,-0.002337499987334013,0.005499999970197678
1750743736492206600,5.39220654296875,0.0010999999940395355,-0.010862499475479126,-0.005499999970197678
1750743736501810400,5.401810546875,-0.002474999986588955,-0.015812499448657036,-0.010312499478459358
1750743736511414300,5.411414306640625,-0.00494999997317791,-0.00976249948143959,-0.009074999950826168
1750743736521018400,5.421018310546875,-0.006187499966472387,-0.007287499960511923,-0.011549999937415123
1750743736530622000,5.4306220703125,-0.007424999959766865,-0.004812499973922968,-0.018837500363588333
1750743736540226300,5.440226318359375,-0.006187499966472387,-0.0035749999806284904,-0.02736249938607216
1750743736549830100,5.449830078125,-0.00494999997317791,0.002474999986588955,-0.031075000762939453
1750743736559434000,5.45943408203125,-0.0013749999925494194,0.0037124999798834324,-0.031075000762939453
1750743736569037800,5.469037841796875,0.0010999999940395355,0.00013749999925494194,-0.020075000822544098
1750743736578642000,5.478641845703125,0.004812499973922968,-0.002337499987334013,-0.006599999964237213
1750743736588246000,5.48824609375,0.002337499987334013,-0.007287499960511923,-0.0005499999970197678
1750743736597849600,5.497849609375,-0.002474999986588955,-0.010862499475479126,0.0006874999962747097
1750743736607453700,5.50745361328125,-0.006187499966472387,-0.010862499475479126,0.005499999970197678
1750743736617057500,5.5170576171875,-0.008662499487400055,-0.0085249999538064,0.011687500402331352
1750743736626661600,5.52666162109375,-0.006187499966472387,-0.0085249999538064,0.010449999943375587
1750743736636265500,5.536265380859375,-0.002474999986588955,-0.006049999967217445,0.009212499484419823
1750743736645869300,5.545869384765625,0.0010999999940395355,-0.0035749999806284904,0.0031624999828636646
1750743736655473400,5.555473388671875,-0.0013749999925494194,-0.0010999999940395355,-0.005499999970197678
1750743736665077200,5.5650771484375,-0.00494999997317791,0.00013749999925494194,-0.018837500363588333
1750743736674681300,5.574681396484375,-0.0037124999798834324,-0.004812499973922968,-0.028599999845027924
1750743736684285200,5.58428515625,-0.00494999997317791,-0.004812499973922968,-0.03355000168085098
1750743736693889000,5.593888916015625,-0.00494999997317791,-0.006049999967217445,-0.036024998873472214
1750743736703493000,5.6034931640625,-0.00494999997317791,-0.007287499960511923,-0.03478749841451645
1750743736713097000,5.613096923828125,-0.006187499966472387,-0.0085249999538064,-0.028599999845027924
1750743736722701000,5.622701171875,-0.008662499487400055,-0.0010999999940395355,-0.010312499478459358
1750743736732305200,5.63230517578125,-0.00989999994635582,0.0012374999932944775,0.010449999943375587
1750743736741909000,5.641908935546875,-0.00989999994635582,0.0012374999932944775,0.025162499397993088
1750743736751512800,5.651512939453125,-0.007424999959766865,0.008662499487400055,0.03368749842047691
1750743736761117000,5.661116943359375,-0.0037124999798834324,0.01223750039935112,0.03492499887943268
1750743736770720800,5.670720703125,-0.0013749999925494194,0.01223750039935112,0.03368749842047691
1750743736780324600,5.68032470703125,0.002337499987334013,0.00989999994635582,0.023924998939037323
1750743736789928700,5.6899287109375,0.0010999999940395355,0.00013749999925494194,0.014162499457597733
1750743736799532300,5.6995322265625,-0.0013749999925494194,-0.006049999967217445,0.007974999956786633
1750743736809136400,5.709136474609375,-0.002474999986588955,-0.007287499960511923,0.011687500402331352
1750743736818740500,5.718740478515625,-0.0037124999798834324,-0.006049999967217445,0.014162499457597733
1750743736828344300,5.72834423828125,-0.0037124999798834324,-0.004812499973922968,0.012924999929964542
1750743736837948400,5.737948486328125,-0.0037124999798834324,-0.006049999967217445,0.009212499484419823
1750743736847552300,5.74755224609375,-0.0037124999798834324,-0.004812499973922968,0.005499999970197678
1750743736857156400,5.75715625,-0.00494999997317791,-0.004812499973922968,0.0031624999828636646
1750743736866760200,5.76676025390625,-0.002474999986588955,-0.0035749999806284904,-0.0030249999836087227
1750743736876364000,5.776364013671875,-0.0037124999798834324,-0.002337499987334013,-0.014024999924004078
1750743736885968100,5.785968017578125,-0.006187499966472387,-0.007287499960511923,-0.01759999990463257
1750743736895572000,5.795572021484375,-0.00989999994635582,-0.006049999967217445,-0.010312499478459358
1750743736905176000,5.805176025390625,-0.012374999932944775,0.0012374999932944775,-0.0005499999970197678
1750743736914779600,5.814779541015625,-0.01347499992698431,0.002474999986588955,0.0031624999828636646
1750743736924383700,5.8243837890625,-0.012374999932944775,-0.0035749999806284904,0.009212499484419823
1750743736933987600,5.833987548828125,-0.012374999932944775,-0.010862499475479126,0.020212499424815178
1750743736943591700,5.843591796875,-0.008662499487400055,-0.007287499960511923,0.025162499397993088
1750743736953195800,5.85319580078125,-0.007424999959766865,0.002474999986588955,0.020212499424815178
1750743736962799400,5.86279931640625,-0.006187499966472387,0.006187499966472387,0.015262499451637268
1750743736972403700,5.87240380859375,-0.0013749999925494194,0.008662499487400055,0.016499999910593033
1750743736982007600,5.882007568359375,-0.0013749999925494194,0.00989999994635582,0.016499999910593033
1750743736991611400,5.891611328125,-0.002474999986588955,0.007424999959766865,0.011687500402331352
1750743737001215500,5.901215576171875,-0.0037124999798834324,0.0037124999798834324,0.009212499484419823
1750743737010819300,5.9108193359375,-0.007424999959766865,-0.0010999999940395355,0.005499999970197678
1750743737020423200,5.920423095703125,-0.006187499966472387,-0.010862499475479126,0.0031624999828636646
1750743737030027300,5.93002734375,-0.0037124999798834324,-0.015812499448657036,0.006737499963492155
1750743737039631000,5.939631103515625,-0.0013749999925494194,-0.014574999921023846,0.015262499451637268
1750743737049235000,5.94923486328125,0.002337499987334013,-0.014574999921023846,0.022687500342726707
1750743737058839000,5.958839111328125,0.0035749999806284904,-0.010862499475479126,0.025162499397993088
1750743737068443000,5.96844287109375,0.004812499973922968,-0.00976249948143959,0.028737500309944153
1750743737078047000,5.978046875,0.006049999967217445,-0.0035749999806284904,0.03492499887943268
1750743737087650800,5.98765087890625,0.004812499973922968,0.0037124999798834324,0.027499999850988388
1750743737097254700,5.997254638671875,0.004812499973922968,0.00989999994635582,0.011687500402331352
1750743737106858800,6.006858642578125,0.002337499987334013,0.007424999959766865,-0.0005499999970197678
1750743737116462600,6.016462646484375,-0.0013749999925494194,0.0012374999932944775,-0.009074999950826168
1750743737126066400,6.02606640625,-0.0037124999798834324,-0.015812499448657036,-0.010312499478459358
1750743737135670500,6.03567041015625,-0.00494999997317791,-0.00976249948143959,-0.006599999964237213
1750743737145274600,6.045274658203125,-0.002474999986588955,-0.006049999967217445,-0.0005499999970197678
1750743737154878500,6.05487841796875,-0.0013749999925494194,-0.013337500393390656,0.004399999976158142
1750743737164482600,6.064482666015625,-0.0037124999798834324,-0.013337500393390656,0.012924999929964542
1750743737174086100,6.074086181640625,-0.007424999959766865,-0.010862499475479126,0.017737500369548798
1750743737183690200,6.083690185546875,-0.007424999959766865,-0.01209999993443489,0.009212499484419823
1750743737193294300,6.09329443359375,-0.00494999997317791,-0.010862499475479126,-0.009074999950826168
1750743737202898200,6.102898193359375,0.0010999999940395355,-0.004812499973922968,-0.020075000822544098
1750743737212502300,6.112502197265625,0.009624999947845936,0.002474999986588955,-0.016499999910593033
1750743737222105900,6.12210595703125,0.01209999993443489,0.0037124999798834324,-0.010312499478459358
1750743737231710000,6.1317099609375,0.01209999993443489,-0.004812499973922968,-0.009074999950826168
1750743737241314300,6.141314208984375,0.010862499475479126,-0.0085249999538064,-0.0005499999970197678
1750743737250918000,6.15091796875,0.007287499960511923,-0.00976249948143959,0.012924999929964542
1750743737260522000,6.16052197265625,0.004812499973922968,-0.010862499475479126,0.017737500369548798
1750743737270125800,6.170125732421875,0.0010999999940395355,-0.007287499960511923,0.012924999929964542
1750743737279729700,6.179729736328125,0.0010999999940395355,0.00013749999925494194,0.0019249999895691872
1750743737289333800,6.189333740234375,-0.00013749999925494194,0.006187499966472387,-0.006599999964237213
1750743737298937600,6.1989375,0.0010999999940395355,0.010999999940395355,-0.014024999924004078
1750743737308541700,6.208541748046875,0.0010999999940395355,0.010999999940395355,-0.012787500396370888
1750743737318145500,6.2181455078125,0.0010999999940395355,0.006187499966472387,-0.0042624999769032
1750743737327749600,6.22774951171875,0.002337499987334013,0.002474999986588955,0.006737499963492155
1750743737337353500,6.237353515625,0.002337499987334013,-0.004812499973922968,0.009212499484419823
1750743737346957300,6.246957275390625,0.0010999999940395355,-0.010862499475479126,0.011687500402331352
1750743737356561400,6.2565615234375,0.0010999999940395355,-0.00976249948143959,0.017737500369548798
1750743737366165200,6.266165283203125,-0.0013749999925494194,-0.007287499960511923,0.026262499392032623
1750743737375769300,6.275769287109375,-0.002474999986588955,-0.0010999999940395355,0.027499999850988388
1750743737385373200,6.285373291015625,-0.0037124999798834324,0.002474999986588955,0.021449999883770943
1750743737394977000,6.29497705078125,-0.00013749999925494194,0.00494999997317791,0.011687500402331352
1750743737404581000,6.3045810546875,0.0010999999940395355,0.00494999997317791,0.006737499963492155
1750743737414185000,6.31418505859375,-0.002474999986588955,0.002474999986588955,0.006737499963492155
1750743737423788800,6.323788818359375,-0.006187499966472387,0.002474999986588955,0.009212499484419823
1750743737433393000,6.333392822265625,-0.011137500405311584,0.002474999986588955,0.0006874999962747097
1750743737442997000,6.3429970703125,-0.007424999959766865,-0.0035749999806284904,-0.014024999924004078
1750743737452600800,6.352600830078125,-0.002474999986588955,-0.013337500393390656,-0.022549999877810478
1750743737462204700,6.36220458984375,0.002337499987334013,-0.020762499421834946,-0.023787500336766243
1750743737471808800,6.371808837890625,0.002337499987334013,-0.015812499448657036,-0.020075000822544098
1750743737481412600,6.38141259765625,-0.00013749999925494194,-0.007287499960511923,-0.009074999950826168
1750743737491016700,6.3910166015625,0.002337499987334013,-0.002337499987334013,-0.0005499999970197678
1750743737500620500,6.40062060546875,0.002337499987334013,-0.002337499987334013,-0.0005499999970197678
1750743737510224400,6.410224365234375,-0.00013749999925494194,-0.007287499960511923,-0.005499999970197678
1750743737519828200,6.419828125,-0.0037124999798834324,-0.006049999967217445,-0.005499999970197678
1750743737529432300,6.429432373046875,-0.0037124999798834324,0.00013749999925494194,0.0006874999962747097
1750743737539036400,6.439036376953125,-0.002474999986588955,-0.0010999999940395355,0.005499999970197678
1750743737548640300,6.44864013671875,-0.002474999986588955,-0.0010999999940395355,0.0006874999962747097
1750743737558244400,6.458244384765625,-0.0037124999798834324,0.0012374999932944775,-0.005499999970197678
1750743737567848200,6.46784814453125,-0.00494999997317791,0.0012374999932944775,-0.009074999950826168
1750743737577452000,6.4774521484375,-0.007424999959766865,0.00013749999925494194,-0.012787500396370888
1750743737587056000,6.48705615234375,-0.007424999959766865,-0.0010999999940395355,-0.018837500363588333
1750743737596660000,6.496659912109375,-0.007424999959766865,-0.004812499973922968,-0.020075000822544098
1750743737606264000,6.50626416015625,-0.007424999959766865,-0.002337499987334013,-0.015262499451637268
1750743737615868000,6.515867919921875,-0.007424999959766865,-0.0010999999940395355,-0.011549999937415123
1750743737625471700,6.5254716796875,-0.006187499966472387,0.002474999986588955,-0.010312499478459358
1750743737635075800,6.535075927734375,-0.002474999986588955,-0.004812499973922968,-0.0017874999903142452
1750743737644679700,6.5446796875,-0.0013749999925494194,-0.004812499973922968,0.016499999910593033
1750743737654283800,6.55428369140625,-0.0037124999798834324,0.00989999994635582,0.048262499272823334
1750743737663887600,6.5638876953125,-0.008662499487400055,0.01718750037252903,0.09597499668598175
1750743737673491700,6.57349169921875,-0.00989999994635582,0.015949999913573265,0.16802500188350677
1750743737683095600,6.583095458984375,-0.015949999913573265,0.07576250284910202,0.2915000021457672
1750743737692699600,6.59269970703125,-0.05389999970793724,0.0929500013589859,0.4796000123023987
1750743737702303500,6.602303466796875,-0.08799999952316284,-0.04633750021457672,0.7654625177383423
1750743737711907600,6.611907470703125,-0.10395000129938126,-0.3493874967098236,1.195562481880188
1750743737721511400,6.621511474609375,-0.0966624990105629,-0.7220125198364258,1.7465250492095947
1750743737731115300,6.631115234375,-0.08195000141859055,-0.8991125226020813,2.341487407684326
1750743737740719400,6.64071923828125,-0.10023749619722366,-0.9894499778747559,2.874162435531616
1750743737750323200,6.6503232421875,-0.17118750512599945,-0.9503999948501587,3.2223124504089355
1750743737759927300,6.65992724609375,-0.1625249981880188,-0.6340125203132629,3.350600004196167
1750743737769531100,6.66953125,-0.11866249889135361,-0.2626250088214874,3.327362537384033
1750743737779135000,6.679135009765625,-0.11371249705553055,0.18947499990463257,3.376312494277954
1750743737788739000,6.688739013671875,-0.16871249675750732,0.5766749978065491,3.5276999473571777
1750743737798343000,6.698343017578125,-0.2040500044822693,0.7880125045776367,3.668225049972534
1750743737807946800,6.70794677734375,-0.18576249480247498,0.852774977684021,3.7525124549865723
1750743737817550800,6.71755078125,-0.12347500026226044,0.7024874687194824,3.7562248706817627
1750743737827155000,6.727155029296875,-0.037950001657009125,0.5644375085830688,3.6352250576019287
1750743737836758800,6.7367587890625,0.015812499448657036,0.443574994802475,3.373837471008301
1750743737846362600,6.746362548828125,0.04633750021457672,0.32010000944137573,2.991450071334839
1750743737855966700,6.755966796875,0.06462500244379044,0.1625249981880188,2.519824981689453
1750743737865570600,6.765570556640625,0.057337500154972076,-0.04152499884366989,1.9883874654769897
1750743737875174700,6.775174560546875,0.032862499356269836,-0.19910000264644623,1.4069000482559204
1750743737884778200,6.7847783203125,0.01209999993443489,-0.24062499403953552,0.810699999332428
1750743737894382300,6.79438232421875,-0.0013749999925494194,-0.17338749766349792,0.2560249865055084
1750743737903986200,6.803986083984375,-0.01347499992698431,-0.08910000324249268,-0.22165000438690186
1750743737913590300,6.81359033203125,-0.01718750037252903,-0.06228749826550484,-0.6247999668121338
1750743737923194400,6.8231943359375,-0.00989999994635582,-0.11838749796152115,-0.9741874933242798
1750743737932798200,6.832798095703125,0.002337499987334013,-0.15757499635219574,-1.2894749641418457
1750743737942402300,6.84240234375,0.020624998956918716,-0.11715000122785568,-1.5643374919891357
1750743737952006000,6.852005859375,0.03657500073313713,-0.12333749979734421,-1.769624948501587
1750743737961610000,6.86160986328125,0.04028749838471413,-0.14657500386238098,-1.9467250108718872
1750743737971214000,6.871214111328125,0.04028749838471413,-0.11604999750852585,-2.115299940109253
1750743737980818000,6.88081787109375,0.0340999998152256,-0.06104999780654907,-2.294874906539917
1750743737990421800,6.890421875,0.014574999921023846,-0.0010999999940395355,-2.486687421798706
1750743738000025600,6.900025634765625,-0.00989999994635582,0.047712501138448715,-2.6504499912261963
1750743738009629700,6.909629638671875,-0.02213750034570694,0.06476250290870667,-2.775024890899658
1750743738019233800,6.91923388671875,-0.030662499368190765,0.07947500050067902,-2.877737522125244
1750743738028837600,6.928837646484375,-0.045237500220537186,0.10023749619722366,-2.94854998588562
1750743738038441500,6.93844140625,-0.057475000619888306,0.09047500044107437,-2.958312511444092
1750743738048045600,6.948045654296875,-0.057475000619888306,0.08923749625682831,-2.8898375034332275
1750743738057649400,6.9576494140625,-0.052662499248981476,0.11495000123977661,-2.772549867630005
1750743738067253200,6.967253173828125,-0.04647500067949295,0.1467124968767166,-2.6516873836517334
1750743738076857300,6.976857421875,-0.04166249930858612,0.16128750145435333,-2.546637535095215
1750743738086461400,6.98646142578125,-0.04647500067949295,0.1942874938249588,-2.429349899291992
1750743738096065300,6.996065185546875,-0.05389999970793724,0.2237125039100647,-2.2583000659942627
1750743738105669000,7.005669189453125,-0.05142499879002571,0.18576249480247498,-2.013962507247925
1750743738115273200,7.015273193359375,-0.03189999982714653,0.09047500044107437,-1.7280999422073364
1750743738124877000,7.024876953125,-0.002474999986588955,-0.015812499448657036,-1.4422374963760376
1750743738134481200,7.034481201171875,0.02681249938905239,-0.08910000324249268,-1.1636625528335571
1750743738144085000,7.0440849609375,0.037812501192092896,-0.12086249887943268,-0.8898999691009521
1750743738153688800,7.053688720703125,0.02681249938905239,-0.12209999561309814,-0.6175125241279602
1750743738163293000,7.06329296875,0.010862499475479126,-0.09886249899864197,-0.3596999943256378
1750743738172897000,7.07289697265625,0.004812499973922968,-0.0695749968290329,-0.1373624950647354
1750743738182500900,7.0825009765625,0.015812499448657036,-0.04028749838471413,0.05321250110864639
1750743738192104700,7.092104736328125,0.030387500301003456,-0.03904999792575836,0.2083124965429306
1750743738201708800,7.101708740234375,0.04262499883770943,-0.0340999998152256,0.3097875118255615
1750743738211312600,7.111312744140625,0.05128749832510948,-0.025575000792741776,0.3488374948501587
1750743738220916500,7.12091650390625,0.05238749831914902,-0.010862499475479126,0.342787504196167
1750743738230520600,7.1305205078125,0.04633750021457672,0.010999999940395355,0.29878750443458557
1750743738240124400,7.14012451171875,0.04138749837875366,0.025712499395012856,0.2303124964237213
1750743738249728500,7.149728515625,0.04138749837875366,0.015949999913573265,0.1522125005722046
1750743738259332400,7.159332275390625,0.04386249929666519,0.002474999986588955,0.07273750007152557
1750743738268936200,7.168936279296875,0.047575000673532486,0.0012374999932944775,0.0006874999962747097
1750743738278540300,7.178540283203125,0.04386249929666519,-0.0035749999806284904,-0.06407500058412552
1750743738288144400,7.188144287109375,0.0340999998152256,-0.010862499475479126,-0.1093124970793724
1750743738297748200,7.197748291015625,0.02433750033378601,-0.004812499973922968,-0.1251250058412552
1750743738307352000,7.20735205078125,0.014574999921023846,-0.0010999999940395355,-0.12155000120401382
1750743738316956200,7.2169560546875,0.0035749999806284904,-0.00976249948143959,-0.10807500034570694
1750743738326560000,7.22656005859375,-0.007424999959766865,-0.0085249999538064,-0.08855000138282776
1750743738336164000,7.2361640625,-0.02213750034570694,0.0012374999932944775,-0.07507500052452087
1750743738345768200,7.245768310546875,-0.03189999982714653,-0.0010999999940395355,-0.07012499868869781
1750743738355371800,7.255371826171875,-0.035475000739097595,-0.0085249999538064,-0.07507500052452087
1750743738364975900,7.264975830078125,-0.037950001657009125,-0.015812499448657036,-0.08112499862909317
1750743738374579700,7.274579833984375,-0.03423750028014183,-0.02928750030696392,-0.08236250281333923
1750743738384183800,7.284183837890625,-0.02694999985396862,-0.035337500274181366,-0.07136250287294388
1750743738393787600,7.29378759765625,-0.020899999886751175,-0.013337500393390656,-0.04455000162124634
1750743738403391700,7.303391845703125,-0.01718750037252903,0.002474999986588955,-0.01759999990463257
1750743738412995800,7.312995849609375,-0.011137500405311584,0.006187499966472387,0.004399999976158142
1750743738422599700,7.322599609375,-0.0013749999925494194,0.006187499966472387,0.017737500369548798
1750743738432203500,7.33220361328125,0.002337499987334013,0.006187499966472387,0.026262499392032623
1750743738441807400,7.341807373046875,0.002337499987334013,0.008662499487400055,0.025162499397993088
1750743738451411500,7.351411376953125,0.0035749999806284904,0.006187499966472387,0.017737500369548798
1750743738461015300,7.361015380859375,0.002337499987334013,-0.0010999999940395355,0.004399999976158142
1750743738470619100,7.370619140625,0.002337499987334013,-0.002337499987334013,-0.011549999937415123
1750743738480223200,7.38022314453125,0.004812499973922968,-0.004812499973922968,-0.03231250122189522
1750743738489827000,7.3898271484375,0.01209999993443489,-0.006049999967217445,-0.045787498354911804
1750743738499431200,7.39943115234375,0.018287500366568565,-0.010862499475479126,-0.04455000162124634
1750743738509035000,7.409034912109375,0.01952499896287918,-0.01209999993443489,-0.03355000168085098
1750743738518638800,7.418638916015625,0.0170499999076128,-0.00976249948143959,-0.022549999877810478
1750743738528243000,7.428242919921875,0.015812499448657036,-0.01209999993443489,-0.006599999964237213
1750743738537846800,7.4378466796875,0.0170499999076128,-0.00976249948143959,0.012924999929964542
1750743738547451000,7.447450927734375,0.015812499448657036,-0.006049999967217445,0.031212499365210533
1750743738557054700,7.4570546875,0.014574999921023846,0.0012374999932944775,0.03726249933242798
1750743738566658800,7.466658935546875,0.013337500393390656,0.0037124999798834324,0.03973750025033951
1750743738576263000,7.476262939453125,0.010862499475479126,-0.002337499987334013,0.03368749842047691
1750743738585866500,7.485866455078125,0.0085249999538064,-0.006049999967217445,0.022687500342726707
1750743738595470600,7.495470703125,0.002337499987334013,-0.0035749999806284904,0.011687500402331352
1750743738605074400,7.505074462890625,-0.00494999997317791,0.006187499966472387,0.004399999976158142
1750743738614678500,7.514678466796875,-0.007424999959766865,0.010999999940395355,-0.006599999964237213
1750743738624282400,7.524282470703125,-0.007424999959766865,0.00494999997317791,-0.016499999910593033
1750743738633886200,7.53388623046875,-0.00989999994635582,-0.004812499973922968,-0.028599999845027924
1750743738643490000,7.543489990234375,-0.011137500405311584,-0.01209999993443489,-0.028599999845027924
1750743738653094100,7.55309423828125,-0.011137500405311584,-0.015812499448657036,-0.01759999990463257
1750743738662698200,7.5626982421875,-0.00989999994635582,-0.015812499448657036,-0.006599999964237213
1750743738672302000,7.572302001953125,-0.00989999994635582,-0.010862499475479126,-0.005499999970197678
1750743738681906000,7.581906005859375,-0.007424999959766865,-0.0085249999538064,-0.009074999950826168
1750743738691510000,7.591510009765625,-0.002474999986588955,-0.007287499960511923,-0.009074999950826168
1750743738701113900,7.60111376953125,-0.0013749999925494194,-0.00976249948143959,-0.007837500423192978
1750743738710718000,7.610718017578125,0.0010999999940395355,-0.007287499960511923,-0.011549999937415123
1750743738720321800,7.62032177734375,-0.0013749999925494194,0.0012374999932944775,-0.02502499893307686
1750743738729926000,7.62992578125,-0.0037124999798834324,0.010999999940395355,-0.03726249933242798
1750743738739529700,7.63952978515625,-0.006187499966472387,0.00989999994635582,-0.04331250116229057
1750743738749133600,7.649133544921875,-0.008662499487400055,-0.0010999999940395355,-0.04207500070333481
1750743738758737700,7.658737548828125,-0.006187499966472387,-0.014574999921023846,-0.036024998873472214
1750743738768341500,7.668341552734375,-0.0013749999925494194,-0.018287500366568565,-0.023787500336766243
1750743738777945600,7.677945556640625,0.002337499987334013,-0.01209999993443489,-0.005499999970197678
1750743738787549400,7.687549560546875,0.002337499987334013,-0.0085249999538064,0.016499999910593033
1750743738797153500,7.697153564453125,0.0010999999940395355,-0.0035749999806284904,0.03726249933242798
1750743738806757400,7.70675732421875,0.0010999999940395355,0.002474999986588955,0.04592499881982803
1750743738816361200,7.716361328125,-0.00013749999925494194,0.007424999959766865,0.03726249933242798
1750743738825965300,7.72596533203125,-0.00013749999925494194,0.007424999959766865,0.018975000828504562
1750743738835569200,7.735569091796875,0.002337499987334013,0.007424999959766865,0.0006874999962747097
1750743738845173200,7.74517333984375,0.007287499960511923,0.006187499966472387,-0.007837500423192978
1750743738854777300,7.75477734375,0.010862499475479126,-0.0035749999806284904,-0.006599999964237213
1750743738864381200,7.764381103515625,0.01209999993443489,-0.0010999999940395355,-0.0005499999970197678
1750743738873985000,7.773985107421875,0.007287499960511923,0.0037124999798834324,0.005499999970197678
1750743738883589000,7.783589111328125,0.004812499973922968,0.0012374999932944775,0.017737500369548798
1750743738893193000,7.79319287109375,0.0035749999806284904,0.01223750039935112,0.03849999979138374
1750743738902797000,7.802797119140625,-0.002474999986588955,0.03423750028014183,0.06421250104904175
1750743738912401000,7.81240087890625,-0.00989999994635582,0.040424998849630356,0.0849749967455864
1750743738922005000,7.8220048828125,-0.012374999932944775,0.037950001657009125,0.09844999760389328
1750743738931608600,7.831608642578125,-0.01347499992698431,0.03671250119805336,0.10821250081062317
1750743738941212700,7.841212646484375,-0.01347499992698431,0.03671250119805336,0.10821250081062317
1750743738950816500,7.85081640625,-0.011137500405311584,0.02199999988079071,0.0849749967455864
1750743738960420600,7.860420654296875,-0.007424999959766865,0.006187499966472387,0.04468749836087227
1750743738970024700,7.870024658203125,-0.0037124999798834324,-0.0035749999806284904,0.018975000828504562
1750743738979628300,7.879628173828125,-0.00013749999925494194,-0.002337499987334013,0.017737500369548798
1750743738989232600,7.889232666015625,-0.0013749999925494194,0.01966249942779541,0.027499999850988388
1750743738998836500,7.89883642578125,-0.011137500405311584,0.07095000147819519,0.06421250104904175
1750743739008440600,7.908440673828125,-0.02694999985396862,0.10147500038146973,0.1522125005722046
1750743739018044400,7.91804443359375,-0.04413750022649765,0.11371249705553055,0.2815999984741211
1750743739027648300,7.927648193359375,-0.052662499248981476,0.07823749631643295,0.4160749912261963
1750743739037252400,7.93725244140625,-0.04895000159740448,0.06476250290870667,0.5333625078201294
1750743739046856000,7.94685595703125,-0.042899999767541885,0.062424998730421066,0.6176499724388123
1750743739056460300,7.956460205078125,-0.033137500286102295,0.04166249930858612,0.6628875136375427
1750743739066064100,7.966064208984375,-0.02213750034570694,0.007424999959766865,0.6652249693870544
1750743739075668000,7.97566796875,-0.011137500405311584,-0.0010999999940395355,0.613937497138977
1750743739085272000,7.98527197265625,-0.012374999932944775,0.020899999886751175,0.5101249814033508
1750743739094876000,7.9948759765625,-0.02213750034570694,0.03671250119805336,0.37207499146461487
1750743739104480000,8.00447998046875,-0.023237500339746475,0.035475000739097595,0.2217874974012375
1750743739114083800,8.014083740234375,-0.015949999913573265,0.0147124994546175,0.07273750007152557
1750743739123687700,8.023687744140625,-0.0013749999925494194,-0.020762499421834946,-0.07012499868869781
1750743739133291800,8.033291748046874,0.009624999947845936,-0.057337500154972076,-0.19607499241828918
1750743739142895600,8.0428955078125,0.0170499999076128,-0.08181250095367432,-0.28888750076293945
1750743739152499700,8.052499755859374,0.01952499896287918,-0.09281250089406967,-0.3414124846458435
1750743739162103600,8.062103515625,0.01952499896287918,-0.09281250089406967,-0.3596999943256378
1750743739171707600,8.071707763671874,0.0170499999076128,-0.08304999768733978,-0.3499374985694885
1750743739181311700,8.081311767578125,0.013337500393390656,-0.07562500238418579,-0.3133625090122223
1750743739190915300,8.090915283203126,0.010862499475479126,-0.07562500238418579,-0.25712499022483826
1750743739200519400,8.10051953125,0.009624999947845936,-0.06462500244379044,-0.19841249287128448
1750743739210123300,8.110123291015626,0.006049999967217445,-0.045099999755620956,-0.15565000474452972
1750743739219727400,8.119727294921875,-0.00013749999925494194,-0.035337500274181366,-0.13007499277591705
1750743739229331500,8.12933154296875,-0.0013749999925494194,-0.023099999874830246,-0.11288750171661377
1750743739238935300,8.138935302734374,0.0010999999940395355,-0.0170499999076128,-0.10312499850988388
1750743739248539100,8.1485390625,0.006049999967217445,-0.01952499896287918,-0.10312499850988388
1750743739258143200,8.158143310546874,0.0085249999538064,-0.02681249938905239,-0.10807500034570694
1750743739267747000,8.1677470703125,0.010862499475479126,-0.037812501192092896,-0.11055000126361847
1750743739277351200,8.17735107421875,0.015812499448657036,-0.037812501192092896,-0.10312499850988388
1750743739286955000,8.186955078125,0.018287500366568565,-0.030524998903274536,-0.08112499862909317
1750743739296559000,8.19655908203125,0.018287500366568565,-0.020762499421834946,-0.05555000156164169
1750743739306163000,8.206162841796875,0.013337500393390656,-0.0010999999940395355,-0.02502499893307686
1750743739315767000,8.21576708984375,0.007287499960511923,0.008662499487400055,-0.005499999970197678
1750743739325371000,8.225370849609375,0.0010999999940395355,0.010999999940395355,-0.006599999964237213
1750743739334974700,8.234974609375,-0.00013749999925494194,0.007424999959766865,-0.015262499451637268
1750743739344578800,8.244578857421875,-0.0013749999925494194,0.00494999997317791,-0.021312499418854713
1750743739354182700,8.2541826171875,-0.00013749999925494194,0.00013749999925494194,-0.023787500336766243
1750743739363786800,8.263786865234374,0.0035749999806284904,-0.0010999999940395355,-0.02736249938607216
1750743739373390600,8.273390625,0.0035749999806284904,-0.0035749999806284904,-0.028599999845027924
1750743739382994700,8.28299462890625,0.002337499987334013,0.0012374999932944775,-0.026262499392032623
1750743739392598800,8.292598876953125,0.002337499987334013,0.007424999959766865,-0.015262499451637268
1750743739402202400,8.302202392578126,0.0035749999806284904,0.007424999959766865,-0.005499999970197678
1750743739411806500,8.311806396484375,0.006049999967217445,0.007424999959766865,0.0019249999895691872
1750743739421410600,8.32141064453125,0.006049999967217445,0.0037124999798834324,0.007974999956786633
1750743739431014100,8.33101416015625,0.007287499960511923,0.002474999986588955,0.015262499451637268
1750743739440618500,8.340618408203126,0.007287499960511923,-0.002337499987334013,0.018975000828504562
1750743739450222600,8.35022265625,0.006049999967217445,-0.013337500393390656,0.014162499457597733
1750743739459826200,8.359826171875,0.004812499973922968,-0.014574999921023846,0.004399999976158142
1750743739469430300,8.36943017578125,0.002337499987334013,-0.01209999993443489,-0.006599999964237213
1750743739479034000,8.3790341796875,0.002337499987334013,-0.01209999993443489,-0.018837500363588333
1750743739488638200,8.38863818359375,-0.00013749999925494194,-0.007287499960511923,-0.02736249938607216
1750743739498242000,8.398241943359375,-0.00013749999925494194,-0.0010999999940395355,-0.028599999845027924
1750743739507846100,8.40784619140625,0.0010999999940395355,-0.0010999999940395355,-0.022549999877810478
1750743739517450000,8.417449951171875,0.004812499973922968,-0.0010999999940395355,-0.016499999910593033
1750743739527053800,8.4270537109375,0.0085249999538064,0.00013749999925494194,-0.011549999937415123
1750743739536658000,8.436657958984375,0.009624999947845936,0.0012374999932944775,-0.0017874999903142452
1750743739546261800,8.44626171875,0.006049999967217445,-0.0035749999806284904,0.009212499484419823
1750743739555865900,8.455865966796875,0.0010999999940395355,-0.010862499475479126,0.010449999943375587
1750743739565470000,8.465469970703126,-0.00494999997317791,-0.013337500393390656,0.0006874999962747097
1750743739575073500,8.475073486328125,-0.008662499487400055,-0.0085249999538064,-0.012787500396370888
1750743739584678000,8.484677978515625,-0.007424999959766865,0.00013749999925494194,-0.023787500336766243
1750743739594281700,8.49428173828125,-0.00494999997317791,0.0012374999932944775,-0.028599999845027924
1750743739603885600,8.503885498046875,-0.0013749999925494194,0.00494999997317791,-0.026262499392032623
1750743739613489700,8.51348974609375,0.0010999999940395355,0.006187499966472387,-0.021312499418854713
1750743739623093500,8.523093505859375,0.0035749999806284904,0.00494999997317791,-0.012787500396370888
1750743739632697600,8.532697509765624,0.004812499973922968,0.0012374999932944775,-0.007837500423192978
1750743739642301700,8.5423017578125,0.0010999999940395355,0.002474999986588955,-0.012787500396370888
1750743739651905500,8.551905517578126,-0.00013749999925494194,0.018424998968839645,-0.026262499392032623
1750743739661509600,8.561509521484375,-0.0037124999798834324,0.025712499395012856,-0.040837500244379044
1750743739671113500,8.571113525390626,-0.00013749999925494194,0.015949999913573265,-0.04455000162124634
1750743739680717300,8.58071728515625,0.002337499987334013,0.007424999959766865,-0.04455000162124634
1750743739690321400,8.5903212890625,0.0010999999940395355,-0.0085249999538064,-0.03959999978542328
1750743739699925200,8.59992529296875,-0.002474999986588955,0.002474999986588955,-0.018837500363588333
1750743739709529300,8.609529296875,-0.00989999994635582,0.028187500312924385,0.022687500342726707
1750743739719133200,8.61913330078125,-0.018424998968839645,0.059950001537799835,0.08002500236034393
1750743739728737000,8.628737060546875,-0.02694999985396862,0.07823749631643295,0.16431249678134918
1750743739738341400,8.63834130859375,-0.037950001657009125,0.09542500227689743,0.2780250012874603
1750743739747945000,8.647945068359375,-0.047712501138448715,0.07095000147819519,0.40383750200271606
1750743739757549000,8.657549072265626,-0.045237500220537186,0.07095000147819519,0.5516499876976013
1750743739767153000,8.66715283203125,-0.037950001657009125,0.15152500569820404,0.7691749930381775
1750743739776757000,8.676757080078126,-0.052662499248981476,0.32999998331069946,1.108799934387207
1750743739786360800,8.68636083984375,-0.06599999964237213,0.42762500047683716,1.5472874641418457
1750743739795964700,8.695964599609376,-0.047712501138448715,0.4338124990463257,1.9456249475479126
1750743739805568800,8.70556884765625,0.013337500393390656,0.4460499882698059,2.177725076675415
1750743739815172600,8.715172607421875,0.07933750003576279,0.43505001068115234,2.2254374027252197
1750743739824776700,8.724776611328124,0.08415000140666962,0.3946250081062317,2.117912530899048
1750743739834380500,8.734380615234375,0.04386249929666519,0.3115749955177307,1.8881499767303467
1750743739843984600,8.743984619140624,-0.0013749999925494194,0.22481249272823334,1.5547125339508057
1750743739853588700,8.753588623046875,-0.04647500067949295,0.15895000100135803,1.1710875034332275
1750743739863192300,8.7631923828125,-0.08676250278949738,0.11728750169277191,0.7605124711990356
1750743739872796400,8.77279638671875,-0.11247500032186508,0.030662499368190765,0.3488374948501587
1750743739882400500,8.782400390625,-0.11123749613761902,-0.07328750193119049,-0.04331250116229057
1750743739892004400,8.79200439453125,-0.062424998730421066,-0.19415000081062317,-0.3926999866962433
1750743739901608400,8.8016083984375,-0.007424999959766865,-0.32243749499320984,-0.6762250065803528
1750743739911212300,8.81121240234375,0.04028749838471413,-0.4152500033378601,-0.8801375031471252
1750743739920816400,8.82081640625,0.07315000146627426,-0.42996248602867126,-1.0036125183105469
1750743739930420200,8.830420166015625,0.08304999768733978,-0.37014999985694885,-1.0683749914169312
1750743739940024000,8.840024169921875,0.07204999774694443,-0.29438748955726624,-1.10013747215271
1750743739949628200,8.849628173828124,0.06462500244379044,-0.24433749914169312,-1.1147124767303467
1750743739959232000,8.85923193359375,0.0658624991774559,-0.21986250579357147,-1.104949951171875
1750743739968836000,8.868836181640624,0.07315000146627426,-0.19786250591278076,-1.0744249820709229
1750743739978440000,8.87843994140625,0.07204999774694443,-0.1391499936580658,-1.0231374502182007
1750743739988044000,8.8880439453125,0.059812501072883606,-0.08428750187158585,-0.9448999762535095
1750743739997648000,8.89764794921875,0.03657500073313713,-0.032862499356269836,-0.8618500232696533
1750743740007251700,8.907251708984376,0.01209999993443489,-0.0035749999806284904,-0.794612467288971
1750743740016855800,8.916855712890625,-0.0013749999925494194,0.0037124999798834324,-0.7372750043869019
1750743740026460000,8.9264599609375,-0.002474999986588955,-0.0085249999538064,-0.6749874949455261
1750743740036063700,8.936063720703125,0.004812499973922968,-0.03162499889731407,-0.5942749977111816
1750743740045667800,8.945667724609375,0.015812499448657036,-0.047575000673532486,-0.5039374828338623
1750743740055271700,8.955271728515624,0.025575000792741776,-0.05362499877810478,-0.4171749949455261
1750743740064875800,8.964875732421875,0.03657500073313713,-0.04028749838471413,-0.3316499888896942
1750743740074479400,8.974479248046874,0.047575000673532486,-0.023099999874830246,-0.2498375028371811
1750743740084083500,8.98408349609375,0.057337500154972076,-0.013337500393390656,-0.18012499809265137
1750743740093687600,8.9936875,0.05857500061392784,-0.01209999993443489,-0.1288374960422516
1750743740103291600,9.003291748046875,0.05362499877810478,-0.0170499999076128,-0.09459999948740005
1750743740112895500,9.0128955078125,0.04633750021457672,-0.028049999848008156,-0.0775500014424324
1750743740122499600,9.02249951171875,0.035337500274181366,-0.02433750033378601,-0.06407500058412552
1750743740132103400,9.032103515625,0.02433750033378601,-0.00976249948143959,-0.048262499272823334
1750743740141707500,9.04170751953125,0.018287500366568565,0.0037124999798834324,-0.03231250122189522
1750743740151311400,9.051311279296876,0.018287500366568565,0.006187499966472387,-0.015262499451637268
1750743740160915200,9.060915283203125,0.018287500366568565,0.00494999997317791,0.0006874999962747097
1750743740170519300,9.070519287109375,0.015812499448657036,0.00494999997317791,0.004399999976158142
1750743740180123100,9.080123046875,0.010862499475479126,0.00494999997317791,0.0031624999828636646
1750743740189727200,9.089727294921875,0.004812499973922968,0.007424999959766865,-0.0017874999903142452
1750743740199331000,9.0993310546875,0.0010999999940395355,0.008662499487400055,-0.006599999964237213
1750743740208935200,9.10893505859375,-0.002474999986588955,0.00989999994635582,-0.014024999924004078
1750743740218539000,9.1185390625,-0.0037124999798834324,0.006187499966472387,-0.022549999877810478
1750743740228143000,9.12814306640625,-0.006187499966472387,-0.004812499973922968,-0.031075000762939453
1750743740237747200,9.137747314453126,-0.011137500405311584,-0.00976249948143959,-0.02736249938607216
1750743740247351000,9.14735107421875,-0.012374999932944775,-0.002337499987334013,-0.012787500396370888
1750743740256955000,9.156954833984376,-0.012374999932944775,0.00013749999925494194,-0.0005499999970197678
1750743740266559000,9.16655908203125,-0.00989999994635582,-0.004812499973922968,0.0031624999828636646
1750743740276162800,9.176162841796875,-0.008662499487400055,-0.004812499973922968,0.0006874999962747097
1750743740285767000,9.185766845703125,-0.006187499966472387,0.006187499966472387,0.005499999970197678
1750743740295370800,9.195370849609375,-0.006187499966472387,0.01223750039935112,0.018975000828504562
1750743740304974600,9.204974609375,-0.00494999997317791,-0.0035749999806284904,0.020212499424815178
1750743740314578700,9.21457861328125,-0.00494999997317791,-0.007287499960511923,0.010449999943375587
1750743740324182800,9.224182861328124,-0.00494999997317791,-0.0010999999940395355,-0.006599999964237213
1750743740333786600,9.23378662109375,-0.002474999986588955,0.002474999986588955,-0.022549999877810478
1750743740343390500,9.243390380859376,0.002337499987334013,-0.0035749999806284904,-0.026262499392032623
1750743740352994600,9.25299462890625,0.0035749999806284904,-0.01209999993443489,-0.020075000822544098
1750743740362598700,9.2625986328125,0.002337499987334013,-0.020762499421834946,-0.016499999910593033
1750743740372202200,9.2722021484375,0.0035749999806284904,-0.023099999874830246,-0.020075000822544098
1750743740381806300,9.281806396484376,0.006049999967217445,-0.0170499999076128,-0.021312499418854713
1750743740391410400,9.291410400390625,0.010862499475479126,-0.013337500393390656,-0.018837500363588333
1750743740401014300,9.30101416015625,0.013337500393390656,-0.01209999993443489,-0.015262499451637268
1750743740410618400,9.310618408203124,0.0170499999076128,-0.0035749999806284904,-0.014024999924004078
1750743740420222200,9.32022216796875,0.0170499999076128,0.007424999959766865,-0.009074999950826168
1750743740429826300,9.329826416015624,0.018287500366568565,0.007424999959766865,0.0006874999962747097
1750743740439430100,9.33943017578125,0.01952499896287918,0.006187499966472387,0.011687500402331352
1750743740449034200,9.3490341796875,0.015812499448657036,0.0037124999798834324,0.015262499451637268
1750743740458638000,9.35863818359375,0.009624999947845936,0.007424999959766865,0.011687500402331352
1750743740468242000,9.368241943359376,0.002337499987334013,0.00989999994635582,0.010449999943375587
1750743740477846000,9.377845947265625,-0.0037124999798834324,0.008662499487400055,0.009212499484419823
1750743740487449900,9.387449951171876,-0.002474999986588955,0.006187499966472387,0.011687500402331352
1750743740497054000,9.397053955078125,-0.0037124999798834324,0.00494999997317791,0.012924999929964542
1750743740506657800,9.40665771484375,-0.0013749999925494194,0.006187499966472387,0.017737500369548798
1750743740516262000,9.416261962890625,-0.002474999986588955,0.0012374999932944775,0.020212499424815178
1750743740525865700,9.42586572265625,0.0010999999940395355,-0.006049999967217445,0.017737500369548798
1750743740535469600,9.435469482421874,0.0035749999806284904,-0.0085249999538064,0.014162499457597733
1750743740545074000,9.445073974609375,0.0035749999806284904,-0.00976249948143959,0.011687500402331352
1750743740554677500,9.454677490234374,0.002337499987334013,-0.007287499960511923,0.006737499963492155
1750743740564281600,9.464281494140625,-0.00013749999925494194,-0.006049999967217445,0.004399999976158142
1750743740573885400,9.473885498046876,-0.002474999986588955,-0.0035749999806284904,0.0031624999828636646
1750743740583489500,9.483489501953125,-0.002474999986588955,0.0012374999932944775,0.0006874999962747097
1750743740593093600,9.49309375,-0.0037124999798834324,0.007424999959766865,-0.0030249999836087227
1750743740602697500,9.502697509765625,-0.00494999997317791,0.008662499487400055,-0.0017874999903142452
1750743740612301300,9.51230126953125,-0.006187499966472387,0.0037124999798834324,-0.0030249999836087227
1750743740621905400,9.521905517578125,-0.006187499966472387,-0.006049999967217445,-0.010312499478459358
1750743740631509500,9.531509521484375,-0.00494999997317791,0.002474999986588955,-0.011549999937415123
1750743740641113300,9.54111328125,-0.0037124999798834324,-0.002337499987334013,-0.005499999970197678
1750743740650717200,9.55071728515625,-0.0037124999798834324,-0.014574999921023846,0.0006874999962747097
1750743740660321300,9.5603212890625,-0.002474999986588955,-0.013337500393390656,0.007974999956786633
1750743740669925000,9.569925048828125,-0.00494999997317791,0.0012374999932944775,0.017737500369548798
1750743740679529000,9.579529052734374,-0.0037124999798834324,0.0037124999798834324,0.018975000828504562
1750743740689133000,9.589133056640625,-0.0013749999925494194,-0.0035749999806284904,0.012924999929964542
1750743740698737000,9.59873681640625,-0.00013749999925494194,-0.006049999967217445,0.0031624999828636646
1750743740708341000,9.608341064453125,-0.00013749999925494194,-0.006049999967217445,-0.005499999970197678
1750743740717944800,9.61794482421875,-0.0013749999925494194,-0.0085249999538064,-0.016499999910593033
1750743740727549000,9.627548828125,-0.0013749999925494194,-0.010862499475479126,-0.028599999845027924
1750743740737153000,9.637153076171876,-0.00013749999925494194,-0.013337500393390656,-0.03478749841451645
1750743740746756900,9.6467568359375,-0.0013749999925494194,-0.01209999993443489,-0.02502499893307686
1750743740756361000,9.65636083984375,-0.0013749999925494194,-0.0085249999538064,-0.007837500423192978
1750743740765964800,9.66596484375,-0.0037124999798834324,-0.00976249948143959,-0.0005499999970197678
1750743740775568600,9.675568603515625,-0.007424999959766865,-0.01209999993443489,-0.0042624999769032
1750743740785172700,9.6851728515625,-0.006187499966472387,-0.00976249948143959,-0.005499999970197678
1750743740794776600,9.694776611328125,-0.002474999986588955,-0.006049999967217445,0.0006874999962747097
1750743740804380700,9.704380615234374,-0.0013749999925494194,-0.006049999967217445,0.0019249999895691872
1750743740813984500,9.713984619140625,-0.00013749999925494194,-0.0010999999940395355,0.0019249999895691872
1750743740823588600,9.723588623046876,-0.0013749999925494194,0.002474999986588955,-0.0017874999903142452
1750743740833192700,9.733192626953125,-0.00013749999925494194,0.002474999986588955,-0.007837500423192978
1750743740842796500,9.742796630859376,0.0010999999940395355,-0.006049999967217445,-0.015262499451637268
1750743740852400400,9.752400390625,0.002337499987334013,-0.014574999921023846,-0.018837500363588333
1750743740862004500,9.76200439453125,0.004812499973922968,-0.018287500366568565,-0.01759999990463257
1750743740871608300,9.7716083984375,0.0035749999806284904,-0.015812499448657036,-0.012787500396370888
1750743740881212400,9.78121240234375,0.0035749999806284904,-0.01209999993443489,-0.005499999970197678
1750743740890816300,9.790816162109374,0.0010999999940395355,-0.0035749999806284904,-0.0042624999769032
1750743740900420400,9.80042041015625,0.0035749999806284904,-0.0010999999940395355,-0.006599999964237213
1750743740910024200,9.810024169921874,0.002337499987334013,-0.0035749999806284904,-0.009074999950826168
1750743740919628000,9.8196279296875,0.0010999999940395355,-0.0010999999940395355,-0.006599999964237213
1750743740929232100,9.829232177734376,-0.002474999986588955,0.0012374999932944775,-0.009074999950826168
1750743740938836000,9.8388359375,-0.002474999986588955,0.00013749999925494194,-0.009074999950826168
1750743740948440000,9.848440185546876,-0.002474999986588955,-0.0010999999940395355,-0.009074999950826168
1750743740958044200,9.858044189453125,-0.0013749999925494194,-0.010862499475479126,-0.009074999950826168
1750743740967648000,9.86764794921875,-0.00013749999925494194,-0.015812499448657036,-0.007837500423192978
1750743740977252000,9.877252197265625,-0.0013749999925494194,-0.01209999993443489,-0.0042624999769032
1750743740986856000,9.88685595703125,-0.0013749999925494194,-0.0085249999538064,-0.007837500423192978
1750743740996459800,9.896459716796874,-0.00013749999925494194,-0.0085249999538064,-0.012787500396370888
1750743741006063900,9.90606396484375,0.002337499987334013,-0.0085249999538064,-0.015262499451637268
1750743741015667700,9.915667724609374,0.004812499973922968,-0.0085249999538064,-0.012787500396370888
1750743741025271800,9.925271728515625,0.0035749999806284904,-0.004812499973922968,-0.006599999964237213
1750743741034875600,9.934875732421874,0.0010999999940395355,0.0012374999932944775,0.0006874999962747097
1750743741044479700,9.944479736328125,0.0010999999940395355,0.002474999986588955,0.0006874999962747097
1750743741054083600,9.95408349609375,-0.00013749999925494194,0.00013749999925494194,-0.0030249999836087227
1750743741063687400,9.9636875,0.0035749999806284904,-0.0010999999940395355,-0.0042624999769032
1750743741073291800,9.973291748046876,0.0035749999806284904,-0.002337499987334013,-0.0030249999836087227
1750743741082895600,9.9828955078125,0.002337499987334013,-0.0035749999806284904,-0.005499999970197678
1750743741092499500,9.99249951171875,-0.00013749999925494194,-0.002337499987334013,-0.015262499451637268
1750743741102103600,10.002103515625,-0.00494999997317791,-0.002337499987334013,-0.018837500363588333
1750743741111707400,10.011707275390625,-0.00494999997317791,-0.002337499987334013,-0.018837500363588333
1750743741121311500,10.0213115234375,-0.00494999997317791,-0.002337499987334013,-0.016499999910593033
1750743741130915300,10.030915283203125,-0.006187499966472387,-0.004812499973922968,-0.009074999950826168
1750743741140519400,10.04051953125,-0.00494999997317791,-0.004812499973922968,0.005499999970197678
1750743741150123300,10.050123291015625,-0.002474999986588955,-0.0010999999940395355,0.015262499451637268
1750743741159727400,10.059727294921874,0.0035749999806284904,-0.002337499987334013,0.016499999910593033
1750743741169331200,10.069331298828125,0.0035749999806284904,0.00013749999925494194,0.009212499484419823
1750743741178935000,10.07893505859375,0.0010999999940395355,-0.0010999999940395355,0.0031624999828636646
1750743741188539100,10.0885390625,-0.0037124999798834324,-0.007287499960511923,-0.0005499999970197678
1750743741198143200,10.098143310546876,-0.006187499966472387,-0.00976249948143959,0.0006874999962747097
1750743741207747000,10.1077470703125,-0.008662499487400055,-0.01209999993443489,-0.005499999970197678
1750743741217351000,10.117350830078125,-0.007424999959766865,-0.0170499999076128,-0.01759999990463257
1750743741226955000,10.126955078125,-0.00494999997317791,-0.013337500393390656,-0.022549999877810478
1750743741236559000,10.13655908203125,-0.0013749999925494194,-0.0085249999538064,-0.015262499451637268
1750743741246163000,10.146162841796874,0.002337499987334013,-0.00976249948143959,0.004399999976158142
1750743741255766800,10.155766845703125,0.004812499973922968,-0.00976249948143959,0.018975000828504562
1750743741265371000,10.165370849609374,0.004812499973922968,-0.010862499475479126,0.017737500369548798
1750743741274975000,10.17497509765625,0.004812499973922968,-0.0035749999806284904,0.010449999943375587
1750743741284578800,10.184578857421876,0.004812499973922968,0.0012374999932944775,0.007974999956786633
1750743741294183000,10.194182861328125,-0.00013749999925494194,-0.002337499987334013,0.0019249999895691872
1750743741303786500,10.203786376953126,-0.002474999986588955,-0.002337499987334013,-0.010312499478459358
1750743741313390800,10.213390869140625,-0.0013749999925494194,0.00494999997317791,-0.021312499418854713
1750743741322994700,10.22299462890625,-0.002474999986588955,0.010999999940395355,-0.028599999845027924
1750743741332598800,10.232598876953125,-0.002474999986588955,0.007424999959766865,-0.03231250122189522
1750743741342202600,10.24220263671875,-0.0013749999925494194,0.0012374999932944775,-0.02502499893307686
1750743741351806500,10.251806396484374,-0.002474999986588955,-0.006049999967217445,-0.010312499478459358
1750743741361410600,10.26141064453125,-0.002474999986588955,-0.013337500393390656,0.0031624999828636646
1750743741371014400,10.271014404296874,-0.0013749999925494194,-0.018287500366568565,0.007974999956786633
1750743741380618500,10.280618408203125,-0.0013749999925494194,-0.0170499999076128,0.007974999956786633
1750743741390222600,10.29022265625,-0.00013749999925494194,-0.01209999993443489,0.011687500402331352
1750743741399826400,10.299826416015625,-0.00013749999925494194,-0.006049999967217445,0.014162499457597733
1750743741409430300,10.30943017578125,-0.00013749999925494194,0.0012374999932944775,0.004399999976158142
1750743741419034400,10.319034423828125,-0.00013749999925494194,0.00494999997317791,-0.009074999950826168
1750743741428638200,10.32863818359375,-0.00013749999925494194,0.006187499966472387,-0.016499999910593033
1750743741438242300,10.3382421875,-0.0013749999925494194,0.00494999997317791,-0.016499999910593033
1750743741447846100,10.34784619140625,-0.002474999986588955,-0.0010999999940395355,-0.011549999937415123
1750743741457450200,10.3574501953125,-0.0013749999925494194,-0.0035749999806284904,-0.007837500423192978
1750743741467054000,10.36705419921875,-0.00013749999925494194,-0.006049999967217445,-0.007837500423192978
1750743741476658000,10.376657958984374,0.0010999999940395355,-0.0085249999538064,-0.012787500396370888
1750743741486262000,10.386261962890625,0.0035749999806284904,-0.013337500393390656,-0.01759999990463257
1750743741495865900,10.395865966796874,0.0035749999806284904,-0.0170499999076128,-0.011549999937415123
1750743741505470000,10.405469970703125,0.004812499973922968,-0.018287500366568565,-0.0030249999836087227
1750743741515073800,10.41507373046875,0.0035749999806284904,-0.015812499448657036,0.0006874999962747097
1750743741524678000,10.424677978515625,0.0035749999806284904,-0.01209999993443489,-0.005499999970197678
1750743741534282000,10.434281982421876,0.002337499987334013,-0.010862499475479126,-0.010312499478459358
1750743741543885600,10.443885498046875,0.0010999999940395355,-0.006049999967217445,-0.007837500423192978
1750743741553490000,10.453489990234376,0.0010999999940395355,-0.007287499960511923,-0.0005499999970197678
1750743741563094000,10.463093994140625,-0.002474999986588955,-0.0170499999076128,0.0019249999895691872
1750743741572697600,10.472697509765625,-0.006187499966472387,-0.014574999921023846,-0.0030249999836087227
1750743741582301700,10.4823017578125,-0.008662499487400055,-0.006049999967217445,-0.009074999950826168
1750743741591905800,10.49190576171875,-0.006187499966472387,-0.002337499987334013,-0.012787500396370888
1750743741601509600,10.501509521484374,-0.002474999986588955,0.00494999997317791,-0.011549999937415123
1750743741611113500,10.511113525390625,-0.0013749999925494194,-0.002337499987334013,-0.01759999990463257
1750743741620717600,10.520717529296874,0.0035749999806284904,-0.007287499960511923,-0.026262499392032623
1750743741630321700,10.53032177734375,0.004812499973922968,0.00013749999925494194,-0.021312499418854713
1750743741639925500,10.539925537109376,0.0010999999940395355,0.00494999997317791,-0.009074999950826168
1750743741649529300,10.549529296875,-0.00013749999925494194,0.0037124999798834324,-0.0030249999836087227
1750743741659133400,10.559133544921876,-0.00013749999925494194,0.0012374999932944775,-0.006599999964237213
1750743741668737300,10.5687373046875,-0.00013749999925494194,-0.002337499987334013,-0.009074999950826168
1750743741678341400,10.57834130859375,-0.002474999986588955,-0.004812499973922968,-0.006599999964237213
1750743741687945500,10.587945556640625,-0.0037124999798834324,-0.002337499987334013,-0.007837500423192978
1750743741697549300,10.59754931640625,-0.00494999997317791,-0.0010999999940395355,-0.012787500396370888
1750743741707153200,10.607153076171874,-0.007424999959766865,0.00013749999925494194,-0.015262499451637268
1750743741716757000,10.616757080078125,-0.008662499487400055,0.0037124999798834324,-0.012787500396370888
1750743741726361000,10.626361083984374,-0.011137500405311584,0.002474999986588955,-0.012787500396370888
1750743741735965000,10.63596484375,-0.0147124994546175,-0.0010999999940395355,-0.018837500363588333
1750743741745569000,10.645569091796874,-0.0147124994546175,-0.0010999999940395355,-0.02983750030398369
1750743741755172900,10.6551728515625,-0.01347499992698431,-0.0035749999806284904,-0.03478749841451645
1750743741764777000,10.66477685546875,-0.011137500405311584,-0.004812499973922968,-0.03231250122189522
1750743741774381000,10.674381103515625,-0.00989999994635582,-0.0010999999940395355,-0.03355000168085098
1750743741783985000,10.68398486328125,-0.012374999932944775,0.002474999986588955,-0.03959999978542328
1750743741793588700,10.693588623046875,-0.011137500405311584,-0.0010999999940395355,-0.048262499272823334
1750743741803192800,10.70319287109375,-0.00989999994635582,-0.0035749999806284904,-0.050599999725818634
1750743741812796700,10.712796630859375,-0.00989999994635582,-0.0035749999806284904,-0.050599999725818634
1750743741822400800,10.72240087890625,-0.012374999932944775,-0.0085249999538064,-0.04702499881386757
1750743741832004600,10.732004638671874,-0.008662499487400055,-0.0170499999076128,-0.038362499326467514
1750743741841608700,10.741608642578125,-0.00989999994635582,-0.01209999993443489,-0.028599999845027924
1750743741851212800,10.751212890625,-0.01347499992698431,-0.004812499973922968,-0.021312499418854713
1750743741860816600,10.760816650390625,-0.0147124994546175,-0.007287499960511923,-0.022549999877810478
1750743741870420700,10.770420654296874,-0.012374999932944775,-0.015812499448657036,-0.018837500363588333
1750743741880024300,10.7800244140625,-0.008662499487400055,-0.013337500393390656,-0.005499999970197678
1750743741889628400,10.78962841796875,-0.006187499966472387,-0.00976249948143959,0.009212499484419823
1750743741899232500,10.799232421875,-0.00013749999925494194,-0.013337500393390656,0.017737500369548798
1750743741908836400,10.80883642578125,0.0035749999806284904,-0.015812499448657036,0.03492499887943268
1750743741918440400,10.8184404296875,0.0085249999538064,-0.013337500393390656,0.06297499686479568
1750743741928044300,10.828044189453125,0.0085249999538064,-0.002337499987334013,0.09844999760389328
1750743741937648400,10.8376484375,-0.0013749999925494194,0.00494999997317791,0.148499995470047
1750743741947252200,10.847252197265625,-0.011137500405311584,-0.01209999993443489,0.19607499241828918
1750743741956856300,10.856856201171874,-0.0147124994546175,-0.015812499448657036,0.24255000054836273
1750743741966460400,10.86646044921875,-0.020899999886751175,0.052662499248981476,0.295074999332428
1750743741976064300,10.876064208984374,-0.047712501138448715,0.2798124849796295,0.4123624861240387
1750743741985668000,10.885668212890625,-0.11976250261068344,0.5388625264167786,0.6946499943733215
1750743741995272200,10.895272216796876,-0.18947499990463257,0.6621999740600586,1.1221375465393066
1750743742004876000,10.9048759765625,-0.19071249663829803,0.6671500205993652,1.5877125263214111
1750743742014480100,10.914480224609376,-0.15152500569820404,0.6206749677658081,1.9188125133514404
1750743742024084200,10.924084228515625,-0.07699999958276749,0.5143874883651733,2.0494375228881836
1750743742033688000,10.93368798828125,0.0010999999940395355,0.3605250120162964,2.0336248874664307
1750743742043292000,10.9432919921875,0.020624998956918716,0.1882375031709671,1.9016250371932983
1750743742052896000,10.95289599609375,-0.012374999932944775,0.02694999985396862,1.6317124366760254
1750743742062499800,10.962499755859374,-0.06366249918937683,-0.0658624991774559,1.2578500509262085
1750743742072104000,10.97210400390625,-0.10023749619722366,-0.07081250101327896,0.898562490940094
1750743742081707800,10.981707763671874,-0.11247500032186508,-0.07809999585151672,0.6017000079154968
1750743742091311900,10.991311767578125,-0.10023749619722366,-0.11110000312328339,0.3488374948501587
1750743742100915700,11.000915771484374,-0.0648999959230423,-0.13433749973773956,0.13378749787807465
1750743742110519800,11.010519775390625,-0.029424998909235,-0.13433749973773956,-0.05678749829530716
1750743742120124000,11.0201240234375,-0.0013749999925494194,-0.11962500214576721,-0.2400749921798706
1750743742129727500,11.0297275390625,0.018287500366568565,-0.11715000122785568,-0.4281750023365021
1750743742139331600,11.03933154296875,0.02928750030696392,-0.11110000312328339,-0.6199874877929688
1750743742148935700,11.048935791015625,0.0340999998152256,-0.09033749997615814,-0.7958499789237976
1750743742158539800,11.058539794921876,0.04138749837875366,-0.10009999573230743,-0.9351375102996826
1750743742168143600,11.0681435546875,0.05857500061392784,-0.17338749766349792,-1.0451375246047974
1750743742177747500,11.07774755859375,0.08910000324249268,-0.26743748784065247,-1.13423752784729
1750743742187351600,11.0873515625,0.11715000122785568,-0.31267499923706055,-1.2124749422073364
1750743742196955400,11.096955322265625,0.13062499463558197,-0.297962486743927,-1.3029500246047974
1750743742206559200,11.106559326171874,0.12815000116825104,-0.26510000228881836,-1.3994749784469604
1750743742216163600,11.11616357421875,0.11481250077486038,-0.24062499403953552,-1.4825249910354614
1750743742225767200,11.12576708984375,0.10491249710321426,-0.24914999306201935,-1.5276249647140503
1750743742235371300,11.135371337890625,0.09886249899864197,-0.27719998359680176,-1.4848624467849731
1750743742244975000,11.14497509765625,0.09157499670982361,-0.26510000228881836,-1.3272874355316162
1750743742254579200,11.1545791015625,0.08181250095367432,-0.21738749742507935,-1.0939500331878662
1750743742264183000,11.16418310546875,0.06338749825954437,-0.1428624987602234,-0.8410875201225281
1750743742273787100,11.173787109375,0.04262499883770943,-0.07438749819993973,-0.6089875102043152
1750743742283391200,11.18339111328125,0.01952499896287918,-0.028049999848008156,-0.40988749265670776
1750743742292995000,11.1929951171875,0.0010999999940395355,-0.01209999993443489,-0.2583625018596649
1750743742302599200,11.20259912109375,-0.006187499966472387,-0.02433750033378601,-0.15812499821186066
1750743742312203000,11.212203125,-0.006187499966472387,-0.045099999755620956,-0.09459999948740005
1750743742321806800,11.221806884765625,-0.0013749999925494194,-0.04881250113248825,-0.050599999725818634
1750743742331411000,11.231410888671874,0.007287499960511923,-0.05004999786615372,-0.010312499478459358
1750743742341014800,11.241014892578125,0.018287500366568565,-0.02928750030696392,0.026262499392032623
1750743742350619000,11.250618896484376,0.025575000792741776,-0.004812499973922968,0.05321250110864639
1750743742360222700,11.26022265625,0.02928750030696392,0.0037124999798834324,0.060499999672174454
1750743742369826600,11.26982666015625,0.030387500301003456,0.006187499966472387,0.055687498301267624
1750743742379430700,11.2794306640625,0.02928750030696392,0.00989999994635582,0.04097500070929527
1750743742389034500,11.289034423828125,0.02928750030696392,0.0037124999798834324,0.016499999910593033
1750743742398638600,11.298638671875,0.030387500301003456,-0.002337499987334013,-0.015262499451637268
1750743742408242400,11.308242431640625,0.030387500301003456,-0.006049999967217445,-0.04702499881386757
1750743742417846500,11.317846435546874,0.030387500301003456,-0.00976249948143959,-0.06531249731779099
1750743742427450400,11.327450439453125,0.02433750033378601,-0.014574999921023846,-0.06407500058412552
1750743742437054500,11.337054443359374,0.018287500366568565,-0.0170499999076128,-0.0518375001847744
1750743742446658600,11.346658447265625,0.007287499960511923,-0.014574999921023846,-0.04455000162124634
1750743742456262400,11.356262451171874,-0.0013749999925494194,-0.0170499999076128,-0.03959999978542328
1750743742465866500,11.365866455078125,-0.002474999986588955,-0.013337500393390656,-0.031075000762939453
1750743742475470300,11.37547021484375,-0.00494999997317791,-0.00976249948143959,-0.014024999924004078
1750743742485074200,11.38507421875,-0.0037124999798834324,-0.01209999993443489,0.005499999970197678
1750743742494678300,11.39467822265625,-0.00013749999925494194,-0.0085249999538064,0.020212499424815178
1750743742504282000,11.4042822265625,0.004812499973922968,-0.0035749999806284904,0.020212499424815178
1750743742513886200,11.41388623046875,0.0085249999538064,0.0012374999932944775,0.012924999929964542
1750743742523490000,11.423489990234375,0.009624999947845936,0.00989999994635582,0.006737499963492155
1750743742533094100,11.43309423828125,0.0085249999538064,0.00989999994635582,0.004399999976158142
1750743742542698200,11.4426982421875,0.006049999967217445,0.0012374999932944775,-0.009074999950826168
1750743742552301800,11.4523017578125,0.002337499987334013,-0.0085249999538064,-0.026262499392032623
1750743742561906000,11.461906005859374,-0.0013749999925494194,0.0012374999932944775,-0.02983750030398369
1750743742571510000,11.471510009765625,-0.00494999997317791,0.0037124999798834324,-0.023787500336766243
