time,seconds_elapsed,z,y,x
1750743731162024000,0.06202392578125,0.0031624999828636646,0.40755000710487366,-0.31693750619888306
1750743731171627800,0.071627685546875,-0.004124999977648258,0.3880249857902527,-0.18617500364780426
1750743731181231600,0.081231689453125,-0.040837500244379044,0.34031251072883606,-0.1190750002861023
1750743731190835500,0.09083544921875,-0.06764999777078629,0.24502499401569366,-0.12031249701976776
1750743731200439300,0.100439208984375,-0.05912499874830246,0.10092499852180481,-0.17407499253749847
1750743731210043400,0.11004345703125,-0.011549999937415123,-0.060362499207258224,-0.22659999132156372
1750743731219647200,0.119647216796875,0.06173750013113022,-0.19236250221729279,-0.23017500340938568
1750743731229251000,0.1292509765625,0.11550000309944153,-0.31212499737739563,-0.20817500352859497
1750743731238855200,0.138855224609375,0.14121249318122864,-0.4452250003814697,-0.2046000063419342
1750743731248459000,0.148458984375,0.15826250612735748,-0.5467000007629395,-0.2241249978542328
1750743731258062800,0.158062744140625,0.1779250055551529,-0.6272749900817871,-0.260699987411499
1750743731267667000,0.1676669921875,0.1779250055551529,-0.6700375080108643,-0.27665001153945923
1750743731277270800,0.177270751953125,0.1704999953508377,-0.6737499833106995,-0.24736249446868896
1750743731286875000,0.186875,0.16321249306201935,-0.6175125241279602,-0.19236250221729279
1750743731296478500,0.196478515625,0.14973749220371246,-0.5357000231742859,-0.13241249322891235
1750743731306082600,0.20608251953125,0.13144999742507935,-0.4329875111579895,-0.11288750171661377
1750743731315686700,0.215686767578125,0.12044999748468399,-0.28517499566078186,-0.14464999735355377
1750743731325290200,0.225290283203125,0.10339999943971634,-0.14231249690055847,-0.18383750319480896
1750743731334894000,0.23489404296875,0.09239999949932098,-0.011549999937415123,-0.22165000438690186
1750743731344498200,0.244498291015625,0.1326874941587448,-0.005362499970942736,-0.25341248512268066
1750743731354102000,0.25410205078125,0.16197499632835388,-0.12759999930858612,-0.25712499022483826
1750743731363705900,0.263705810546875,0.1264999955892563,-0.4587000012397766,-0.17036250233650208
1750743731373310000,0.27331005859375,0.016637500375509262,-1.0023750066757202,0.06668750196695328
1750743731382913800,0.282913818359375,-0.09941250085830688,-1.349287509918213,0.25850000977516174
1750743731392518000,0.292517822265625,-0.15193749964237213,-1.5655750036239624,0.40878748893737793
1750743731402121500,0.30212158203125,-0.14588749408721924,-1.5936249494552612,0.5296499729156494
1750743731411725600,0.3117255859375,-0.13488750159740448,-1.4825249910354614,0.6066499948501587
1750743731421329400,0.321329345703125,-0.13983750343322754,-1.245474934577942,0.6628875136375427
1750743731430933500,0.33093359375,-0.1373624950647354,-0.9278500080108643,0.683650016784668
1750743731440537300,0.340537353515625,-0.13488750159740448,-0.6432250142097473,0.6628875136375427
1750743731450141200,0.35014111328125,-0.14093749225139618,-0.4404124915599823,0.6151750087738037
1750743731459745300,0.359745361328125,-0.16541250050067902,-0.2839374840259552,0.5394124984741211
1750743731469348900,0.369348876953125,-0.19841249287128448,-0.18507499992847443,0.4478375017642975
1750743731478953000,0.378952880859375,-0.19965000450611115,-0.1373624950647354,0.3573625087738037
1750743731488557000,0.38855712890625,-0.19841249287128448,-0.07012499868869781,0.259737491607666
1750743731498161000,0.398160888671875,-0.20817500352859497,0.009212499484419823,0.16321249306201935
1750743731507765000,0.407764892578125,-0.22769999504089355,0.1106875017285347,0.0812624990940094
1750743731517368600,0.41736865234375,-0.2582249939441681,0.28654998540878296,0.011687500402331352
1750743731526972700,0.42697265625,-0.3119874894618988,0.5186499953269958,-0.06778749823570251
1750743731536576500,0.436576416015625,-0.39022499322891235,0.7056499719619751,-0.17036250233650208
1750743731546180600,0.4461806640625,-0.44769999384880066,0.6774625182151794,-0.30346250534057617
1750743731555784400,0.455784423828125,-0.41593748331069946,0.3268375098705292,-0.47574999928474426
1750743731565388300,0.46538818359375,-0.22536249458789825,-0.08236250281333923,-0.5539875030517578
1750743731574992100,0.4749921875,0.0019249999895691872,-0.24117499589920044,-0.3854124844074249
1750743731584596000,0.484595947265625,0.12526249885559082,-0.2901250123977661,-0.07631249725818634
1750743731594200000,0.494199951171875,0.13750000298023224,-0.22165000438690186,0.15097500383853912
1750743731603804000,0.503803955078125,0.08744999766349792,0.0006874999962747097,0.295074999332428
1750743731613408000,0.513407958984375,0.031212499365210533,0.16073749959468842,0.3097875118255615
1750743731623011800,0.52301171875,-0.005362499970942736,0.19249999523162842,0.20350000262260437
1750743731632615700,0.53261572265625,-0.021312499418854713,0.1350249946117401,0.05926249921321869
1750743731642219500,0.542219482421875,-0.012787500396370888,0.06173750013113022,-0.0518375001847744
1750743731651823400,0.5518232421875,-0.0028874999843537807,0.027499999850988388,-0.11412499845027924
1750743731661427500,0.561427490234375,-0.012787500396370888,-0.011549999937415123,-0.14464999735355377
1750743731671031300,0.57103125,-0.02488750033080578,-0.006599999964237213,-0.16417500376701355
1750743731680635100,0.58063525390625,-0.03959999978542328,0.028737500309944153,-0.1825999915599823
1750743731690239000,0.590239013671875,-0.04936249926686287,0.06544999778270721,-0.18617500364780426
1750743731699843000,0.599843017578125,-0.038362499326467514,0.09226249903440475,-0.1568875014781952
1750743731709447000,0.609447021484375,-0.01759999990463257,0.10573749989271164,-0.09707500040531158
1750743731719050800,0.61905078125,-0.005362499970942736,0.10092499852180481,-0.03231250122189522
1750743731728654800,0.62865478515625,0.0019249999895691872,0.08992499858140945,0.009212499484419823
1750743731738258700,0.6382587890625,0.009212499484419823,0.06544999778270721,0.031212499365210533
1750743731747862500,0.647862548828125,0.014162499457597733,0.017737500369548798,0.055687498301267624
1750743731757466600,0.657466552734375,0.018975000828504562,-0.007837500423192978,0.08992499858140945
1750743731767070500,0.667070556640625,0.025162499397993088,-0.009074999950826168,0.13021250069141388
1750743731776674600,0.676674560546875,0.04221250116825104,0.012924999929964542,0.15578749775886536
1750743731786278400,0.6862783203125,0.03492499887943268,0.021449999883770943,0.1667875051498413
1750743731795882200,0.69588232421875,0.018975000828504562,0.014162499457597733,0.15702499449253082
1750743731805486000,0.705486083984375,0.0031624999828636646,0.018975000828504562,0.15468749403953552
1750743731815090200,0.715090087890625,-0.013887500390410423,0.026399999856948853,0.15826250612735748
1750743731824694300,0.7246943359375,-0.035887498408555984,0.028737500309944153,0.14726249873638153
1750743731834297900,0.7342978515625,-0.053075000643730164,0.048262499272823334,0.10326249897480011
1750743731843902000,0.74390185546875,-0.06407500058412552,0.07397499680519104,0.04097500070929527
1750743731853505800,0.753505859375,-0.07012499868869781,0.07150000333786011,-0.009074999950826168
1750743731863110000,0.76310986328125,-0.06407500058412552,0.08373750001192093,-0.048124998807907104
1750743731872713700,0.772713623046875,-0.04207500070333481,0.08621250092983246,-0.0873124971985817
1750743731882317600,0.782317626953125,-0.004124999977648258,0.06668750196695328,-0.1153625026345253
1750743731891921700,0.791921630859375,0.029975000768899918,0.05816249921917915,-0.1313125044107437
1750743731901525800,0.80152587890625,0.03863750025629997,0.025162499397993088,-0.1568875014781952
1750743731911129300,0.81112939453125,0.026399999856948853,0.0031624999828636646,-0.17641249299049377
1750743731920733400,0.8207333984375,0.015399999916553497,0.031212499365210533,-0.17036250233650208
1750743731930337300,0.830337158203125,0.0019249999895691872,0.03849999979138374,-0.14836250245571136
1750743731939941000,0.839941162109375,-0.011549999937415123,0.016499999910593033,-0.12031249701976776
1750743731949545000,0.849544921875,-0.013887500390410423,0.012924999929964542,-0.08607500046491623
1750743731959149000,0.859149169921875,-0.012787500396370888,0.014162499457597733,-0.03959999978542328
1750743731968753200,0.868753173828125,-0.005362499970942736,0.026399999856948853,0.015399999916553497
1750743731978356700,0.878356689453125,0.0006874999962747097,0.0494999997317791,0.06916250288486481
1750743731987960800,0.8879609375,-0.004124999977648258,0.0752125009894371,0.09844999760389328
1750743731997564700,0.897564697265625,-0.015124999918043613,0.08992499858140945,0.10326249897480011
1750743732007168800,0.907168701171875,-0.02488750033080578,0.08373750001192093,0.09597499668598175
1750743732016772600,0.916772705078125,-0.016362499445676804,0.06916250288486481,0.10092499852180481
1750743732026376400,0.92637646484375,-0.0005499999970197678,0.05444999784231186,0.11921250075101852
1750743732035980500,0.93598046875,0.008112499490380287,0.060499999672174454,0.13626250624656677
1750743732045584400,0.94558447265625,0.004399999976158142,0.0849749967455864,0.13144999742507935
1750743732055188200,0.955188232421875,-0.010312499478459358,0.10326249897480011,0.10092499852180481
1750743732064792000,0.9647919921875,-0.020075000822544098,0.09350000321865082,0.0812624990940094
1750743732074396200,0.974396240234375,-0.007837500423192978,0.09350000321865082,0.09116250276565552
1750743732084000000,0.984,0.008112499490380287,0.028737500309944153,0.1106875017285347
1750743732093603800,0.993603759765625,0.012924999929964542,-0.058024998754262924,0.13021250069141388
1750743732103208000,1.0032080078125,0.0019249999895691872,-0.09088750183582306,0.14121249318122864
1750743732112811800,1.012811767578125,-0.015124999918043613,-0.0835999995470047,0.13626250624656677
1750743732122415900,1.022415771484375,-0.026124998927116394,-0.06902500241994858,0.11550000309944153
1750743732132019700,1.032019775390625,-0.031075000762939453,-0.09088750183582306,0.08016250282526016
1750743732141623600,1.04162353515625,-0.022549999877810478,-0.1251250058412552,0.0471624992787838
1750743732151227400,1.051227294921875,-0.015124999918043613,-0.16307500004768372,0.03492499887943268
1750743732160831500,1.06083154296875,-0.007837500423192978,-0.19965000450611115,0.021449999883770943
1750743732170435300,1.070435302734375,-0.009074999950826168,-0.20336249470710754,-0.016362499445676804
1750743732180039200,1.0800390625,-0.021312499418854713,-0.2595999836921692,-0.07259999960660934
1750743732189643300,1.089643310546875,-0.013887500390410423,-0.3572250008583069,-0.133650004863739
1750743732199247000,1.0992470703125,-0.010312499478459358,-0.38788750767707825,-0.16788749396800995
1750743732208851200,1.108851318359375,-0.018837500363588333,-0.3231250047683716,-0.17641249299049377
1750743732218454800,1.118454833984375,-0.028599999845027924,-0.18507499992847443,-0.15207499265670776
1750743732228059000,1.128058837890625,-0.048124998807907104,-0.038362499326467514,-0.1093124970793724
1750743732237663000,1.1376630859375,-0.07864999771118164,0.06668750196695328,-0.05912499874830246
1750743732247266600,1.1472666015625,-0.10436250269412994,0.12278749793767929,-0.011549999937415123
1750743732256871000,1.156870849609375,-0.11412499845027924,0.17297500371932983,0.026399999856948853
1750743732266474500,1.166474609375,-0.1116499975323677,0.2657875120639801,0.0494999997317791
1750743732276078600,1.17607861328125,-0.10312499850988388,0.41359999775886536,0.023924998939037323
1750743732285682400,1.185682373046875,-0.10807500034570694,0.5491750240325928,-0.03959999978542328
1750743732295286300,1.195286376953125,-0.13241249322891235,0.6433625221252441,-0.1116499975323677
1750743732304890400,1.204890380859375,-0.15193749964237213,0.6726499795913696,-0.16307500004768372
1750743732314494200,1.214494140625,-0.15441249310970306,0.6433625221252441,-0.22288750112056732
1750743732324098300,1.224098388671875,-0.15812499821186066,0.534600019454956,-0.30236250162124634
1750743732333702100,1.2337021484375,-0.13859999179840088,0.4723125100135803,-0.37070000171661377
1750743732343306000,1.243305908203125,-0.10436250269412994,0.4856500029563904,-0.38417500257492065
1750743732352909800,1.252909912109375,-0.08236250281333923,0.49431249499320984,-0.3328875005245209
1750743732362514000,1.262513916015625,-0.06888750195503235,0.4221250116825104,-0.22659999132156372
1750743732372117800,1.27211767578125,-0.05431250110268593,0.30002498626708984,-0.0873124971985817
1750743732381721600,1.2817216796875,-0.031075000762939453,0.17297500371932983,0.05692499876022339
1750743732391325700,1.29132568359375,-0.010312499478459358,0.05692499876022339,0.17173749208450317
1750743732400929500,1.300929443359375,-0.0028874999843537807,-0.011549999937415123,0.2217874974012375
1750743732410533400,1.310533447265625,-0.004124999977648258,-0.031075000762939453,0.20350000262260437
1750743732420137500,1.320137451171875,-0.004124999977648258,-0.026262499392032623,0.14121249318122864
1750743732429741300,1.3297412109375,-0.0005499999970197678,-0.026262499392032623,0.060499999672174454
1750743732439345400,1.339345458984375,0.004399999976158142,-0.05678749829530716,-0.011549999937415123
1750743732448949000,1.348948974609375,0.012924999929964542,-0.10436250269412994,-0.060362499207258224
1750743732458553000,1.358552978515625,0.022687500342726707,-0.1471250057220459,-0.08607500046491623
1750743732468157000,1.368156982421875,0.031212499365210533,-0.18617500364780426,-0.09212499856948853
1750743732477761000,1.377760986328125,0.04468749836087227,-0.19717499613761902,-0.08855000138282776
1750743732487364900,1.38736474609375,0.05321250110864639,-0.1886499971151352,-0.07631249725818634
1750743732496968700,1.39696875,0.05939999967813492,-0.18507499992847443,-0.05912499874830246
1750743732506572800,1.40657275390625,0.07273750007152557,-0.172837495803833,-0.04702499881386757
1750743732516176600,1.4161767578125,0.0849749967455864,-0.15936249494552612,-0.04331250116229057
1750743732525780700,1.42578076171875,0.09350000321865082,-0.1471250057220459,-0.045787498354911804
1750743732535384300,1.43538427734375,0.10339999943971634,-0.14836250245571136,-0.03355000168085098
1750743732544988400,1.444988525390625,0.1069749966263771,-0.16431249678134918,0.0019249999895691872
1750743732554592300,1.45459228515625,0.10216250270605087,-0.17159999907016754,0.043449997901916504
1750743732564196400,1.4641962890625,0.08744999766349792,-0.17407499253749847,0.07026249915361404
1750743732573800200,1.47380029296875,0.06916250288486481,-0.17159999907016754,0.0789249986410141
1750743732583404300,1.483404296875,0.04839999973773956,-0.14959999918937683,0.07644999772310257
1750743732593008000,1.493008056640625,0.03368749842047691,-0.10559999942779541,0.06544999778270721
1750743732602612000,1.502612060546875,0.026399999856948853,-0.07631249725818634,0.0471624992787838
1750743732612215800,1.5122158203125,0.029975000768899918,-0.08112499862909317,0.03739999979734421
1750743732621820000,1.52181982421875,0.03863750025629997,-0.10436250269412994,0.027499999850988388
1750743732631423700,1.531423828125,0.043449997901916504,-0.12264999747276306,0.014162499457597733
1750743732641027600,1.541027587890625,0.043449997901916504,-0.12031249701976776,-0.0017874999903142452
1750743732650631700,1.550631591796875,0.04097500070929527,-0.09336250275373459,-0.016362499445676804
1750743732660235500,1.560235595703125,0.03739999979734421,-0.05678749829530716,-0.02502499893307686
1750743732669839400,1.56983935546875,0.03368749842047691,-0.031075000762939453,-0.02736249938607216
1750743732679443500,1.579443359375,0.026399999856948853,-0.026262499392032623,-0.03355000168085098
1750743732689047600,1.589047607421875,0.014162499457597733,-0.03478749841451645,-0.04702499881386757
1750743732698651400,1.5986513671875,0.0019249999895691872,-0.03478749841451645,-0.06655000150203705
1750743732708255500,1.60825537109375,-0.009074999950826168,-0.03712499886751175,-0.07136250287294388
1750743732717859000,1.617859130859375,-0.012787500396370888,-0.03355000168085098,-0.05912499874830246
1750743732727463200,1.627463134765625,-0.013887500390410423,-0.028599999845027924,-0.03712499886751175
1750743732737067000,1.63706689453125,-0.015124999918043613,-0.016362499445676804,-0.007837500423192978
1750743732746670800,1.6466708984375,-0.015124999918043613,-0.0042624999769032,0.026399999856948853
1750743732756275000,1.65627490234375,-0.022549999877810478,-0.009074999950826168,0.04592499881982803
1750743732765878800,1.665878662109375,-0.028599999845027924,-0.018837500363588333,0.04468749836087227
1750743732775483000,1.67548291015625,-0.03355000168085098,-0.022549999877810478,0.027499999850988388
1750743732785086500,1.68508642578125,-0.035887498408555984,-0.023787500336766243,-0.0005499999970197678
1750743732794690600,1.694690673828125,-0.035887498408555984,-0.022549999877810478,-0.028599999845027924
1750743732804294400,1.70429443359375,-0.035887498408555984,-0.031075000762939453,-0.04207500070333481
1750743732813898500,1.7138984375,-0.035887498408555984,-0.028599999845027924,-0.03231250122189522
1750743732823502300,1.72350244140625,-0.03712499886751175,-0.015262499451637268,-0.009074999950826168
1750743732833106200,1.733106201171875,-0.035887498408555984,-0.005362499970942736,0.007974999956786633
1750743732842710300,1.742710205078125,-0.031075000762939453,-0.0017874999903142452,0.017737500369548798
1750743732852314000,1.752314208984375,-0.028599999845027924,-0.014024999924004078,0.026399999856948853
1750743732861918000,1.76191796875,-0.035887498408555984,-0.031075000762939453,0.027499999850988388
1750743732871522300,1.771522216796875,-0.04455000162124634,-0.03712499886751175,0.015399999916553497
1750743732881126000,1.7811259765625,-0.048124998807907104,-0.036024998873472214,-0.009074999950826168
1750743732890730000,1.79072998046875,-0.048124998807907104,-0.028599999845027924,-0.031075000762939453
1750743732900333800,1.800333740234375,-0.04688749834895134,-0.012787500396370888,-0.040837500244379044
1750743732909938000,1.80993798828125,-0.040837500244379044,0.014162499457597733,-0.050599999725818634
1750743732919541800,1.819541748046875,-0.03959999978542328,0.03616249933838844,-0.06159999966621399
1750743732929145600,1.8291455078125,-0.04936249926686287,0.0494999997317791,-0.060362499207258224
1750743732938749400,1.83874951171875,-0.057887498289346695,0.04468749836087227,-0.04455000162124634
1750743732948353300,1.848353271484375,-0.06159999966621399,0.03726249933242798,-0.014024999924004078
1750743732957957600,1.85795751953125,-0.05912499874830246,0.03849999979138374,0.022687500342726707
1750743732967561200,1.867561279296875,-0.05555000156164169,0.03973750025033951,0.0471624992787838
1750743732977165300,1.877165283203125,-0.048124998807907104,0.03973750025033951,0.05444999784231186
1750743732986769200,1.88676904296875,-0.03355000168085098,0.03616249933838844,0.04839999973773956
1750743732996373000,1.896373046875,-0.020075000822544098,0.03244999796152115,0.03849999979138374
1750743733005977000,1.90597705078125,-0.006599999964237213,0.026399999856948853,0.025162499397993088
1750743733015581000,1.915580810546875,0.0006874999962747097,0.017737500369548798,0.011687500402331352
1750743733025185000,1.92518505859375,0.006874999962747097,0.011687500402331352,0.0019249999895691872
1750743733034788600,1.93478857421875,0.009212499484419823,0.004399999976158142,-0.006599999964237213
1750743733044392700,1.944392822265625,0.008112499490380287,-0.009074999950826168,-0.011549999937415123
1750743733053996500,1.95399658203125,0.0056374999694526196,-0.023787500336766243,-0.009074999950826168
1750743733063600600,1.9636005859375,0.006874999962747097,-0.036024998873472214,0.0006874999962747097
1750743733073204700,1.973204833984375,0.008112499490380287,-0.02983750030398369,0.014162499457597733
1750743733082808600,1.98280859375,0.010449999943375587,-0.01759999990463257,0.022687500342726707
1750743733092412400,1.992412353515625,0.010449999943375587,-0.011549999937415123,0.022687500342726707
1750743733102016500,2.0020166015625,0.0056374999694526196,-0.011549999937415123,0.011687500402331352
1750743733111620400,2.011620361328125,0.0006874999962747097,-0.015262499451637268,-0.007837500423192978
1750743733121224200,2.02122412109375,-0.0017874999903142452,-0.018837500363588333,-0.02502499893307686
1750743733130828000,2.030828125,0.0019249999895691872,-0.023787500336766243,-0.03231250122189522
1750743733140432100,2.04043212890625,0.0006874999962747097,-0.020075000822544098,-0.02736249938607216
1750743733150036000,2.050035888671875,-0.0005499999970197678,-0.01759999990463257,-0.01759999990463257
1750743733159640000,2.05964013671875,0.0019249999895691872,-0.020075000822544098,-0.009074999950826168
1750743733169244000,2.069243896484375,0.0019249999895691872,-0.018837500363588333,-0.0005499999970197678
1750743733178847700,2.07884765625,0.0006874999962747097,-0.020075000822544098,0.007974999956786633
1750743733188451800,2.088451904296875,0.0006874999962747097,-0.020075000822544098,0.011687500402331352
1750743733198055400,2.098055419921875,0.0019249999895691872,-0.021312499418854713,0.004399999976158142
1750743733207659800,2.10765966796875,0.0031624999828636646,-0.018837500363588333,-0.0030249999836087227
1750743733217263600,2.117263671875,0.0031624999828636646,-0.005362499970942736,-0.0005499999970197678
1750743733226867500,2.126867431640625,0.0006874999962747097,-0.0042624999769032,0.009212499484419823
1750743733236471300,2.13647119140625,-0.004124999977648258,-0.010312499478459358,0.010449999943375587
1750743733246075100,2.1460751953125,-0.004124999977648258,-0.020075000822544098,0.006737499963492155
1750743733255679200,2.15567919921875,-0.004124999977648258,-0.031075000762939453,0.010449999943375587
1750743733265283000,2.165282958984375,-0.004124999977648258,-0.048124998807907104,0.020212499424815178
1750743733274887200,2.17488720703125,-0.004124999977648258,-0.048124998807907104,0.029975000768899918
1750743733284491000,2.184490966796875,-0.004124999977648258,-0.03355000168085098,0.03492499887943268
1750743733294094800,2.1940947265625,-0.004124999977648258,-0.021312499418854713,0.029975000768899918
1750743733303699000,2.203698974609375,-0.005362499970942736,-0.012787500396370888,0.015399999916553497
1750743733313302800,2.213302734375,-0.009074999950826168,0.0019249999895691872,-0.0030249999836087227
1750743733322906600,2.22290673828125,-0.011549999937415123,0.0006874999962747097,-0.012787500396370888
1750743733332510700,2.2325107421875,-0.007837500423192978,-0.009074999950826168,-0.0030249999836087227
1750743733342114800,2.24211474609375,-0.0028874999843537807,-0.01759999990463257,0.018975000828504562
1750743733351718700,2.25171875,0.0006874999962747097,-0.02502499893307686,0.03368749842047691
1750743733361322500,2.261322509765625,0.0031624999828636646,-0.022549999877810478,0.03849999979138374
1750743733370926600,2.270926513671875,0.004399999976158142,-0.011549999937415123,0.03849999979138374
1750743733380530200,2.2805302734375,0.0006874999962747097,-0.009074999950826168,0.03616249933838844
1750743733390134300,2.29013427734375,0.0006874999962747097,-0.0042624999769032,0.029975000768899918
1750743733399738000,2.299738037109375,0.0019249999895691872,0.006737499963492155,0.021449999883770943
1750743733409342200,2.30934228515625,0.004399999976158142,0.010449999943375587,0.0031624999828636646
1750743733418946000,2.318946044921875,0.0019249999895691872,0.0006874999962747097,-0.014024999924004078
1750743733428550000,2.3285498046875,-0.0017874999903142452,-0.011549999937415123,-0.015124999918043613
1750743733438154000,2.338154052734375,-0.006599999964237213,-0.021312499418854713,-0.0030249999836087227
1750743733447757800,2.3477578125,-0.010312499478459358,-0.021312499418854713,0.011687500402331352
1750743733457362000,2.35736181640625,-0.013887500390410423,-0.011549999937415123,0.015399999916553497
1750743733466965800,2.3669658203125,-0.015124999918043613,0.0031624999828636646,0.009212499484419823
1750743733476569600,2.376569580078125,-0.012787500396370888,0.011687500402331352,-0.0030249999836087227
1750743733486173700,2.386173583984375,-0.009074999950826168,0.012924999929964542,-0.010312499478459358
1750743733495777500,2.395777587890625,-0.005362499970942736,0.006737499963492155,-0.006599999964237213
1750743733505381400,2.40538134765625,-0.004124999977648258,0.007974999956786633,0.0019249999895691872
1750743733514985500,2.4149853515625,-0.005362499970942736,0.009212499484419823,0.0019249999895691872
1750743733524589300,2.42458935546875,-0.004124999977648258,0.006737499963492155,-0.0005499999970197678
1750743733534193400,2.434193359375,-0.006599999964237213,0.009212499484419823,0.0031624999828636646
1750743733543797200,2.44379736328125,-0.007837500423192978,0.009212499484419823,0.016637500375509262
1750743733553401000,2.453401123046875,-0.009074999950826168,0.009212499484419823,0.020212499424815178
1750743733563005200,2.463005126953125,-0.007837500423192978,0.007974999956786633,0.006737499963492155
1750743733572609000,2.472609130859375,-0.007837500423192978,0.005499999970197678,-0.009074999950826168
1750743733582212900,2.482212890625,-0.004124999977648258,-0.0042624999769032,-0.012787500396370888
1750743733591817000,2.49181689453125,-0.0005499999970197678,-0.010312499478459358,-0.009074999950826168
1750743733601421000,2.501421142578125,0.0019249999895691872,-0.009074999950826168,-0.0042624999769032
1750743733611024600,2.511024658203125,-0.0017874999903142452,-0.006599999964237213,-0.0005499999970197678
1750743733620628700,2.520628662109375,-0.004124999977648258,-0.0017874999903142452,0.0019249999895691872
1750743733630232600,2.530232666015625,-0.004124999977648258,0.0031624999828636646,-0.0005499999970197678
1750743733639836400,2.53983642578125,-0.0028874999843537807,0.005499999970197678,-0.009074999950826168
1750743733649440500,2.5494404296875,-0.004124999977648258,0.005499999970197678,-0.020075000822544098
1750743733659044400,2.55904443359375,-0.004124999977648258,0.0019249999895691872,-0.026124998927116394
1750743733668648200,2.568648193359375,-0.005362499970942736,0.0006874999962747097,-0.02983750030398369
1750743733678252000,2.578251953125,-0.009074999950826168,-0.0030249999836087227,-0.028599999845027924
1750743733687856400,2.5878564453125,-0.010312499478459358,-0.005362499970942736,-0.023787500336766243
1750743733697460000,2.5974599609375,-0.012787500396370888,-0.0042624999769032,-0.015124999918043613
1750743733707064000,2.60706396484375,-0.010312499478459358,-0.005362499970942736,-0.009074999950826168
1750743733716668000,2.61666796875,-0.004124999977648258,-0.005362499970942736,-0.009074999950826168
1750743733726272000,2.62627197265625,-0.0028874999843537807,-0.006599999964237213,-0.010312499478459358
1750743733735875800,2.635875732421875,-0.005362499970942736,-0.006599999964237213,-0.009074999950826168
1750743733745479700,2.645479736328125,-0.005362499970942736,0.0031624999828636646,-0.009074999950826168
1750743733755083800,2.655083740234375,-0.006599999964237213,0.009212499484419823,-0.014024999924004078
1750743733764687600,2.6646875,-0.006599999964237213,0.007974999956786633,-0.02502499893307686
1750743733774291500,2.67429150390625,-0.007837500423192978,0.006737499963492155,-0.03478749841451645
1750743733783895600,2.6838955078125,-0.009074999950826168,0.0031624999828636646,-0.036024998873472214
1750743733793499400,2.69349951171875,-0.012787500396370888,-0.0042624999769032,-0.028599999845027924
1750743733803103500,2.703103515625,-0.013887500390410423,-0.0030249999836087227,-0.018837500363588333
1750743733812707300,2.712707275390625,-0.012787500396370888,-0.0042624999769032,-0.015124999918043613
1750743733822311200,2.722311279296875,-0.009074999950826168,-0.005362499970942736,-0.010312499478459358
1750743733831915300,2.731915283203125,-0.006599999964237213,0.0019249999895691872,-0.0005499999970197678
1750743733841519000,2.74151904296875,-0.005362499970942736,0.010449999943375587,0.0006874999962747097
1750743733851123200,2.751123291015625,-0.007837500423192978,0.009212499484419823,-0.009074999950826168
1750743733860726800,2.760726806640625,-0.010312499478459358,0.0031624999828636646,-0.020075000822544098
1750743733870331000,2.770330810546875,-0.010312499478459358,-0.0017874999903142452,-0.02736249938607216
1750743733879935000,2.77993505859375,-0.010312499478459358,-0.006599999964237213,-0.03231250122189522
1750743733889538800,2.789538818359375,-0.011549999937415123,-0.009074999950826168,-0.03478749841451645
1750743733899143000,2.799142822265625,-0.007837500423192978,-0.011549999937415123,-0.02983750030398369
1750743733908746800,2.808746826171875,-0.004124999977648258,-0.010312499478459358,-0.01759999990463257
1750743733918350600,2.8183505859375,-0.0005499999970197678,-0.0042624999769032,-0.0017874999903142452
1750743733927954400,2.827954345703125,-0.0017874999903142452,0.0006874999962747097,0.012924999929964542
1750743733937558500,2.83755859375,-0.0028874999843537807,0.004399999976158142,0.017737500369548798
1750743733947162600,2.84716259765625,-0.0028874999843537807,-0.0005499999970197678,0.012924999929964542
1750743733956766500,2.856766357421875,-0.0005499999970197678,-0.0042624999769032,0.0056374999694526196
1750743733966370300,2.866370361328125,-0.004124999977648258,-0.006599999964237213,0.006737499963492155
1750743733975974100,2.87597412109375,-0.006599999964237213,-0.006599999964237213,0.009212499484419823
1750743733985578200,2.885578125,-0.009074999950826168,-0.006599999964237213,0.004399999976158142
1750743733995182000,2.89518212890625,-0.010312499478459358,-0.0042624999769032,-0.006599999964237213
1750743734004786000,2.904785888671875,-0.010312499478459358,-0.0030249999836087227,-0.016362499445676804
1750743734014390000,2.91439013671875,-0.010312499478459358,-0.0017874999903142452,-0.021312499418854713
1750743734023994000,2.923994140625,-0.009074999950826168,0.0031624999828636646,-0.01759999990463257
1750743734033598000,2.933597900390625,-0.010312499478459358,0.006737499963492155,-0.010312499478459358
1750743734043201800,2.943201904296875,-0.011549999937415123,0.006737499963492155,-0.011549999937415123
1750743734052805600,2.9528056640625,-0.009074999950826168,0.007974999956786633,-0.012787500396370888
1750743734062409700,2.96240966796875,-0.006599999964237213,0.006737499963492155,-0.0017874999903142452
1750743734072013600,2.972013671875,-0.006599999964237213,0.0031624999828636646,0.015399999916553497
1750743734081617700,2.98161767578125,-0.009074999950826168,0.0031624999828636646,0.022687500342726707
1750743734091221800,2.9912216796875,-0.006599999964237213,-0.0005499999970197678,0.012924999929964542
1750743734100825300,3.000825439453125,-0.0017874999903142452,-0.0017874999903142452,0.006737499963492155
1750743734110429400,3.010429443359375,0.0019249999895691872,-0.0030249999836087227,0.004399999976158142
1750743734120033300,3.020033203125,0.0006874999962747097,-0.0042624999769032,0.0056374999694526196
1750743734129637400,3.029637451171875,-0.004124999977648258,-0.007837500423192978,0.007974999956786633
1750743734139241200,3.0392412109375,-0.009074999950826168,-0.0042624999769032,0.014162499457597733
1750743734148845000,3.048844970703125,-0.010312499478459358,-0.0017874999903142452,0.012924999929964542
1750743734158449200,3.05844921875,-0.010312499478459358,-0.0005499999970197678,0.004399999976158142
1750743734168053000,3.068052978515625,-0.007837500423192978,0.0006874999962747097,-0.005362499970942736
1750743734177657000,3.077656982421875,-0.005362499970942736,0.0019249999895691872,-0.006599999964237213
1750743734187261200,3.08726123046875,-0.006599999964237213,-0.0030249999836087227,0.0031624999828636646
1750743734196864800,3.09686474609375,-0.006599999964237213,-0.005362499970942736,0.0056374999694526196
1750743734206468900,3.10646875,-0.006599999964237213,-0.0042624999769032,-0.0030249999836087227
1750743734216072700,3.11607275390625,-0.006599999964237213,0.0031624999828636646,-0.007837500423192978
1750743734225676800,3.1256767578125,-0.005362499970942736,0.004399999976158142,0.0006874999962747097
1750743734235280600,3.13528076171875,-0.005362499970942736,0.005499999970197678,0.006737499963492155
1750743734244884500,3.144884521484375,-0.005362499970942736,0.007974999956786633,0.0006874999962747097
1750743734254488300,3.15448828125,-0.005362499970942736,0.006737499963492155,-0.009074999950826168
1750743734264092400,3.164092529296875,-0.005362499970942736,0.0019249999895691872,-0.009074999950826168
1750743734273696500,3.173696533203125,-0.005362499970942736,-0.0030249999836087227,0.0019249999895691872
1750743734283300400,3.18330029296875,-0.006599999964237213,-0.007837500423192978,0.010449999943375587
1750743734292904200,3.192904296875,-0.005362499970942736,-0.009074999950826168,0.016637500375509262
1750743734302508300,3.20250830078125,-0.005362499970942736,-0.0042624999769032,0.012924999929964542
1750743734312112000,3.212112060546875,-0.0028874999843537807,-0.006599999964237213,0.004399999976158142
1750743734321716000,3.221716064453125,-0.005362499970942736,-0.006599999964237213,0.007974999956786633
1750743734331320000,3.231320068359375,-0.006599999964237213,0.0006874999962747097,0.023924998939037323
1750743734340924000,3.240923828125,-0.005362499970942736,0.006737499963492155,0.028737500309944153
1750743734350527700,3.25052783203125,-0.004124999977648258,0.005499999970197678,0.014162499457597733
1750743734360131600,3.260131591796875,-0.0017874999903142452,0.005499999970197678,0.0031624999828636646
1750743734369735700,3.269735595703125,-0.0005499999970197678,0.0019249999895691872,0.0031624999828636646
1750743734379339500,3.279339599609375,0.0019249999895691872,-0.006599999964237213,0.004399999976158142
1750743734388943600,3.288943603515625,-0.0005499999970197678,-0.011549999937415123,0.0019249999895691872
1750743734398547500,3.29854736328125,-0.0028874999843537807,-0.014024999924004078,-0.007837500423192978
1750743734408151600,3.308151611328125,-0.0028874999843537807,-0.006599999964237213,-0.020075000822544098
1750743734417755100,3.317755126953125,-0.0028874999843537807,-0.0017874999903142452,-0.020075000822544098
1750743734427359200,3.327359130859375,-0.0028874999843537807,0.0006874999962747097,-0.006599999964237213
1750743734436963300,3.33696337890625,-0.005362499970942736,0.0031624999828636646,0.007974999956786633
1750743734446567200,3.346567138671875,-0.007837500423192978,0.0019249999895691872,0.009212499484419823
1750743734456171000,3.3561708984375,-0.009074999950826168,-0.005362499970942736,0.0056374999694526196
1750743734465775000,3.365775146484375,-0.007837500423192978,-0.007837500423192978,0.011687500402331352
1750743734475379000,3.37537890625,-0.006599999964237213,-0.006599999964237213,0.028737500309944153
1750743734484982800,3.384982666015625,-0.007837500423192978,-0.007837500423192978,0.04221250116825104
1750743734494587000,3.3945869140625,-0.009074999950826168,-0.005362499970942736,0.031212499365210533
1750743734504190700,3.404190673828125,-0.007837500423192978,0.0019249999895691872,-0.0042624999769032
1750743734513794600,3.413794677734375,-0.004124999977648258,0.0006874999962747097,-0.018837500363588333
1750743734523398700,3.423398681640625,-0.005362499970942736,-0.007837500423192978,0.018975000828504562
1750743734533002500,3.43300244140625,-0.006599999964237213,-0.011549999937415123,0.05926249921321869
1750743734542606600,3.442606689453125,-0.007837500423192978,-0.009074999950826168,0.04839999973773956
1750743734552210400,3.45221044921875,-0.005362499970942736,-0.009074999950826168,-0.0030249999836087227
1750743734561814300,3.461814208984375,-0.0017874999903142452,-0.0042624999769032,-0.04207500070333481
1750743734571418400,3.47141845703125,-0.0017874999903142452,-0.0030249999836087227,-0.031075000762939453
1750743734581022200,3.481022216796875,-0.0028874999843537807,-0.0042624999769032,0.009212499484419823
1750743734590626000,3.4906259765625,-0.005362499970942736,-0.0030249999836087227,0.026399999856948853
1750743734600230100,3.500230224609375,-0.004124999977648258,-0.0017874999903142452,0.011687500402331352
1750743734609834000,3.509833984375,-0.0017874999903142452,0.0019249999895691872,-0.0017874999903142452
1750743734619437800,3.519437744140625,0.0006874999962747097,0.0006874999962747097,-0.0005499999970197678
1750743734629042000,3.5290419921875,-0.0005499999970197678,0.0006874999962747097,0.015399999916553497
1750743734638646000,3.53864599609375,-0.0028874999843537807,0.0006874999962747097,0.031212499365210533
1750743734648249600,3.54824951171875,-0.005362499970942736,0.0006874999962747097,0.022687500342726707
1750743734657853700,3.557853759765625,-0.006599999964237213,0.0019249999895691872,-0.009074999950826168
1750743734667457500,3.56745751953125,-0.006599999964237213,0.0006874999962747097,-0.031075000762939453
1750743734677061600,3.5770615234375,-0.006599999964237213,-0.0030249999836087227,-0.020075000822544098
1750743734686665500,3.58666552734375,-0.009074999950826168,-0.0017874999903142452,0.006737499963492155
1750743734696269300,3.596269287109375,-0.011549999937415123,0.0031624999828636646,0.017737500369548798
1750743734705873400,3.605873291015625,-0.011549999937415123,0.0031624999828636646,0.006737499963492155
1750743734715477200,3.615477294921875,-0.007837500423192978,0.0031624999828636646,-0.0017874999903142452
1750743734725081300,3.625081298828125,-0.004124999977648258,0.0019249999895691872,0.0056374999694526196
1750743734734685200,3.634685302734375,-0.0005499999970197678,0.0019249999895691872,0.020212499424815178
1750743734744289000,3.6442890625,-0.0017874999903142452,-0.0017874999903142452,0.021449999883770943
1750743734753893000,3.65389306640625,-0.005362499970942736,-0.006599999964237213,0.004399999976158142
1750743734763497000,3.6634970703125,-0.005362499970942736,-0.007837500423192978,-0.01759999990463257
1750743734773101000,3.67310107421875,-0.0028874999843537807,-0.0042624999769032,-0.028599999845027924
1750743734782705000,3.682704833984375,-0.0028874999843537807,-0.006599999964237213,-0.01759999990463257
1750743734792309000,3.69230908203125,-0.006599999964237213,-0.006599999964237213,0.0031624999828636646
1750743734801912800,3.701912841796875,-0.007837500423192978,-0.005362499970942736,0.009212499484419823
1750743734811516700,3.7115166015625,-0.007837500423192978,-0.005362499970942736,-0.0042624999769032
1750743734821120800,3.721120849609375,-0.0017874999903142452,-0.0017874999903142452,-0.014024999924004078
1750743734830724600,3.730724609375,0.0006874999962747097,-0.0030249999836087227,-0.005362499970942736
1750743734840328400,3.740328369140625,-0.0005499999970197678,0.0019249999895691872,0.0056374999694526196
1750743734849932500,3.7499326171875,-0.004124999977648258,0.004399999976158142,0.0031624999828636646
1750743734859536400,3.759536376953125,-0.004124999977648258,-0.0017874999903142452,-0.0030249999836087227
1750743734869140500,3.769140380859375,-0.004124999977648258,-0.005362499970942736,-0.0005499999970197678
1750743734878744300,3.778744384765625,-0.0028874999843537807,-0.0017874999903142452,0.0019249999895691872
1750743734888348400,3.788348388671875,-0.0017874999903142452,0.0019249999895691872,-0.0017874999903142452
1750743734897952300,3.7979521484375,-0.0017874999903142452,0.0031624999828636646,-0.0017874999903142452
1750743734907556000,3.80755615234375,-0.0005499999970197678,0.0031624999828636646,0.0031624999828636646
1750743734917160000,3.817159912109375,-0.0005499999970197678,0.0031624999828636646,0.0019249999895691872
1750743734926764000,3.826763916015625,-0.0017874999903142452,0.006737499963492155,-0.0017874999903142452
1750743734936367900,3.836367919921875,-0.0028874999843537807,0.007974999956786633,-0.005362499970942736
1750743734945971700,3.8459716796875,-0.0028874999843537807,0.007974999956786633,-0.0042624999769032
1750743734955575800,3.855575927734375,-0.0028874999843537807,0.0019249999895691872,-0.0030249999836087227
1750743734965179600,3.8651796875,-0.004124999977648258,-0.005362499970942736,-0.005362499970942736
1750743734974783700,3.87478369140625,-0.0005499999970197678,-0.0042624999769032,-0.010312499478459358
1750743734984387600,3.8843876953125,-0.0017874999903142452,-0.0005499999970197678,-0.010312499478459358
1750743734993991400,3.893991455078125,-0.0005499999970197678,0.005499999970197678,-0.0042624999769032
1750743735003595500,3.903595458984375,-0.0017874999903142452,0.004399999976158142,0.0056374999694526196
1750743735013199400,3.913199462890625,-0.0017874999903142452,-0.0042624999769032,0.006737499963492155
1750743735022803500,3.922803466796875,-0.0005499999970197678,-0.011549999937415123,0.004399999976158142
1750743735032407600,3.932407470703125,-0.0017874999903142452,-0.016362499445676804,0.0031624999828636646
1750743735042011100,3.94201123046875,-0.0028874999843537807,-0.010312499478459358,0.007974999956786633
1750743735051615200,3.951615234375,-0.004124999977648258,-0.0042624999769032,0.010449999943375587
1750743735061219000,3.961218994140625,-0.004124999977648258,0.0019249999895691872,0.010449999943375587
1750743735070823200,3.9708232421875,-0.005362499970942736,0.004399999976158142,0.007974999956786633
1750743735080427000,3.980427001953125,-0.006599999964237213,0.0031624999828636646,-0.0005499999970197678
1750743735090030800,3.99003076171875,-0.006599999964237213,0.0031624999828636646,-0.010312499478459358
1750743735099635000,3.999635009765625,-0.004124999977648258,0.0031624999828636646,-0.015124999918043613
1750743735109238800,4.00923876953125,-0.004124999977648258,0.0019249999895691872,-0.014024999924004078
1750743735118843000,4.0188427734375,-0.0005499999970197678,-0.0017874999903142452,-0.011549999937415123
1750743735128446700,4.02844677734375,-0.0005499999970197678,0.0006874999962747097,-0.011549999937415123
1750743735138050800,4.03805078125,-0.0005499999970197678,0.004399999976158142,-0.010312499478459358
1750743735147654700,4.047654541015625,-0.0028874999843537807,0.0006874999962747097,-0.005362499970942736
1750743735157258500,4.057258544921875,-0.0028874999843537807,-0.005362499970942736,0.0056374999694526196
1750743735166862300,4.0668623046875,-0.005362499970942736,-0.0042624999769032,0.011687500402331352
1750743735176466400,4.076466552734375,-0.007837500423192978,-0.006599999964237213,0.0056374999694526196
1750743735186070300,4.0860703125,-0.006599999964237213,-0.009074999950826168,-0.0042624999769032
1750743735195674000,4.095674072265625,-0.007837500423192978,-0.005362499970942736,-0.007837500423192978
1750743735205278200,4.1052783203125,-0.007837500423192978,-0.0005499999970197678,-0.006599999964237213
1750743735214882300,4.11488232421875,-0.005362499970942736,0.0019249999895691872,-0.0042624999769032
1750743735224486100,4.124486083984375,-0.004124999977648258,0.010449999943375587,-0.005362499970942736
1750743735234090200,4.13409033203125,-0.0017874999903142452,0.012924999929964542,-0.006599999964237213
1750743735243693800,4.14369384765625,-0.0005499999970197678,0.007974999956786633,-0.0030249999836087227
1750743735253298000,4.1532978515625,-0.0005499999970197678,0.0019249999895691872,0.0056374999694526196
1750743735262902000,4.162902099609375,-0.0017874999903142452,-0.0017874999903142452,0.010449999943375587
1750743735272505900,4.172505859375,-0.0028874999843537807,-0.0005499999970197678,0.007974999956786633
1750743735282109700,4.182109619140625,-0.004124999977648258,0.0019249999895691872,0.0031624999828636646
1750743735291713500,4.191713623046875,-0.006599999964237213,-0.0017874999903142452,-0.0017874999903142452
1750743735301317600,4.201317626953125,-0.006599999964237213,-0.0005499999970197678,-0.0017874999903142452
1750743735310921500,4.21092138671875,-0.005362499970942736,0.0006874999962747097,-0.0005499999970197678
1750743735320525600,4.220525634765625,-0.005362499970942736,-0.0005499999970197678,-0.0030249999836087227
1750743735330129400,4.23012939453125,-0.005362499970942736,-0.0005499999970197678,-0.010312499478459358
1750743735339733200,4.239733154296875,-0.0017874999903142452,0.0019249999895691872,-0.012787500396370888
1750743735349337300,4.24933740234375,-0.0005499999970197678,-0.0005499999970197678,-0.0042624999769032
1750743735358941200,4.258941162109375,-0.0028874999843537807,-0.007837500423192978,0.004399999976158142
1750743735368545300,4.268545166015625,-0.004124999977648258,-0.0030249999836087227,0.0006874999962747097
1750743735378149000,4.278149169921875,-0.005362499970942736,0.004399999976158142,-0.011549999937415123
1750743735387753200,4.287753173828125,-0.004124999977648258,0.007974999956786633,-0.014024999924004078
1750743735397357000,4.297357177734375,-0.004124999977648258,0.009212499484419823,-0.0042624999769032
1750743735406961000,4.3069609375,-0.005362499970942736,0.0019249999895691872,0.0031624999828636646
1750743735416564700,4.316564697265625,-0.009074999950826168,-0.0017874999903142452,0.0019249999895691872
1750743735426169000,4.326169189453125,-0.009074999950826168,-0.0005499999970197678,-0.0005499999970197678
1750743735435772700,4.335772705078125,-0.006599999964237213,-0.005362499970942736,-0.0005499999970197678
1750743735445376800,4.345376708984375,-0.006599999964237213,-0.010312499478459358,-0.0017874999903142452
1750743735454980900,4.35498095703125,-0.005362499970942736,-0.006599999964237213,-0.0005499999970197678
1750743735464584700,4.364584716796875,-0.0028874999843537807,-0.0005499999970197678,0.0006874999962747097
1750743735474188500,4.3741884765625,-0.0017874999903142452,0.005499999970197678,0.0031624999828636646
1750743735483792400,4.38379248046875,-0.0017874999903142452,0.005499999970197678,-0.0005499999970197678
1750743735493396500,4.393396484375,-0.0005499999970197678,0.0019249999895691872,-0.006599999964237213
1750743735503000600,4.40300048828125,-0.0005499999970197678,-0.0042624999769032,-0.007837500423192978
1750743735512604400,4.4126044921875,-0.0017874999903142452,-0.0005499999970197678,-0.0030249999836087227
1750743735522208300,4.422208251953125,-0.0028874999843537807,0.0031624999828636646,-0.0017874999903142452
1750743735531812000,4.43181201171875,-0.0028874999843537807,0.0019249999895691872,-0.005362499970942736
1750743735541416200,4.441416259765625,-0.0017874999903142452,-0.0030249999836087227,-0.011549999937415123
1750743735551020000,4.45102001953125,0.0006874999962747097,-0.0042624999769032,-0.012787500396370888
1750743735560624000,4.4606240234375,0.0019249999895691872,-0.0005499999970197678,-0.012787500396370888
1750743735570228000,4.47022802734375,-0.0028874999843537807,-0.0030249999836087227,-0.007837500423192978
1750743735579831800,4.479831787109375,-0.006599999964237213,-0.0030249999836087227,-0.005362499970942736
1750743735589436000,4.489435791015625,-0.011549999937415123,-0.0005499999970197678,-0.006599999964237213
1750743735599039700,4.499039794921875,-0.011549999937415123,-0.0005499999970197678,-0.006599999964237213
1750743735608643800,4.508643798828125,-0.011549999937415123,-0.0005499999970197678,-0.005362499970942736
1750743735618247700,4.51824755859375,-0.009074999950826168,0.0006874999962747097,-0.0042624999769032
1750743735627851500,4.5278515625,-0.006599999964237213,0.0031624999828636646,-0.006599999964237213
1750743735637456000,4.537455810546875,-0.004124999977648258,0.0019249999895691872,-0.010312499478459358
1750743735647059500,4.5470595703125,-0.0017874999903142452,-0.0005499999970197678,-0.011549999937415123
1750743735656663600,4.55666357421875,-0.0005499999970197678,-0.0017874999903142452,-0.015124999918043613
1750743735666267400,4.566267333984375,0.0006874999962747097,-0.0042624999769032,-0.015124999918043613
1750743735675871500,4.57587158203125,-0.0017874999903142452,0.0006874999962747097,-0.009074999950826168
1750743735685475300,4.585475341796875,-0.005362499970942736,0.007974999956786633,-0.007837500423192978
1750743735695079200,4.5950791015625,-0.007837500423192978,0.011687500402331352,-0.014024999924004078
1750743735704683000,4.60468310546875,-0.009074999950826168,0.010449999943375587,-0.022549999877810478
1750743735714287000,4.614287109375,-0.009074999950826168,0.005499999970197678,-0.02502499893307686
1750743735723891000,4.623890869140625,-0.010312499478459358,0.0006874999962747097,-0.01759999990463257
1750743735733494800,4.633494873046875,-0.010312499478459358,0.0006874999962747097,-0.006599999964237213
1750743735743099000,4.643098876953125,-0.009074999950826168,0.0019249999895691872,-0.0017874999903142452
1750743735752703000,4.652702880859375,-0.007837500423192978,0.0031624999828636646,-0.010312499478459358
1750743735762306800,4.662306884765625,-0.010312499478459358,0.0031624999828636646,-0.020075000822544098
1750743735771911000,4.671910888671875,-0.011549999937415123,0.007974999956786633,-0.02736249938607216
1750743735781514500,4.681514404296875,-0.013887500390410423,0.011687500402331352,-0.031075000762939453
1750743735791118600,4.69111865234375,-0.013887500390410423,0.010449999943375587,-0.03712499886751175
1750743735800722400,4.700722412109375,-0.013887500390410423,0.0006874999962747097,-0.04331250116229057
1750743735810326500,4.710326416015625,-0.015124999918043613,0.0006874999962747097,-0.048124998807907104
1750743735819930400,4.719930419921875,-0.015124999918043613,0.0019249999895691872,-0.0518375001847744
1750743735829534200,4.7295341796875,-0.021312499418854713,-0.0005499999970197678,-0.050599999725818634
1750743735848742100,4.7487421875,-0.02736249938607216,0.03244999796152115,-0.007837500423192978
1750743735858346200,4.75834619140625,-0.028599999845027924,0.031212499365210533,0.023924998939037323
1750743735867950000,4.7679501953125,-0.03231250122189522,0.05692499876022339,0.0812624990940094
1750743735877554000,4.777553955078125,-0.038362499326467514,0.08992499858140945,0.19002500176429749
1750743735887158000,4.787157958984375,-0.06764999777078629,0.12044999748468399,0.3610749840736389
1750743735896761900,4.796761962890625,-0.09459999948740005,0.14121249318122864,0.7056499719619751
1750743735906366000,4.806365966796875,-0.1116499975323677,0.05197500064969063,1.2505625486373901
1750743735915969800,4.8159697265625,-0.12388750165700912,-0.011549999937415123,1.85652494430542
1750743735925573600,4.82557373046875,-0.1190750002861023,-0.10312499850988388,2.3329625129699707
1750743735935177700,4.835177734375,-0.10436250269412994,-0.22288750112056732,2.6065874099731445
1750743735944781600,4.844781494140625,-0.031075000762939453,-0.2326499968767166,2.7323999404907227
1750743735954385700,4.8543857421875,0.017875000834465027,-0.02502499893307686,2.7323999404907227
1750743735963989500,4.863989501953125,0.04839999973773956,0.09844999760389328,2.653062582015991
1750743735973593600,4.873593505859375,0.09968750178813934,0.24255000054836273,2.5711123943328857
1750743735983197400,4.883197509765625,0.12168750166893005,0.2975499927997589,2.4880623817443848
1750743735992801300,4.89280126953125,0.0849749967455864,0.4380750060081482,2.3903000354766846
1750743736002405400,4.9024052734375,0.03492499887943268,0.6017000079154968,2.335437536239624
1750743736012009200,4.91200927734375,0.020212499424815178,0.5333625078201294,2.370774984359741
1750743736021613000,4.921613037109375,0.06668750196695328,0.33783748745918274,2.422062397003174
1750743736031217200,4.931217041015625,0.10092499852180481,0.20350000262260437,2.3915374279022217
1750743736040821000,4.940821044921875,0.10821250081062317,0.14368750154972076,2.27067494392395
1750743736050424800,4.9504248046875,0.11797499656677246,0.10202500224113464,2.0678625106811523
1750743736060029000,4.96002880859375,0.1106875017285347,0.017737500369548798,1.7720999717712402
1750743736069633000,4.969633056640625,0.09239999949932098,-0.03355000168085098,1.392187476158142
1750743736079236600,4.979236572265625,0.06544999778270721,-0.03712499886751175,0.9719874858856201
1750743736088840700,4.9888408203125,0.017875000834465027,-0.0005499999970197678,0.544362485408783
1750743736098444800,4.99844482421875,-0.0028874999843537807,0.0471624992787838,0.1742125004529953
1750743736108048600,5.008048583984375,0.008112499490380287,0.016499999910593033,-0.11783749610185623
1750743736117652700,5.01765283203125,0.028875000774860382,-0.060362499207258224,-0.3731749951839447
1750743736127256300,5.02725634765625,0.028875000774860382,-0.12264999747276306,-0.5942749977111816
1750743736136860700,5.036860595703125,0.014162499457597733,-0.11055000126361847,-0.7897999882698059
1750743736146464300,5.04646435546875,-0.009074999950826168,-0.06902500241994858,-0.9828500151634216
1750743736156068400,5.056068359375,-0.03712499886751175,-0.08607500046491623,-1.1684750318527222
1750743736165672200,5.065672119140625,-0.048124998807907104,-0.1568875014781952,-1.3212374448776245
1750743736175276000,5.075276123046875,-0.045649997889995575,-0.21683749556541443,-1.4555749893188477
1750743736184880000,5.084880126953125,-0.045649997889995575,-0.2326499968767166,-1.5998125076293945
1750743736194484200,5.094484130859375,-0.053075000643730164,-0.24117499589920044,-1.7769124507904053
1750743736204088000,5.104088134765625,-0.06159999966621399,-0.2326499968767166,-1.9589624404907227
1750743736213692000,5.11369189453125,-0.057887498289346695,-0.23993749916553497,-2.115299940109253
1750743736223296000,5.1232958984375,-0.05664999783039093,-0.24736249446868896,-2.266824960708618
1750743736232900000,5.132900146484375,-0.06764999777078629,-0.19607499241828918,-2.374350070953369
1750743736242503700,5.142503662109375,-0.0798875018954277,-0.17159999907016754,-2.397587537765503
1750743736252107800,5.152107666015625,-0.0835999995470047,-0.11412499845027924,-2.3681623935699463
1750743736261711600,5.161711669921875,-0.09212499856948853,-0.06159999966621399,-2.319350004196167
1750743736271315700,5.171315673828125,-0.09831249713897705,-0.04702499881386757,-2.2508749961853027
1750743736280919800,5.180919921875,-0.0873124971985817,-0.05555000156164169,-2.1470625400543213
1750743736290523400,5.1905234375,-0.06283749639987946,-0.07259999960660934,-1.9931999444961548
1750743736300127500,5.20012744140625,-0.03464999794960022,-0.10078749805688858,-1.798912525177002
1750743736309731300,5.2097314453125,-0.011549999937415123,-0.12264999747276306,-1.5899125337600708
1750743736319335400,5.21933544921875,-0.004124999977648258,-0.12155000120401382,-1.387237548828125
1750743736328939300,5.228939208984375,-0.013887500390410423,-0.1251250058412552,-1.1697125434875488
1750743736338543000,5.238543212890625,-0.03355000168085098,-0.14959999918937683,-0.9266124963760376
1750743736348147200,5.248147216796875,-0.05431250110268593,-0.141075000166893,-0.6785625219345093
1750743736357751300,5.257751220703125,-0.06764999777078629,-0.1190750002861023,-0.4489375054836273
1750743736367355100,5.267355224609375,-0.06531249731779099,-0.11055000126361847,-0.2583625018596649
1750743736376959000,5.276958984375,-0.04936249926686287,-0.12264999747276306,-0.10188750177621841
1750743736386563000,5.28656298828125,-0.028599999845027924,-0.10683749616146088,0.025162499397993088
1750743736396167000,5.2961669921875,-0.005362499970942736,-0.06902500241994858,0.12402500212192535
1750743736405770800,5.305770751953125,0.018975000828504562,-0.048124998807907104,0.19744999706745148
1750743736415374800,5.315374755859375,0.04221250116825104,-0.010312499478459358,0.23897500336170197
1750743736424979000,5.32497900390625,0.05321250110864639,0.03368749842047691,0.24131250381469727
1750743736434582800,5.334582763671875,0.055687498301267624,0.060499999672174454,0.2059749960899353
1750743736444186600,5.3441865234375,0.05073750019073486,0.05816249921917915,0.14726249873638153
1750743736453790700,5.353790771484375,0.04468749836087227,0.03616249933838844,0.08621250092983246
1750743736463394600,5.36339453125,0.03368749842047691,0.017737500369548798,0.04468749836087227
1750743736472998700,5.37299853515625,0.020212499424815178,0.004399999976158142,0.020212499424815178
1750743736482602500,5.3826025390625,0.006874999962747097,-0.0017874999903142452,0.004399999976158142
1750743736492206600,5.39220654296875,-0.0017874999903142452,-0.010312499478459358,-0.006599999964237213
1750743736501810400,5.401810546875,-0.005362499970942736,-0.015262499451637268,-0.011549999937415123
1750743736511414300,5.411414306640625,-0.007837500423192978,-0.009074999950826168,-0.010312499478459358
1750743736521018400,5.421018310546875,-0.009074999950826168,-0.006599999964237213,-0.012787500396370888
1750743736530622000,5.4306220703125,-0.010312499478459358,-0.0042624999769032,-0.020075000822544098
1750743736540226300,5.440226318359375,-0.009074999950826168,-0.0030249999836087227,-0.028599999845027924
1750743736549830100,5.449830078125,-0.007837500423192978,0.0031624999828636646,-0.03231250122189522
1750743736559434000,5.45943408203125,-0.004124999977648258,0.004399999976158142,-0.03231250122189522
1750743736569037800,5.469037841796875,-0.0017874999903142452,0.0006874999962747097,-0.021312499418854713
1750743736578642000,5.478641845703125,0.0019249999895691872,-0.0017874999903142452,-0.007837500423192978
1750743736588246000,5.48824609375,-0.0005499999970197678,-0.006599999964237213,-0.0017874999903142452
1750743736597849600,5.497849609375,-0.005362499970942736,-0.010312499478459358,-0.0005499999970197678
1750743736607453700,5.50745361328125,-0.009074999950826168,-0.010312499478459358,0.004399999976158142
1750743736617057500,5.5170576171875,-0.011549999937415123,-0.007837500423192978,0.010449999943375587
1750743736626661600,5.52666162109375,-0.009074999950826168,-0.007837500423192978,0.009212499484419823
1750743736636265500,5.536265380859375,-0.005362499970942736,-0.005362499970942736,0.007974999956786633
1750743736645869300,5.545869384765625,-0.0017874999903142452,-0.0030249999836087227,0.0019249999895691872
1750743736655473400,5.555473388671875,-0.004124999977648258,-0.0005499999970197678,-0.006599999964237213
1750743736665077200,5.5650771484375,-0.007837500423192978,0.0006874999962747097,-0.020075000822544098
1750743736674681300,5.574681396484375,-0.006599999964237213,-0.0042624999769032,-0.02983750030398369
1750743736684285200,5.58428515625,-0.007837500423192978,-0.0042624999769032,-0.03478749841451645
1750743736693889000,5.593888916015625,-0.007837500423192978,-0.005362499970942736,-0.03712499886751175
1750743736703493000,5.6034931640625,-0.007837500423192978,-0.006599999964237213,-0.036024998873472214
1750743736713097000,5.613096923828125,-0.009074999950826168,-0.007837500423192978,-0.02983750030398369
1750743736722701000,5.622701171875,-0.011549999937415123,-0.0005499999970197678,-0.011549999937415123
1750743736732305200,5.63230517578125,-0.012787500396370888,0.0019249999895691872,0.009212499484419823
1750743736741909000,5.641908935546875,-0.012787500396370888,0.0019249999895691872,0.023924998939037323
1750743736751512800,5.651512939453125,-0.010312499478459358,0.009212499484419823,0.03244999796152115
1750743736761117000,5.661116943359375,-0.006599999964237213,0.012924999929964542,0.03368749842047691
1750743736770720800,5.670720703125,-0.004124999977648258,0.012924999929964542,0.03244999796152115
1750743736780324600,5.68032470703125,-0.0005499999970197678,0.010449999943375587,0.022687500342726707
1750743736789928700,5.6899287109375,-0.0017874999903142452,0.0006874999962747097,0.012924999929964542
1750743736799532300,5.6995322265625,-0.004124999977648258,-0.005362499970942736,0.006737499963492155
1750743736809136400,5.709136474609375,-0.005362499970942736,-0.006599999964237213,0.010449999943375587
1750743736818740500,5.718740478515625,-0.006599999964237213,-0.005362499970942736,0.012924999929964542
1750743736828344300,5.72834423828125,-0.006599999964237213,-0.0042624999769032,0.011687500402331352
1750743736837948400,5.737948486328125,-0.006599999964237213,-0.005362499970942736,0.007974999956786633
1750743736847552300,5.74755224609375,-0.006599999964237213,-0.0042624999769032,0.004399999976158142
1750743736857156400,5.75715625,-0.007837500423192978,-0.0042624999769032,0.0019249999895691872
1750743736866760200,5.76676025390625,-0.005362499970942736,-0.0030249999836087227,-0.0042624999769032
1750743736876364000,5.776364013671875,-0.006599999964237213,-0.0017874999903142452,-0.015124999918043613
1750743736885968100,5.785968017578125,-0.009074999950826168,-0.006599999964237213,-0.018837500363588333
1750743736895572000,5.795572021484375,-0.012787500396370888,-0.005362499970942736,-0.011549999937415123
1750743736905176000,5.805176025390625,-0.015124999918043613,0.0019249999895691872,-0.0017874999903142452
1750743736914779600,5.814779541015625,-0.016362499445676804,0.0031624999828636646,0.0019249999895691872
1750743736924383700,5.8243837890625,-0.015124999918043613,-0.0030249999836087227,0.007974999956786633
1750743736933987600,5.833987548828125,-0.015124999918043613,-0.010312499478459358,0.018975000828504562
1750743736943591700,5.843591796875,-0.011549999937415123,-0.006599999964237213,0.023924998939037323
1750743736953195800,5.85319580078125,-0.010312499478459358,0.0031624999828636646,0.018975000828504562
1750743736962799400,5.86279931640625,-0.009074999950826168,0.006737499963492155,0.014162499457597733
1750743736972403700,5.87240380859375,-0.004124999977648258,0.009212499484419823,0.015399999916553497
1750743736982007600,5.882007568359375,-0.004124999977648258,0.010449999943375587,0.015399999916553497
1750743736991611400,5.891611328125,-0.005362499970942736,0.007974999956786633,0.010449999943375587
1750743737001215500,5.901215576171875,-0.006599999964237213,0.004399999976158142,0.007974999956786633
1750743737010819300,5.9108193359375,-0.010312499478459358,-0.0005499999970197678,0.004399999976158142
1750743737020423200,5.920423095703125,-0.009074999950826168,-0.010312499478459358,0.0019249999895691872
1750743737030027300,5.93002734375,-0.006599999964237213,-0.015262499451637268,0.0056374999694526196
1750743737039631000,5.939631103515625,-0.004124999977648258,-0.014024999924004078,0.014162499457597733
1750743737049235000,5.94923486328125,-0.0005499999970197678,-0.014024999924004078,0.021449999883770943
1750743737058839000,5.958839111328125,0.0006874999962747097,-0.010312499478459358,0.023924998939037323
1750743737068443000,5.96844287109375,0.0019249999895691872,-0.009074999950826168,0.027499999850988388
1750743737078047000,5.978046875,0.0031624999828636646,-0.0030249999836087227,0.03368749842047691
1750743737087650800,5.98765087890625,0.0019249999895691872,0.004399999976158142,0.026399999856948853
1750743737097254700,5.997254638671875,0.0019249999895691872,0.010449999943375587,0.010449999943375587
1750743737106858800,6.006858642578125,-0.0005499999970197678,0.007974999956786633,-0.0017874999903142452
1750743737116462600,6.016462646484375,-0.004124999977648258,0.0019249999895691872,-0.010312499478459358
1750743737126066400,6.02606640625,-0.006599999964237213,-0.015262499451637268,-0.011549999937415123
1750743737135670500,6.03567041015625,-0.007837500423192978,-0.009074999950826168,-0.007837500423192978
1750743737145274600,6.045274658203125,-0.005362499970942736,-0.005362499970942736,-0.0017874999903142452
1750743737154878500,6.05487841796875,-0.004124999977648258,-0.012787500396370888,0.0031624999828636646
1750743737164482600,6.064482666015625,-0.006599999964237213,-0.012787500396370888,0.011687500402331352
1750743737174086100,6.074086181640625,-0.010312499478459358,-0.010312499478459358,0.016637500375509262
1750743737183690200,6.083690185546875,-0.010312499478459358,-0.011549999937415123,0.007974999956786633
1750743737193294300,6.09329443359375,-0.007837500423192978,-0.010312499478459358,-0.010312499478459358
1750743737202898200,6.102898193359375,-0.0017874999903142452,-0.0042624999769032,-0.021312499418854713
1750743737212502300,6.112502197265625,0.006874999962747097,0.0031624999828636646,-0.01759999990463257
1750743737222105900,6.12210595703125,0.009212499484419823,0.004399999976158142,-0.011549999937415123
1750743737231710000,6.1317099609375,0.009212499484419823,-0.0042624999769032,-0.010312499478459358
1750743737241314300,6.141314208984375,0.008112499490380287,-0.007837500423192978,-0.0017874999903142452
1750743737250918000,6.15091796875,0.004399999976158142,-0.009074999950826168,0.011687500402331352
1750743737260522000,6.16052197265625,0.0019249999895691872,-0.010312499478459358,0.016637500375509262
1750743737270125800,6.170125732421875,-0.0017874999903142452,-0.006599999964237213,0.011687500402331352
1750743737279729700,6.179729736328125,-0.0017874999903142452,0.0006874999962747097,0.0006874999962747097
1750743737289333800,6.189333740234375,-0.0028874999843537807,0.006737499963492155,-0.007837500423192978
1750743737298937600,6.1989375,-0.0017874999903142452,0.011687500402331352,-0.015124999918043613
1750743737308541700,6.208541748046875,-0.0017874999903142452,0.011687500402331352,-0.014024999924004078
1750743737318145500,6.2181455078125,-0.0017874999903142452,0.006737499963492155,-0.005362499970942736
1750743737327749600,6.22774951171875,-0.0005499999970197678,0.0031624999828636646,0.0056374999694526196
1750743737337353500,6.237353515625,-0.0005499999970197678,-0.0042624999769032,0.007974999956786633
1750743737346957300,6.246957275390625,-0.0017874999903142452,-0.010312499478459358,0.010449999943375587
1750743737356561400,6.2565615234375,-0.0017874999903142452,-0.009074999950826168,0.016637500375509262
1750743737366165200,6.266165283203125,-0.004124999977648258,-0.006599999964237213,0.025162499397993088
1750743737375769300,6.275769287109375,-0.005362499970942736,-0.0005499999970197678,0.026399999856948853
1750743737385373200,6.285373291015625,-0.006599999964237213,0.0031624999828636646,0.020212499424815178
1750743737394977000,6.29497705078125,-0.0028874999843537807,0.005499999970197678,0.010449999943375587
1750743737404581000,6.3045810546875,-0.0017874999903142452,0.005499999970197678,0.0056374999694526196
1750743737414185000,6.31418505859375,-0.005362499970942736,0.0031624999828636646,0.0056374999694526196
1750743737423788800,6.323788818359375,-0.009074999950826168,0.0031624999828636646,0.007974999956786633
1750743737433393000,6.333392822265625,-0.013887500390410423,0.0031624999828636646,-0.0005499999970197678
1750743737442997000,6.3429970703125,-0.010312499478459358,-0.0030249999836087227,-0.015124999918043613
1750743737452600800,6.352600830078125,-0.005362499970942736,-0.012787500396370888,-0.023787500336766243
1750743737462204700,6.36220458984375,-0.0005499999970197678,-0.020075000822544098,-0.02502499893307686
1750743737471808800,6.371808837890625,-0.0005499999970197678,-0.015262499451637268,-0.021312499418854713
1750743737481412600,6.38141259765625,-0.0028874999843537807,-0.006599999964237213,-0.010312499478459358
1750743737491016700,6.3910166015625,-0.0005499999970197678,-0.0017874999903142452,-0.0017874999903142452
1750743737500620500,6.40062060546875,-0.0005499999970197678,-0.0017874999903142452,-0.0017874999903142452
1750743737510224400,6.410224365234375,-0.0028874999843537807,-0.006599999964237213,-0.006599999964237213
1750743737519828200,6.419828125,-0.006599999964237213,-0.005362499970942736,-0.006599999964237213
1750743737529432300,6.429432373046875,-0.006599999964237213,0.0006874999962747097,-0.0005499999970197678
1750743737539036400,6.439036376953125,-0.005362499970942736,-0.0005499999970197678,0.004399999976158142
1750743737548640300,6.44864013671875,-0.005362499970942736,-0.0005499999970197678,-0.0005499999970197678
1750743737558244400,6.458244384765625,-0.006599999964237213,0.0019249999895691872,-0.006599999964237213
1750743737567848200,6.46784814453125,-0.007837500423192978,0.0019249999895691872,-0.010312499478459358
1750743737577452000,6.4774521484375,-0.010312499478459358,0.0006874999962747097,-0.014024999924004078
1750743737587056000,6.48705615234375,-0.010312499478459358,-0.0005499999970197678,-0.020075000822544098
1750743737596660000,6.496659912109375,-0.010312499478459358,-0.0042624999769032,-0.021312499418854713
1750743737606264000,6.50626416015625,-0.010312499478459358,-0.0017874999903142452,-0.016362499445676804
1750743737615868000,6.515867919921875,-0.010312499478459358,-0.0005499999970197678,-0.012787500396370888
1750743737625471700,6.5254716796875,-0.009074999950826168,0.0031624999828636646,-0.011549999937415123
1750743737635075800,6.535075927734375,-0.005362499970942736,-0.0042624999769032,-0.0030249999836087227
1750743737644679700,6.5446796875,-0.004124999977648258,-0.0042624999769032,0.015399999916553497
1750743737654283800,6.55428369140625,-0.006599999964237213,0.010449999943375587,0.0471624992787838
1750743737663887600,6.5638876953125,-0.011549999937415123,0.017737500369548798,0.09473749995231628
1750743737673491700,6.57349169921875,-0.012787500396370888,0.016499999910593033,0.1667875051498413
1750743737683095600,6.583095458984375,-0.018837500363588333,0.07644999772310257,0.29026249051094055
1750743737692699600,6.59269970703125,-0.05664999783039093,0.09350000321865082,0.478362500667572
1750743737702303500,6.602303466796875,-0.09088750183582306,-0.045787498354911804,0.7642250061035156
1750743737711907600,6.611907470703125,-0.10683749616146088,-0.34869998693466187,1.1943249702453613
1750743737721511400,6.621511474609375,-0.09941250085830688,-0.7213249802589417,1.745287537574768
1750743737731115300,6.631115234375,-0.08483749628067017,-0.898562490940094,2.340250015258789
1750743737740719400,6.64071923828125,-0.10312499850988388,-0.9889000058174133,2.872925043106079
1750743737750323200,6.6503232421875,-0.17393749952316284,-0.9498500227928162,3.2210750579833984
1750743737759927300,6.65992724609375,-0.16541250050067902,-0.6333249807357788,3.349362373352051
1750743737769531100,6.66953125,-0.1214125007390976,-0.2619374990463257,3.326124906539917
1750743737779135000,6.679135009765625,-0.11659999936819077,0.19002500176429749,3.375074863433838
1750743737788739000,6.688739013671875,-0.17159999907016754,0.5773624777793884,3.526599884033203
1750743737798343000,6.698343017578125,-0.2069374918937683,0.7886999845504761,3.666987419128418
1750743737807946800,6.70794677734375,-0.1886499971151352,0.8534625172615051,3.751275062561035
1750743737817550800,6.71755078125,-0.12636250257492065,0.7031750082969666,3.7549874782562256
1750743737827155000,6.727155029296875,-0.040837500244379044,0.5651249885559082,3.6339874267578125
1750743737836758800,6.7367587890625,0.012924999929964542,0.4441249966621399,3.3726000785827637
1750743737846362600,6.746362548828125,0.043449997901916504,0.3207874894142151,2.9902124404907227
1750743737855966700,6.755966796875,0.06173750013113022,0.16321249306201935,2.518587589263916
1750743737865570600,6.765570556640625,0.05444999784231186,-0.040837500244379044,1.987149953842163
1750743737875174700,6.775174560546875,0.029975000768899918,-0.19841249287128448,1.4056625366210938
1750743737884778200,6.7847783203125,0.009212499484419823,-0.23993749916553497,0.8094624876976013
1750743737894382300,6.79438232421875,-0.004124999977648258,-0.172837495803833,0.25478750467300415
1750743737903986200,6.803986083984375,-0.016362499445676804,-0.08855000138282776,-0.22288750112056732
1750743737913590300,6.81359033203125,-0.020075000822544098,-0.06159999966621399,-0.6260374784469604
1750743737923194400,6.8231943359375,-0.012787500396370888,-0.11783749610185623,-0.9754250049591064
1750743737932798200,6.832798095703125,-0.0005499999970197678,-0.1568875014781952,-1.2907124757766724
1750743737942402300,6.84240234375,0.017875000834465027,-0.11659999936819077,-1.5655750036239624
1750743737952006000,6.852005859375,0.03368749842047691,-0.12264999747276306,-1.7707250118255615
1750743737961610000,6.86160986328125,0.03739999979734421,-0.14588749408721924,-1.9479625225067139
1750743737971214000,6.871214111328125,0.03739999979734421,-0.1153625026345253,-2.116537570953369
1750743737980818000,6.88081787109375,0.031212499365210533,-0.060362499207258224,-2.296112537384033
1750743737990421800,6.890421875,0.011687500402331352,-0.0005499999970197678,-2.4879250526428223
1750743738000025600,6.900025634765625,-0.012787500396370888,0.048262499272823334,-2.6516873836517334
1750743738009629700,6.909629638671875,-0.02488750033080578,0.06544999778270721,-2.7762625217437744
1750743738019233800,6.91923388671875,-0.03355000168085098,0.08002500236034393,-2.8788375854492188
1750743738028837600,6.928837646484375,-0.048124998807907104,0.10092499852180481,-2.9497873783111572
1750743738038441500,6.93844140625,-0.060362499207258224,0.09102500230073929,-2.959549903869629
1750743738048045600,6.948045654296875,-0.060362499207258224,0.08992499858140945,-2.8910748958587646
1750743738057649400,6.9576494140625,-0.05555000156164169,0.11550000309944153,-2.773787498474121
1750743738076857300,6.976857421875,-0.04455000162124634,0.16197499632835388,-2.5477375984191895
1750743738086461400,6.98646142578125,-0.04936249926686287,0.19497500360012054,-2.430449962615967
1750743738096065300,6.996065185546875,-0.05664999783039093,0.22426250576972961,-2.2595374584198
1750743738105669000,7.005669189453125,-0.05431250110268593,0.1863124966621399,-2.015199899673462
1750743738115273200,7.015273193359375,-0.03464999794960022,0.09102500230073929,-1.729200005531311
1750743738124877000,7.024876953125,-0.005362499970942736,-0.015262499451637268,-1.4433374404907227
1750743738134481200,7.034481201171875,0.023924998939037323,-0.08855000138282776,-1.1647624969482422
1750743738144085000,7.0440849609375,0.03492499887943268,-0.12031249701976776,-0.8911374807357788
1750743738153688800,7.053688720703125,0.023924998939037323,-0.12155000120401382,-0.6187499761581421
1750743738163293000,7.06329296875,0.008112499490380287,-0.09831249713897705,-0.3609375059604645
1750743738172897000,7.07289697265625,0.0019249999895691872,-0.06902500241994858,-0.13859999179840088
1750743738182500900,7.0825009765625,0.012924999929964542,-0.03959999978542328,0.05197500064969063
1750743738192104700,7.092104736328125,0.027637500315904617,-0.038362499326467514,0.20721249282360077
1750743738201708800,7.101708740234375,0.03987500071525574,-0.03355000168085098,0.30855000019073486
1750743738211312600,7.111312744140625,0.04839999973773956,-0.02502499893307686,0.34759998321533203
1750743738220916500,7.12091650390625,0.04963750019669533,-0.010312499478459358,0.34154999256134033
1750743738230520600,7.1305205078125,0.043449997901916504,0.011687500402331352,0.2975499927997589
1750743738240124400,7.14012451171875,0.03863750025629997,0.026399999856948853,0.22921249270439148
1750743738249728500,7.149728515625,0.03863750025629997,0.016499999910593033,0.15097500383853912
1750743738259332400,7.159332275390625,0.04097500070929527,0.0031624999828636646,0.07150000333786011
1750743738268936200,7.168936279296875,0.04468749836087227,0.0019249999895691872,-0.0005499999970197678
1750743738278540300,7.178540283203125,0.04097500070929527,-0.0030249999836087227,-0.06531249731779099
1750743738288144400,7.188144287109375,0.031212499365210533,-0.010312499478459358,-0.11055000126361847
1750743738297748200,7.197748291015625,0.021449999883770943,-0.0042624999769032,-0.12636250257492065
1750743738307352000,7.20735205078125,0.011687500402331352,-0.0005499999970197678,-0.12264999747276306
1750743738316956200,7.2169560546875,0.0006874999962747097,-0.009074999950826168,-0.1093124970793724
1750743738326560000,7.22656005859375,-0.010312499478459358,-0.007837500423192978,-0.089649997651577
1750743738336164000,7.2361640625,-0.02488750033080578,0.0019249999895691872,-0.07631249725818634
1750743738345768200,7.245768310546875,-0.03464999794960022,-0.0005499999970197678,-0.07136250287294388
1750743738355371800,7.255371826171875,-0.038362499326467514,-0.007837500423192978,-0.07631249725818634
1750743738364975900,7.264975830078125,-0.040837500244379044,-0.015262499451637268,-0.08236250281333923
1750743738374579700,7.274579833984375,-0.03712499886751175,-0.028599999845027924,-0.0835999995470047
1750743738384183800,7.284183837890625,-0.02983750030398369,-0.03478749841451645,-0.07259999960660934
1750743738393787600,7.29378759765625,-0.023787500336766243,-0.012787500396370888,-0.045787498354911804
1750743738403391700,7.303391845703125,-0.020075000822544098,0.0031624999828636646,-0.018837500363588333
1750743738412995800,7.312995849609375,-0.013887500390410423,0.006737499963492155,0.0031624999828636646
1750743738422599700,7.322599609375,-0.004124999977648258,0.006737499963492155,0.016637500375509262
1750743738432203500,7.33220361328125,-0.0005499999970197678,0.006737499963492155,0.025162499397993088
1750743738441807400,7.341807373046875,-0.0005499999970197678,0.009212499484419823,0.023924998939037323
1750743738451411500,7.351411376953125,0.0006874999962747097,0.006737499963492155,0.016637500375509262
1750743738461015300,7.361015380859375,-0.0005499999970197678,-0.0005499999970197678,0.0031624999828636646
1750743738470619100,7.370619140625,-0.0005499999970197678,-0.0017874999903142452,-0.012787500396370888
1750743738480223200,7.38022314453125,0.0019249999895691872,-0.0042624999769032,-0.03355000168085098
1750743738489827000,7.3898271484375,0.009212499484419823,-0.005362499970942736,-0.04702499881386757
1750743738499431200,7.39943115234375,0.015399999916553497,-0.010312499478459358,-0.045787498354911804
1750743738509035000,7.409034912109375,0.016637500375509262,-0.011549999937415123,-0.03478749841451645
1750743738518638800,7.418638916015625,0.014162499457597733,-0.009074999950826168,-0.023787500336766243
1750743738528243000,7.428242919921875,0.012924999929964542,-0.011549999937415123,-0.007837500423192978
1750743738537846800,7.4378466796875,0.014162499457597733,-0.009074999950826168,0.011687500402331352
1750743738547451000,7.447450927734375,0.012924999929964542,-0.005362499970942736,0.029975000768899918
1750743738557054700,7.4570546875,0.011687500402331352,0.0019249999895691872,0.03616249933838844
1750743738566658800,7.466658935546875,0.010449999943375587,0.004399999976158142,0.03849999979138374
1750743738576263000,7.476262939453125,0.008112499490380287,-0.0017874999903142452,0.03244999796152115
1750743738585866500,7.485866455078125,0.0056374999694526196,-0.005362499970942736,0.021449999883770943
1750743738595470600,7.495470703125,-0.0005499999970197678,-0.0030249999836087227,0.010449999943375587
1750743738605074400,7.505074462890625,-0.007837500423192978,0.006737499963492155,0.0031624999828636646
1750743738614678500,7.514678466796875,-0.010312499478459358,0.011687500402331352,-0.007837500423192978
1750743738624282400,7.524282470703125,-0.010312499478459358,0.005499999970197678,-0.01759999990463257
1750743738633886200,7.53388623046875,-0.012787500396370888,-0.0042624999769032,-0.02983750030398369
1750743738643490000,7.543489990234375,-0.013887500390410423,-0.011549999937415123,-0.02983750030398369
1750743738653094100,7.55309423828125,-0.013887500390410423,-0.015262499451637268,-0.018837500363588333
1750743738662698200,7.5626982421875,-0.012787500396370888,-0.015262499451637268,-0.007837500423192978
1750743738672302000,7.572302001953125,-0.012787500396370888,-0.010312499478459358,-0.006599999964237213
1750743738681906000,7.581906005859375,-0.010312499478459358,-0.007837500423192978,-0.010312499478459358
1750743738691510000,7.591510009765625,-0.005362499970942736,-0.006599999964237213,-0.010312499478459358
1750743738701113900,7.60111376953125,-0.004124999977648258,-0.009074999950826168,-0.009074999950826168
1750743738710718000,7.610718017578125,-0.0017874999903142452,-0.006599999964237213,-0.012787500396370888
1750743738720321800,7.62032177734375,-0.004124999977648258,0.0019249999895691872,-0.026124998927116394
1750743738729926000,7.62992578125,-0.006599999964237213,0.011687500402331352,-0.038362499326467514
1750743738739529700,7.63952978515625,-0.009074999950826168,0.010449999943375587,-0.04455000162124634
1750743738749133600,7.649133544921875,-0.011549999937415123,-0.0005499999970197678,-0.04331250116229057
1750743738758737700,7.658737548828125,-0.009074999950826168,-0.014024999924004078,-0.03712499886751175
1750743738768341500,7.668341552734375,-0.004124999977648258,-0.01759999990463257,-0.02502499893307686
1750743738777945600,7.677945556640625,-0.0005499999970197678,-0.011549999937415123,-0.006599999964237213
1750743738787549400,7.687549560546875,-0.0005499999970197678,-0.007837500423192978,0.015399999916553497
1750743738797153500,7.697153564453125,-0.0017874999903142452,-0.0030249999836087227,0.03616249933838844
1750743738806757400,7.70675732421875,-0.0017874999903142452,0.0031624999828636646,0.04468749836087227
1750743738816361200,7.716361328125,-0.0028874999843537807,0.007974999956786633,0.03616249933838844
1750743738825965300,7.72596533203125,-0.0028874999843537807,0.007974999956786633,0.017737500369548798
1750743738835569200,7.735569091796875,-0.0005499999970197678,0.007974999956786633,-0.0005499999970197678
1750743738845173200,7.74517333984375,0.004399999976158142,0.006737499963492155,-0.009074999950826168
1750743738854777300,7.75477734375,0.008112499490380287,-0.0030249999836087227,-0.007837500423192978
1750743738864381200,7.764381103515625,0.009212499484419823,-0.0005499999970197678,-0.0017874999903142452
1750743738873985000,7.773985107421875,0.004399999976158142,0.004399999976158142,0.004399999976158142
1750743738883589000,7.783589111328125,0.0019249999895691872,0.0019249999895691872,0.016637500375509262
1750743738893193000,7.79319287109375,0.0006874999962747097,0.012924999929964542,0.03739999979734421
1750743738902797000,7.802797119140625,-0.005362499970942736,0.03492499887943268,0.06297499686479568
1750743738912401000,7.81240087890625,-0.012787500396370888,0.04097500070929527,0.08373750001192093
1750743738922005000,7.8220048828125,-0.015124999918043613,0.03849999979138374,0.09721250087022781
1750743738931608600,7.831608642578125,-0.016362499445676804,0.03726249933242798,0.1069749966263771
1750743738941212700,7.841212646484375,-0.016362499445676804,0.03726249933242798,0.1069749966263771
1750743738950816500,7.85081640625,-0.013887500390410423,0.022687500342726707,0.08373750001192093
1750743738960420600,7.860420654296875,-0.010312499478459358,0.006737499963492155,0.043449997901916504
1750743738970024700,7.870024658203125,-0.006599999964237213,-0.0030249999836087227,0.017737500369548798
1750743738979628300,7.879628173828125,-0.0028874999843537807,-0.0017874999903142452,0.016637500375509262
1750743738989232600,7.889232666015625,-0.004124999977648258,0.020212499424815178,0.026399999856948853
1750743738998836500,7.89883642578125,-0.013887500390410423,0.07150000333786011,0.06297499686479568
1750743739008440600,7.908440673828125,-0.02983750030398369,0.10202500224113464,0.15097500383853912
1750743739018044400,7.91804443359375,-0.04688749834895134,0.11426249891519547,0.28049999475479126
1750743739027648300,7.927648193359375,-0.05555000156164169,0.0789249986410141,0.414837509393692
1750743739037252400,7.93725244140625,-0.0518375001847744,0.06544999778270721,0.5321249961853027
1750743739046856000,7.94685595703125,-0.045649997889995575,0.06297499686479568,0.6164125204086304
1750743739056460300,7.956460205078125,-0.035887498408555984,0.04221250116825104,0.6616500020027161
1750743739066064100,7.966064208984375,-0.02488750033080578,0.007974999956786633,0.6641250252723694
1750743739075668000,7.97566796875,-0.013887500390410423,-0.0005499999970197678,0.6126999855041504
1750743739085272000,7.98527197265625,-0.015124999918043613,0.021449999883770943,0.5088874697685242
1750743739094876000,7.9948759765625,-0.02488750033080578,0.03726249933242798,0.3708375096321106
1750743739104480000,8.00447998046875,-0.026124998927116394,0.03616249933838844,0.22055000066757202
1750743739114083800,8.014083740234375,-0.018837500363588333,0.015399999916553497,0.07150000333786011
1750743739123687700,8.023687744140625,-0.004124999977648258,-0.020075000822544098,-0.07136250287294388
1750743739133291800,8.033291748046874,0.006874999962747097,-0.05678749829530716,-0.19717499613761902
1750743739142895600,8.0428955078125,0.014162499457597733,-0.08112499862909317,-0.2901250123977661
1750743739152499700,8.052499755859374,0.016637500375509262,-0.09212499856948853,-0.34264999628067017
1750743739162103600,8.062103515625,0.016637500375509262,-0.09212499856948853,-0.3609375059604645
1750743739171707600,8.071707763671874,0.014162499457597733,-0.08236250281333923,-0.3511750102043152
1750743739181311700,8.081311767578125,0.010449999943375587,-0.07507500052452087,-0.3144625127315521
1750743739190915300,8.090915283203126,0.008112499490380287,-0.07507500052452087,-0.2583625018596649
1750743739200519400,8.10051953125,0.006874999962747097,-0.06407500058412552,-0.19965000450611115
1750743739210123300,8.110123291015626,0.0031624999828636646,-0.04455000162124634,-0.1568875014781952
1750743739219727400,8.119727294921875,-0.0028874999843537807,-0.03478749841451645,-0.1313125044107437
1750743739229331500,8.12933154296875,-0.004124999977648258,-0.022549999877810478,-0.11412499845027924
1750743739238935300,8.138935302734374,-0.0017874999903142452,-0.016362499445676804,-0.10436250269412994
1750743739248539100,8.1485390625,0.0031624999828636646,-0.018837500363588333,-0.10436250269412994
1750743739258143200,8.158143310546874,0.0056374999694526196,-0.026262499392032623,-0.1093124970793724
1750743739267747000,8.1677470703125,0.008112499490380287,-0.03712499886751175,-0.1116499975323677
1750743739277351200,8.17735107421875,0.012924999929964542,-0.03712499886751175,-0.10436250269412994
1750743739286955000,8.186955078125,0.015399999916553497,-0.02983750030398369,-0.08236250281333923
1750743739296559000,8.19655908203125,0.015399999916553497,-0.020075000822544098,-0.05678749829530716
1750743739306163000,8.206162841796875,0.010449999943375587,-0.0005499999970197678,-0.026124998927116394
1750743739315767000,8.21576708984375,0.004399999976158142,0.009212499484419823,-0.006599999964237213
1750743739325371000,8.225370849609375,-0.0017874999903142452,0.011687500402331352,-0.007837500423192978
1750743739334974700,8.234974609375,-0.0028874999843537807,0.007974999956786633,-0.016362499445676804
1750743739344578800,8.244578857421875,-0.004124999977648258,0.005499999970197678,-0.022549999877810478
1750743739354182700,8.2541826171875,-0.0028874999843537807,0.0006874999962747097,-0.02502499893307686
1750743739363786800,8.263786865234374,0.0006874999962747097,-0.0005499999970197678,-0.028599999845027924
1750743739373390600,8.273390625,0.0006874999962747097,-0.0030249999836087227,-0.02983750030398369
1750743739382994700,8.28299462890625,-0.0005499999970197678,0.0019249999895691872,-0.02736249938607216
1750743739392598800,8.292598876953125,-0.0005499999970197678,0.007974999956786633,-0.016362499445676804
1750743739402202400,8.302202392578126,0.0006874999962747097,0.007974999956786633,-0.006599999964237213
1750743739411806500,8.311806396484375,0.0031624999828636646,0.007974999956786633,0.0006874999962747097
1750743739421410600,8.32141064453125,0.0031624999828636646,0.004399999976158142,0.006737499963492155
1750743739431014100,8.33101416015625,0.004399999976158142,0.0031624999828636646,0.014162499457597733
1750743739440618500,8.340618408203126,0.004399999976158142,-0.0017874999903142452,0.017737500369548798
1750743739450222600,8.35022265625,0.0031624999828636646,-0.012787500396370888,0.012924999929964542
1750743739459826200,8.359826171875,0.0019249999895691872,-0.014024999924004078,0.0031624999828636646
1750743739469430300,8.36943017578125,-0.0005499999970197678,-0.011549999937415123,-0.007837500423192978
1750743739479034000,8.3790341796875,-0.0005499999970197678,-0.011549999937415123,-0.020075000822544098
1750743739488638200,8.38863818359375,-0.0028874999843537807,-0.006599999964237213,-0.028599999845027924
1750743739498242000,8.398241943359375,-0.0028874999843537807,-0.0005499999970197678,-0.02983750030398369
1750743739507846100,8.40784619140625,-0.0017874999903142452,-0.0005499999970197678,-0.023787500336766243
1750743739517450000,8.417449951171875,0.0019249999895691872,-0.0005499999970197678,-0.01759999990463257
1750743739527053800,8.4270537109375,0.0056374999694526196,0.0006874999962747097,-0.012787500396370888
1750743739536658000,8.436657958984375,0.006874999962747097,0.0019249999895691872,-0.0030249999836087227
1750743739546261800,8.44626171875,0.0031624999828636646,-0.0030249999836087227,0.007974999956786633
1750743739555865900,8.455865966796875,-0.0017874999903142452,-0.010312499478459358,0.009212499484419823
1750743739565470000,8.465469970703126,-0.007837500423192978,-0.012787500396370888,-0.0005499999970197678
1750743739575073500,8.475073486328125,-0.011549999937415123,-0.007837500423192978,-0.014024999924004078
1750743739584678000,8.484677978515625,-0.010312499478459358,0.0006874999962747097,-0.02502499893307686
1750743739594281700,8.49428173828125,-0.007837500423192978,0.0019249999895691872,-0.02983750030398369
1750743739603885600,8.503885498046875,-0.004124999977648258,0.005499999970197678,-0.02736249938607216
1750743739613489700,8.51348974609375,-0.0017874999903142452,0.006737499963492155,-0.022549999877810478
1750743739623093500,8.523093505859375,0.0006874999962747097,0.005499999970197678,-0.014024999924004078
1750743739632697600,8.532697509765624,0.0019249999895691872,0.0019249999895691872,-0.009074999950826168
1750743739642301700,8.5423017578125,-0.0017874999903142452,0.0031624999828636646,-0.014024999924004078
1750743739651905500,8.551905517578126,-0.0028874999843537807,0.018975000828504562,-0.02736249938607216
1750743739661509600,8.561509521484375,-0.006599999964237213,0.026399999856948853,-0.04207500070333481
1750743739671113500,8.571113525390626,-0.0028874999843537807,0.016499999910593033,-0.045787498354911804
1750743739680717300,8.58071728515625,-0.0005499999970197678,0.007974999956786633,-0.045787498354911804
1750743739690321400,8.5903212890625,-0.0017874999903142452,-0.007837500423192978,-0.040837500244379044
1750743739699925200,8.59992529296875,-0.005362499970942736,0.0031624999828636646,-0.020075000822544098
1750743739709529300,8.609529296875,-0.012787500396370888,0.028737500309944153,0.021449999883770943
1750743739719133200,8.61913330078125,-0.021312499418854713,0.060499999672174454,0.0789249986410141
1750743739728737000,8.628737060546875,-0.02983750030398369,0.0789249986410141,0.16321249306201935
1750743739738341400,8.63834130859375,-0.040837500244379044,0.09597499668598175,0.27678748965263367
1750743739747945000,8.647945068359375,-0.050599999725818634,0.07150000333786011,0.4025999903678894
1750743739757549000,8.657549072265626,-0.048124998807907104,0.07150000333786011,0.5504124760627747
1750743739767153000,8.66715283203125,-0.040837500244379044,0.1522125005722046,0.7679374814033508
1750743739776757000,8.676757080078126,-0.05555000156164169,0.3305499851703644,1.10756254196167
1750743739786360800,8.68636083984375,-0.06888750195503235,0.4283125102519989,1.5461875200271606
1750743739795964700,8.695964599609376,-0.050599999725818634,0.4343625009059906,1.944387435913086
1750743739805568800,8.70556884765625,0.010449999943375587,0.4465999901294708,2.176487445831299
1750743739815172600,8.715172607421875,0.07644999772310257,0.4355999827384949,2.2242000102996826
1750743739824776700,8.724776611328124,0.08139999955892563,0.39531248807907104,2.1166749000549316
1750743739834380500,8.734380615234375,0.04097500070929527,0.31226250529289246,1.8870500326156616
1750743739843984600,8.743984619140624,-0.004124999977648258,0.22550000250339508,1.553475022315979
1750743739853588700,8.753588623046875,-0.04936249926686287,0.15950000286102295,1.1698499917984009
1750743739863192300,8.7631923828125,-0.089649997651577,0.11797499656677246,0.7594124674797058
1750743739872796400,8.77279638671875,-0.1153625026345253,0.031212499365210533,0.34759998321533203
1750743739882400500,8.782400390625,-0.11412499845027924,-0.07259999960660934,-0.04455000162124634
1750743739892004400,8.79200439453125,-0.06531249731779099,-0.19359999895095825,-0.39393749833106995
1750743739901608400,8.8016083984375,-0.010312499478459358,-0.3218874931335449,-0.6773250102996826
1750743739911212300,8.81121240234375,0.03739999979734421,-0.4147000014781952,-0.8813750147819519
1750743739920816400,8.82081640625,0.07039999961853027,-0.42941248416900635,-1.004712462425232
1750743739930420200,8.830420166015625,0.08016250282526016,-0.3694624900817871,-1.0694749355316162
1750743739940024000,8.840024169921875,0.06916250288486481,-0.2937000095844269,-1.1012375354766846
1750743739949628200,8.849628173828124,0.06173750013113022,-0.24365000426769257,-1.1159499883651733
1750743739959232000,8.85923193359375,0.06297499686479568,-0.21917499601840973,-1.1061874628067017
1750743739968836000,8.868836181640624,0.07039999961853027,-0.19717499613761902,-1.0756624937057495
1750743739978440000,8.87843994140625,0.06916250288486481,-0.13859999179840088,-1.0243749618530273
1750743739988044000,8.8880439453125,0.05692499876022339,-0.0835999995470047,-0.9461374878883362
1750743739997648000,8.89764794921875,0.03368749842047691,-0.03231250122189522,-0.8630874752998352
1750743740007251700,8.907251708984376,0.009212499484419823,-0.0030249999836087227,-0.7958499789237976
1750743740016855800,8.916855712890625,-0.004124999977648258,0.004399999976158142,-0.7385125160217285
1750743740026460000,8.9264599609375,-0.005362499970942736,-0.007837500423192978,-0.676087498664856
1750743740036063700,8.936063720703125,0.0019249999895691872,-0.031075000762939453,-0.5955125093460083
1750743740045667800,8.945667724609375,0.012924999929964542,-0.04702499881386757,-0.5050374865531921
1750743740055271700,8.955271728515624,0.022687500342726707,-0.053075000643730164,-0.4184125065803528
1750743740064875800,8.964875732421875,0.03368749842047691,-0.03959999978542328,-0.3328875005245209
1750743740074479400,8.974479248046874,0.04468749836087227,-0.022549999877810478,-0.25093749165534973
1750743740084083500,8.98408349609375,0.05444999784231186,-0.012787500396370888,-0.18136249482631683
1750743740093687600,8.9936875,0.055687498301267624,-0.011549999937415123,-0.13007499277591705
1750743740103291600,9.003291748046875,0.05073750019073486,-0.016362499445676804,-0.09583749622106552
1750743740112895500,9.0128955078125,0.043449997901916504,-0.02736249938607216,-0.07878749817609787
1750743740122499600,9.02249951171875,0.03244999796152115,-0.023787500336766243,-0.06531249731779099
1750743740132103400,9.032103515625,0.021449999883770943,-0.009074999950826168,-0.04936249926686287
1750743740141707500,9.04170751953125,0.015399999916553497,0.004399999976158142,-0.03355000168085098
1750743740151311400,9.051311279296876,0.015399999916553497,0.006737499963492155,-0.016362499445676804
1750743740160915200,9.060915283203125,0.015399999916553497,0.005499999970197678,-0.0005499999970197678
1750743740170519300,9.070519287109375,0.012924999929964542,0.005499999970197678,0.0031624999828636646
1750743740180123100,9.080123046875,0.008112499490380287,0.005499999970197678,0.0019249999895691872
1750743740189727200,9.089727294921875,0.0019249999895691872,0.007974999956786633,-0.0030249999836087227
1750743740199331000,9.0993310546875,-0.0017874999903142452,0.009212499484419823,-0.007837500423192978
1750743740208935200,9.10893505859375,-0.005362499970942736,0.010449999943375587,-0.015124999918043613
1750743740218539000,9.1185390625,-0.006599999964237213,0.006737499963492155,-0.023787500336766243
1750743740228143000,9.12814306640625,-0.009074999950826168,-0.0042624999769032,-0.03231250122189522
1750743740237747200,9.137747314453126,-0.013887500390410423,-0.009074999950826168,-0.028599999845027924
1750743740247351000,9.14735107421875,-0.015124999918043613,-0.0017874999903142452,-0.014024999924004078
1750743740256955000,9.156954833984376,-0.015124999918043613,0.0006874999962747097,-0.0017874999903142452
1750743740266559000,9.16655908203125,-0.012787500396370888,-0.0042624999769032,0.0019249999895691872
1750743740276162800,9.176162841796875,-0.011549999937415123,-0.0042624999769032,-0.0005499999970197678
1750743740285767000,9.185766845703125,-0.009074999950826168,0.006737499963492155,0.004399999976158142
1750743740295370800,9.195370849609375,-0.009074999950826168,0.012924999929964542,0.017737500369548798
1750743740304974600,9.204974609375,-0.007837500423192978,-0.0030249999836087227,0.018975000828504562
1750743740314578700,9.21457861328125,-0.007837500423192978,-0.006599999964237213,0.009212499484419823
1750743740324182800,9.224182861328124,-0.007837500423192978,-0.0005499999970197678,-0.007837500423192978
1750743740333786600,9.23378662109375,-0.005362499970942736,0.0031624999828636646,-0.023787500336766243
1750743740343390500,9.243390380859376,-0.0005499999970197678,-0.0030249999836087227,-0.02736249938607216
1750743740352994600,9.25299462890625,0.0006874999962747097,-0.011549999937415123,-0.021312499418854713
1750743740362598700,9.2625986328125,-0.0005499999970197678,-0.020075000822544098,-0.01759999990463257
1750743740372202200,9.2722021484375,0.0006874999962747097,-0.022549999877810478,-0.021312499418854713
1750743740381806300,9.281806396484376,0.0031624999828636646,-0.016362499445676804,-0.022549999877810478
1750743740391410400,9.291410400390625,0.008112499490380287,-0.012787500396370888,-0.020075000822544098
1750743740401014300,9.30101416015625,0.010449999943375587,-0.011549999937415123,-0.016362499445676804
1750743740410618400,9.310618408203124,0.014162499457597733,-0.0030249999836087227,-0.015124999918043613
1750743740420222200,9.32022216796875,0.014162499457597733,0.007974999956786633,-0.010312499478459358
1750743740429826300,9.329826416015624,0.015399999916553497,0.007974999956786633,-0.0005499999970197678
1750743740439430100,9.33943017578125,0.016637500375509262,0.006737499963492155,0.010449999943375587
1750743740449034200,9.3490341796875,0.012924999929964542,0.004399999976158142,0.014162499457597733
1750743740458638000,9.35863818359375,0.006874999962747097,0.007974999956786633,0.010449999943375587
1750743740468242000,9.368241943359376,-0.0005499999970197678,0.010449999943375587,0.009212499484419823
1750743740477846000,9.377845947265625,-0.006599999964237213,0.009212499484419823,0.007974999956786633
1750743740487449900,9.387449951171876,-0.005362499970942736,0.006737499963492155,0.010449999943375587
1750743740497054000,9.397053955078125,-0.006599999964237213,0.005499999970197678,0.011687500402331352
1750743740506657800,9.40665771484375,-0.004124999977648258,0.006737499963492155,0.016637500375509262
1750743740516262000,9.416261962890625,-0.005362499970942736,0.0019249999895691872,0.018975000828504562
1750743740525865700,9.42586572265625,-0.0017874999903142452,-0.005362499970942736,0.016637500375509262
1750743740535469600,9.435469482421874,0.0006874999962747097,-0.007837500423192978,0.012924999929964542
1750743740545074000,9.445073974609375,0.0006874999962747097,-0.009074999950826168,0.010449999943375587
1750743740554677500,9.454677490234374,-0.0005499999970197678,-0.006599999964237213,0.0056374999694526196
1750743740564281600,9.464281494140625,-0.0028874999843537807,-0.005362499970942736,0.0031624999828636646
1750743740573885400,9.473885498046876,-0.005362499970942736,-0.0030249999836087227,0.0019249999895691872
1750743740583489500,9.483489501953125,-0.005362499970942736,0.0019249999895691872,-0.0005499999970197678
1750743740593093600,9.49309375,-0.006599999964237213,0.007974999956786633,-0.0042624999769032
1750743740602697500,9.502697509765625,-0.007837500423192978,0.009212499484419823,-0.0030249999836087227
1750743740612301300,9.51230126953125,-0.009074999950826168,0.004399999976158142,-0.0042624999769032
1750743740621905400,9.521905517578125,-0.009074999950826168,-0.005362499970942736,-0.011549999937415123
1750743740631509500,9.531509521484375,-0.007837500423192978,0.0031624999828636646,-0.012787500396370888
1750743740641113300,9.54111328125,-0.006599999964237213,-0.0017874999903142452,-0.006599999964237213
1750743740650717200,9.55071728515625,-0.006599999964237213,-0.014024999924004078,-0.0005499999970197678
1750743740660321300,9.5603212890625,-0.005362499970942736,-0.012787500396370888,0.006737499963492155
1750743740669925000,9.569925048828125,-0.007837500423192978,0.0019249999895691872,0.016637500375509262
1750743740679529000,9.579529052734374,-0.006599999964237213,0.004399999976158142,0.017737500369548798
1750743740689133000,9.589133056640625,-0.004124999977648258,-0.0030249999836087227,0.011687500402331352
1750743740698737000,9.59873681640625,-0.0028874999843537807,-0.005362499970942736,0.0019249999895691872
1750743740708341000,9.608341064453125,-0.0028874999843537807,-0.005362499970942736,-0.006599999964237213
1750743740717944800,9.61794482421875,-0.004124999977648258,-0.007837500423192978,-0.01759999990463257
1750743740727549000,9.627548828125,-0.004124999977648258,-0.010312499478459358,-0.02983750030398369
1750743740737153000,9.637153076171876,-0.0028874999843537807,-0.012787500396370888,-0.036024998873472214
1750743740746756900,9.6467568359375,-0.004124999977648258,-0.011549999937415123,-0.026124998927116394
1750743740756361000,9.65636083984375,-0.004124999977648258,-0.007837500423192978,-0.009074999950826168
1750743740765964800,9.66596484375,-0.006599999964237213,-0.009074999950826168,-0.0017874999903142452
1750743740775568600,9.675568603515625,-0.010312499478459358,-0.011549999937415123,-0.005362499970942736
1750743740785172700,9.6851728515625,-0.009074999950826168,-0.009074999950826168,-0.006599999964237213
1750743740794776600,9.694776611328125,-0.005362499970942736,-0.005362499970942736,-0.0005499999970197678
1750743740804380700,9.704380615234374,-0.004124999977648258,-0.005362499970942736,0.0006874999962747097
1750743740813984500,9.713984619140625,-0.0028874999843537807,-0.0005499999970197678,0.0006874999962747097
1750743740823588600,9.723588623046876,-0.004124999977648258,0.0031624999828636646,-0.0030249999836087227
1750743740833192700,9.733192626953125,-0.0028874999843537807,0.0031624999828636646,-0.009074999950826168
1750743740842796500,9.742796630859376,-0.0017874999903142452,-0.005362499970942736,-0.016362499445676804
1750743740852400400,9.752400390625,-0.0005499999970197678,-0.014024999924004078,-0.020075000822544098
1750743740862004500,9.76200439453125,0.0019249999895691872,-0.01759999990463257,-0.018837500363588333
1750743740871608300,9.7716083984375,0.0006874999962747097,-0.015262499451637268,-0.014024999924004078
1750743740881212400,9.78121240234375,0.0006874999962747097,-0.011549999937415123,-0.006599999964237213
1750743740890816300,9.790816162109374,-0.0017874999903142452,-0.0030249999836087227,-0.005362499970942736
1750743740900420400,9.80042041015625,0.0006874999962747097,-0.0005499999970197678,-0.007837500423192978
1750743740910024200,9.810024169921874,-0.0005499999970197678,-0.0030249999836087227,-0.010312499478459358
1750743740919628000,9.8196279296875,-0.0017874999903142452,-0.0005499999970197678,-0.007837500423192978
1750743740929232100,9.829232177734376,-0.005362499970942736,0.0019249999895691872,-0.010312499478459358
1750743740938836000,9.8388359375,-0.005362499970942736,0.0006874999962747097,-0.010312499478459358
1750743740948440000,9.848440185546876,-0.005362499970942736,-0.0005499999970197678,-0.010312499478459358
1750743740958044200,9.858044189453125,-0.004124999977648258,-0.010312499478459358,-0.010312499478459358
1750743740967648000,9.86764794921875,-0.0028874999843537807,-0.015262499451637268,-0.009074999950826168
1750743740977252000,9.877252197265625,-0.004124999977648258,-0.011549999937415123,-0.005362499970942736
1750743740986856000,9.88685595703125,-0.004124999977648258,-0.007837500423192978,-0.009074999950826168
1750743740996459800,9.896459716796874,-0.0028874999843537807,-0.007837500423192978,-0.014024999924004078
1750743741006063900,9.90606396484375,-0.0005499999970197678,-0.007837500423192978,-0.016362499445676804
1750743741015667700,9.915667724609374,0.0019249999895691872,-0.007837500423192978,-0.014024999924004078
1750743741025271800,9.925271728515625,0.0006874999962747097,-0.0042624999769032,-0.007837500423192978
1750743741034875600,9.934875732421874,-0.0017874999903142452,0.0019249999895691872,-0.0005499999970197678
1750743741044479700,9.944479736328125,-0.0017874999903142452,0.0031624999828636646,-0.0005499999970197678
1750743741054083600,9.95408349609375,-0.0028874999843537807,0.0006874999962747097,-0.0042624999769032
1750743741063687400,9.9636875,0.0006874999962747097,-0.0005499999970197678,-0.005362499970942736
1750743741073291800,9.973291748046876,0.0006874999962747097,-0.0017874999903142452,-0.0042624999769032
1750743741082895600,9.9828955078125,-0.0005499999970197678,-0.0030249999836087227,-0.006599999964237213
1750743741092499500,9.99249951171875,-0.0028874999843537807,-0.0017874999903142452,-0.016362499445676804
1750743741102103600,10.002103515625,-0.007837500423192978,-0.0017874999903142452,-0.020075000822544098
1750743741111707400,10.011707275390625,-0.007837500423192978,-0.0017874999903142452,-0.020075000822544098
1750743741121311500,10.0213115234375,-0.007837500423192978,-0.0017874999903142452,-0.01759999990463257
1750743741130915300,10.030915283203125,-0.009074999950826168,-0.0042624999769032,-0.010312499478459358
1750743741140519400,10.04051953125,-0.007837500423192978,-0.0042624999769032,0.004399999976158142
1750743741150123300,10.050123291015625,-0.005362499970942736,-0.0005499999970197678,0.014162499457597733
1750743741159727400,10.059727294921874,0.0006874999962747097,-0.0017874999903142452,0.015399999916553497
1750743741169331200,10.069331298828125,0.0006874999962747097,0.0006874999962747097,0.007974999956786633
1750743741178935000,10.07893505859375,-0.0017874999903142452,-0.0005499999970197678,0.0019249999895691872
1750743741188539100,10.0885390625,-0.006599999964237213,-0.006599999964237213,-0.0017874999903142452
1750743741198143200,10.098143310546876,-0.009074999950826168,-0.009074999950826168,-0.0005499999970197678
1750743741207747000,10.1077470703125,-0.011549999937415123,-0.011549999937415123,-0.006599999964237213
1750743741217351000,10.117350830078125,-0.010312499478459358,-0.016362499445676804,-0.018837500363588333
1750743741226955000,10.126955078125,-0.007837500423192978,-0.012787500396370888,-0.023787500336766243
1750743741236559000,10.13655908203125,-0.004124999977648258,-0.007837500423192978,-0.016362499445676804
1750743741246163000,10.146162841796874,-0.0005499999970197678,-0.009074999950826168,0.0031624999828636646
1750743741255766800,10.155766845703125,0.0019249999895691872,-0.009074999950826168,0.017737500369548798
1750743741265371000,10.165370849609374,0.0019249999895691872,-0.010312499478459358,0.016637500375509262
1750743741274975000,10.17497509765625,0.0019249999895691872,-0.0030249999836087227,0.009212499484419823
1750743741284578800,10.184578857421876,0.0019249999895691872,0.0019249999895691872,0.006737499963492155
1750743741294183000,10.194182861328125,-0.0028874999843537807,-0.0017874999903142452,0.0006874999962747097
1750743741303786500,10.203786376953126,-0.005362499970942736,-0.0017874999903142452,-0.011549999937415123
1750743741313390800,10.213390869140625,-0.004124999977648258,0.005499999970197678,-0.022549999877810478
1750743741322994700,10.22299462890625,-0.005362499970942736,0.011687500402331352,-0.02983750030398369
1750743741332598800,10.232598876953125,-0.005362499970942736,0.007974999956786633,-0.03355000168085098
1750743741342202600,10.24220263671875,-0.004124999977648258,0.0019249999895691872,-0.026124998927116394
1750743741351806500,10.251806396484374,-0.005362499970942736,-0.005362499970942736,-0.011549999937415123
1750743741361410600,10.26141064453125,-0.005362499970942736,-0.012787500396370888,0.0019249999895691872
1750743741371014400,10.271014404296874,-0.004124999977648258,-0.01759999990463257,0.006737499963492155
1750743741380618500,10.280618408203125,-0.004124999977648258,-0.016362499445676804,0.006737499963492155
1750743741390222600,10.29022265625,-0.0028874999843537807,-0.011549999937415123,0.010449999943375587
1750743741399826400,10.299826416015625,-0.0028874999843537807,-0.005362499970942736,0.012924999929964542
1750743741409430300,10.30943017578125,-0.0028874999843537807,0.0019249999895691872,0.0031624999828636646
1750743741419034400,10.319034423828125,-0.0028874999843537807,0.005499999970197678,-0.010312499478459358
1750743741428638200,10.32863818359375,-0.0028874999843537807,0.006737499963492155,-0.01759999990463257
1750743741438242300,10.3382421875,-0.004124999977648258,0.005499999970197678,-0.01759999990463257
1750743741447846100,10.34784619140625,-0.005362499970942736,-0.0005499999970197678,-0.012787500396370888
1750743741457450200,10.3574501953125,-0.004124999977648258,-0.0030249999836087227,-0.009074999950826168
1750743741467054000,10.36705419921875,-0.0028874999843537807,-0.005362499970942736,-0.009074999950826168
1750743741476658000,10.376657958984374,-0.0017874999903142452,-0.007837500423192978,-0.014024999924004078
1750743741486262000,10.386261962890625,0.0006874999962747097,-0.012787500396370888,-0.018837500363588333
1750743741495865900,10.395865966796874,0.0006874999962747097,-0.016362499445676804,-0.012787500396370888
1750743741505470000,10.405469970703125,0.0019249999895691872,-0.01759999990463257,-0.0042624999769032
1750743741515073800,10.41507373046875,0.0006874999962747097,-0.015262499451637268,-0.0005499999970197678
1750743741524678000,10.424677978515625,0.0006874999962747097,-0.011549999937415123,-0.006599999964237213
1750743741534282000,10.434281982421876,-0.0005499999970197678,-0.010312499478459358,-0.011549999937415123
1750743741543885600,10.443885498046875,-0.0017874999903142452,-0.005362499970942736,-0.009074999950826168
1750743741553490000,10.453489990234376,-0.0017874999903142452,-0.006599999964237213,-0.0017874999903142452
1750743741563094000,10.463093994140625,-0.005362499970942736,-0.016362499445676804,0.0006874999962747097
1750743741572697600,10.472697509765625,-0.009074999950826168,-0.014024999924004078,-0.0042624999769032
1750743741582301700,10.4823017578125,-0.011549999937415123,-0.005362499970942736,-0.010312499478459358
1750743741591905800,10.49190576171875,-0.009074999950826168,-0.0017874999903142452,-0.014024999924004078
1750743741601509600,10.501509521484374,-0.005362499970942736,0.005499999970197678,-0.012787500396370888
1750743741611113500,10.511113525390625,-0.004124999977648258,-0.0017874999903142452,-0.018837500363588333
1750743741620717600,10.520717529296874,0.0006874999962747097,-0.006599999964237213,-0.02736249938607216
1750743741630321700,10.53032177734375,0.0019249999895691872,0.0006874999962747097,-0.022549999877810478
1750743741639925500,10.539925537109376,-0.0017874999903142452,0.005499999970197678,-0.010312499478459358
1750743741649529300,10.549529296875,-0.0028874999843537807,0.004399999976158142,-0.0042624999769032
1750743741659133400,10.559133544921876,-0.0028874999843537807,0.0019249999895691872,-0.007837500423192978
1750743741668737300,10.5687373046875,-0.0028874999843537807,-0.0017874999903142452,-0.010312499478459358
1750743741678341400,10.57834130859375,-0.005362499970942736,-0.0042624999769032,-0.007837500423192978
1750743741687945500,10.587945556640625,-0.006599999964237213,-0.0017874999903142452,-0.009074999950826168
1750743741697549300,10.59754931640625,-0.007837500423192978,-0.0005499999970197678,-0.014024999924004078
1750743741707153200,10.607153076171874,-0.010312499478459358,0.0006874999962747097,-0.016362499445676804
1750743741716757000,10.616757080078125,-0.011549999937415123,0.004399999976158142,-0.014024999924004078
1750743741726361000,10.626361083984374,-0.013887500390410423,0.0031624999828636646,-0.014024999924004078
1750743741735965000,10.63596484375,-0.01759999990463257,-0.0005499999970197678,-0.020075000822544098
1750743741745569000,10.645569091796874,-0.01759999990463257,-0.0005499999970197678,-0.031075000762939453
1750743741755172900,10.6551728515625,-0.016362499445676804,-0.0030249999836087227,-0.036024998873472214
1750743741764777000,10.66477685546875,-0.013887500390410423,-0.0042624999769032,-0.03355000168085098
1750743741774381000,10.674381103515625,-0.012787500396370888,-0.0005499999970197678,-0.03478749841451645
1750743741783985000,10.68398486328125,-0.015124999918043613,0.0031624999828636646,-0.040837500244379044
1750743741793588700,10.693588623046875,-0.013887500390410423,-0.0005499999970197678,-0.04936249926686287
1750743741803192800,10.70319287109375,-0.012787500396370888,-0.0030249999836087227,-0.0518375001847744
1750743741812796700,10.712796630859375,-0.012787500396370888,-0.0030249999836087227,-0.0518375001847744
1750743741822400800,10.72240087890625,-0.015124999918043613,-0.007837500423192978,-0.048124998807907104
1750743741832004600,10.732004638671874,-0.011549999937415123,-0.016362499445676804,-0.03959999978542328
1750743741841608700,10.741608642578125,-0.012787500396370888,-0.011549999937415123,-0.02983750030398369
1750743741851212800,10.751212890625,-0.016362499445676804,-0.0042624999769032,-0.022549999877810478
1750743741860816600,10.760816650390625,-0.01759999990463257,-0.006599999964237213,-0.023787500336766243
1750743741870420700,10.770420654296874,-0.015124999918043613,-0.015262499451637268,-0.020075000822544098
1750743741880024300,10.7800244140625,-0.011549999937415123,-0.012787500396370888,-0.006599999964237213
1750743741889628400,10.78962841796875,-0.009074999950826168,-0.009074999950826168,0.007974999956786633
1750743741899232500,10.799232421875,-0.0028874999843537807,-0.012787500396370888,0.016637500375509262
1750743741908836400,10.80883642578125,0.0006874999962747097,-0.015262499451637268,0.03368749842047691
1750743741918440400,10.8184404296875,0.0056374999694526196,-0.012787500396370888,0.06173750013113022
1750743741928044300,10.828044189453125,0.0056374999694526196,-0.0017874999903142452,0.09721250087022781
1750743741937648400,10.8376484375,-0.004124999977648258,0.005499999970197678,0.14726249873638153
1750743741947252200,10.847252197265625,-0.013887500390410423,-0.011549999937415123,0.19497500360012054
1750743741956856300,10.856856201171874,-0.01759999990463257,-0.015262499451637268,0.24131250381469727
1750743741966460400,10.86646044921875,-0.023787500336766243,0.05321250110864639,0.2938374876976013
1750743741976064300,10.876064208984374,-0.050599999725818634,0.28049999475479126,0.4111250042915344
1750743741985668000,10.885668212890625,-0.12264999747276306,0.5394124984741211,0.6934124827384949
1750743741995272200,10.895272216796876,-0.19236250221729279,0.6628875136375427,1.121037483215332
1750743742004876000,10.9048759765625,-0.19359999895095825,0.6676999926567078,1.5864750146865845
1750743742014480100,10.914480224609376,-0.15441249310970306,0.6213625073432922,1.9175750017166138
1750743742024084200,10.924084228515625,-0.0798875018954277,0.5150749683380127,2.048337459564209
1750743742033688000,10.93368798828125,-0.0017874999903142452,0.3610749840736389,2.0323874950408936
1750743742043292000,10.9432919921875,0.017875000834465027,0.18878750503063202,1.9003875255584717
1750743742052896000,10.95289599609375,-0.015124999918043613,0.027499999850988388,1.6304750442504883
1750743742062499800,10.962499755859374,-0.06641250103712082,-0.06531249731779099,1.2566125392913818
1750743742072104000,10.97210400390625,-0.10312499850988388,-0.07012499868869781,0.8974624872207642
1750743742081707800,10.981707763671874,-0.1153625026345253,-0.0775500014424324,0.600600004196167
1750743742091311900,10.991311767578125,-0.10312499850988388,-0.11055000126361847,0.34759998321533203
1750743742100915700,11.000915771484374,-0.06764999777078629,-0.133650004863739,0.1326874941587448
1750743742110519800,11.010519775390625,-0.03231250122189522,-0.133650004863739,-0.057887498289346695
1750743742120124000,11.0201240234375,-0.004124999977648258,-0.1190750002861023,-0.24117499589920044
1750743742129727500,11.0297275390625,0.015399999916553497,-0.11659999936819077,-0.42941248416900635
1750743742139331600,11.03933154296875,0.026399999856948853,-0.11055000126361847,-0.6212249994277954
1750743742148935700,11.048935791015625,0.031212499365210533,-0.08978749811649323,-0.7970874905586243
1750743742158539800,11.058539794921876,0.03863750025629997,-0.09955000132322311,-0.9363750219345093
1750743742168143600,11.0681435546875,0.055687498301267624,-0.172837495803833,-1.046375036239624
1750743742177747500,11.07774755859375,0.08621250092983246,-0.26688748598098755,-1.1354750394821167
1750743742187351600,11.0873515625,0.1143999993801117,-0.31212499737739563,-1.213712453842163
1750743742196955400,11.096955322265625,0.12773749232292175,-0.2974124848842621,-1.3040499687194824
1750743742206559200,11.106559326171874,0.12526249885559082,-0.2644124925136566,-1.400575041770935
1750743742216163600,11.11616357421875,0.11192499846220016,-0.23993749916553497,-1.4836249351501465
1750743742225767200,11.12576708984375,0.10216250270605087,-0.24860000610351562,-1.528862476348877
1750743742235371300,11.135371337890625,0.09597499668598175,-0.27665001153945923,-1.4860999584197998
1750743742244975000,11.14497509765625,0.08868750184774399,-0.2644124925136566,-1.3285249471664429
1750743742254579200,11.1545791015625,0.0789249986410141,-0.21683749556541443,-1.0951875448226929
1750743742264183000,11.16418310546875,0.06063750013709068,-0.14231249690055847,-0.84232497215271
1750743742273787100,11.173787109375,0.03987500071525574,-0.07383749634027481,-0.6102250218391418
1750743742283391200,11.18339111328125,0.016637500375509262,-0.02736249938607216,-0.4109874963760376
1750743742292995000,11.1929951171875,-0.0017874999903142452,-0.011549999937415123,-0.2595999836921692
1750743742302599200,11.20259912109375,-0.009074999950826168,-0.023787500336766243,-0.15936249494552612
1750743742312203000,11.212203125,-0.009074999950826168,-0.04455000162124634,-0.09583749622106552
1750743742321806800,11.221806884765625,-0.004124999977648258,-0.048124998807907104,-0.0518375001847744
1750743742331411000,11.231410888671874,0.004399999976158142,-0.04936249926686287,-0.011549999937415123
1750743742341014800,11.241014892578125,0.015399999916553497,-0.028599999845027924,0.025162499397993088
1750743742350619000,11.250618896484376,0.022687500342726707,-0.0042624999769032,0.05197500064969063
1750743742360222700,11.26022265625,0.026399999856948853,0.004399999976158142,0.05926249921321869
1750743742369826600,11.26982666015625,0.027637500315904617,0.006737499963492155,0.05444999784231186
1750743742379430700,11.2794306640625,0.026399999856948853,0.010449999943375587,0.03973750025033951
1750743742389034500,11.289034423828125,0.026399999856948853,0.004399999976158142,0.015399999916553497
1750743742398638600,11.298638671875,0.027637500315904617,-0.0017874999903142452,-0.016362499445676804
1750743742408242400,11.308242431640625,0.027637500315904617,-0.005362499970942736,-0.048124998807907104
1750743742417846500,11.317846435546874,0.027637500315904617,-0.009074999950826168,-0.06655000150203705
1750743742427450400,11.327450439453125,0.021449999883770943,-0.014024999924004078,-0.06531249731779099
1750743742437054500,11.337054443359374,0.015399999916553497,-0.016362499445676804,-0.053075000643730164
1750743742446658600,11.346658447265625,0.004399999976158142,-0.014024999924004078,-0.045787498354911804
1750743742456262400,11.356262451171874,-0.004124999977648258,-0.016362499445676804,-0.040837500244379044
1750743742465866500,11.365866455078125,-0.005362499970942736,-0.012787500396370888,-0.03231250122189522
1750743742475470300,11.37547021484375,-0.007837500423192978,-0.009074999950826168,-0.015124999918043613
1750743742485074200,11.38507421875,-0.006599999964237213,-0.011549999937415123,0.004399999976158142
1750743742494678300,11.39467822265625,-0.0028874999843537807,-0.007837500423192978,0.018975000828504562
1750743742504282000,11.4042822265625,0.0019249999895691872,-0.0030249999836087227,0.018975000828504562
1750743742513886200,11.41388623046875,0.0056374999694526196,0.0019249999895691872,0.011687500402331352
1750743742523490000,11.423489990234375,0.006874999962747097,0.010449999943375587,0.0056374999694526196
1750743742533094100,11.43309423828125,0.0056374999694526196,0.010449999943375587,0.0031624999828636646
1750743742542698200,11.4426982421875,0.0031624999828636646,0.0019249999895691872,-0.010312499478459358
1750743742552301800,11.4523017578125,-0.0005499999970197678,-0.007837500423192978,-0.02736249938607216
