time,seconds_elapsed,z,y,x
1750743731152419800,0.052419921875,9.885000228881836,5.319000244140625,-1.2940500974655151
1750743731162024000,0.06202392578125,10.006950378417969,4.845000267028809,-1.0999500751495361
1750743731171627800,0.071627685546875,9.700050354003906,4.5360002517700195,-0.8890500664710999
1750743731181231600,0.081231689453125,9.243000030517578,4.582050323486328,-0.7669500112533569
1750743731190835500,0.09083544921875,8.755050659179688,4.785000324249268,-0.8460000157356262
1750743731200439300,0.100439208984375,8.53695011138916,5.06505012512207,-1.1020500659942627
1750743731210043400,0.11004345703125,8.854949951171875,5.460000038146973,-1.5430500507354736
1750743731219647200,0.119647216796875,8.986950874328613,5.383950233459473,-1.3339500427246094
1750743731229251000,0.1292509765625,8.94105052947998,5.17995023727417,-1.0500000715255737
1750743731238855200,0.138855224609375,8.66100025177002,5.010000228881836,-0.7690500617027283
1750743731248459000,0.148458984375,8.520000457763672,4.89300012588501,-0.5080500245094299
1750743731258062800,0.158062744140625,8.467050552368164,4.7659502029418945,-0.36000001430511475
1750743731267667000,0.1676669921875,8.683050155639648,4.801950454711914,-0.30300000309944153
1750743731277270800,0.177270751953125,8.794950485229492,4.882950305938721,-0.32895001769065857
1750743731286875000,0.186875,8.773950576782227,4.821000099182129,-0.25905001163482666
1750743731296478500,0.196478515625,8.539050102233887,4.52400016784668,-0.07500000298023224
1750743731306082600,0.20608251953125,7.945050239562988,4.170000076293945,-0.00795000046491623
1750743731315686700,0.215686767578125,7.588050365447998,3.873000144958496,0.04605000093579292
1750743731325290200,0.225290283203125,7.372950553894043,3.68595027923584,0.1660500019788742
1750743731334894000,0.23489404296875,7.660050392150879,3.8389501571655273,0.027000000700354576
1750743731344498200,0.244498291015625,8.355000495910645,3.9850502014160156,-0.06495000422000885
1750743731354102000,0.25410205078125,9.196950912475586,3.961050271987915,0.21405000984668732
1750743731363705900,0.263705810546875,11.158050537109375,3.7290000915527344,0.6810000538825989
1750743731373310000,0.27331005859375,11.206050872802734,3.4870500564575195,0.5610000491142273
1750743731382913800,0.282913818359375,11.31195068359375,3.9970502853393555,0.22800001502037048
1750743731392518000,0.292517822265625,11.248950958251953,4.564949989318848,-0.2070000171661377
1750743731402121700,0.302121826171875,10.797000885009766,4.669950008392334,-0.39795002341270447
1750743731411725600,0.3117255859375,10.303950309753418,4.426050186157227,-0.44895002245903015
1750743731421329400,0.321329345703125,9.580950736999512,4.085999965667725,-0.4129500091075897
1750743731430933500,0.33093359375,8.797950744628906,3.8149502277374268,-0.322050005197525
1750743731440537300,0.340537353515625,8.221050262451172,3.853950262069702,-0.04605000093579292
1750743731450141200,0.35014111328125,7.548000335693359,3.945000171661377,0.015000000596046448
1750743731459745300,0.359745361328125,7.023000240325928,4.299000263214111,0.1660500019788742
1750743731469348900,0.369348876953125,6.873000144958496,4.651050090789795,0.06495000422000885
1750743731478953000,0.378952880859375,6.576000213623047,4.759050369262695,-0.025050001218914986
1750743731488557000,0.38855712890625,6.517950534820557,4.828050136566162,-0.043950002640485764
1750743731498161000,0.398160888671875,6.490050315856934,4.960050106048584,0.07200000435113907
1750743731507765000,0.407764892578125,6.516000270843506,5.094000339508057,0.16095000505447388
1750743731517368600,0.41736865234375,6.352950096130371,5.094000339508057,0.3910500109195709
1750743731526972700,0.42697265625,6.2719502449035645,4.974000453948975,0.5869500041007996
1750743731536576500,0.436576416015625,6.885000228881836,5.029050350189209,0.5389500260353088
1750743731546180600,0.4461806640625,8.227950096130371,5.563050270080566,0.1469999998807907
1750743731555784400,0.455784423828125,10.086000442504883,6.934950351715088,-0.8080500364303589
1750743731565388300,0.46538818359375,11.28795051574707,7.776000499725342,-1.5120000839233398
1750743731574992100,0.4749921875,11.9010009765625,6.859050273895264,-1.0609500408172607
1750743731584596000,0.484595947265625,11.200950622558594,5.1660003662109375,-0.286050021648407
1750743731594200000,0.494199951171875,9.51300048828125,4.276950359344482,0.11295000463724136
1750743731603804000,0.503803955078125,8.182050704956055,4.213050365447998,0.16095000505447388
1750743731613408000,0.513407958984375,7.390050411224365,4.5,0.0580500029027462
1750743731623011800,0.52301171875,7.135950565338135,4.795050144195557,-0.06300000101327896
1750743731632615700,0.53261572265625,7.360950469970703,4.950000286102295,-0.10395000129938126
1750743731642219500,0.542219482421875,7.483050346374512,5.029050350189209,-0.21405000984668732
1750743731651823400,0.5518232421875,7.962000370025635,4.918950080871582,0.07695000618696213
1750743731661427500,0.561427490234375,8.161050796508789,4.909950256347656,0.18000000715255737
1750743731671031300,0.57103125,8.223000526428223,4.966950416564941,0.24195000529289246
1750743731680635100,0.58063525390625,8.434050559997559,5.00100040435791,0.22095000743865967
1750743731690239000,0.590239013671875,8.67495059967041,5.023950099945068,0.06000000238418579
1750743731699843000,0.599843017578125,8.992050170898438,4.98900032043457,-0.030000001192092896
1750743731709447000,0.609447021484375,9.145050048828125,4.941000461578369,0.034050002694129944
1750743731719050800,0.61905078125,9.127950668334961,4.914000034332275,0.10095000267028809
1750743731728654800,0.62865478515625,8.94105052947998,4.828050136566162,0.11805000901222229
1750743731738258700,0.6382587890625,8.905050277709961,4.819050312042236,0.09600000083446503
1750743731747862500,0.647862548828125,8.866950035095215,4.869000434875488,0.07200000435113907
1750743731757466600,0.657466552734375,8.805000305175781,4.938000202178955,0.06495000422000885
1750743731767070500,0.667070556640625,8.845050811767578,4.98900032043457,0.05595000088214874
1750743731776674600,0.676674560546875,8.565000534057617,5.023950099945068,0.17100000381469727
1750743731786278400,0.6862783203125,8.515049934387207,5.029050350189209,0.34095001220703125
1750743731795882200,0.69588232421875,8.407050132751465,5.1060004234313965,0.364950031042099
1750743731805486000,0.705486083984375,8.326050758361816,5.050950050354004,0.36900001764297485
1750743731815090200,0.715090087890625,8.143950462341309,4.9360504150390625,0.3859500288963318
1750743731824694300,0.7246943359375,7.882950305938721,4.933950424194336,0.3450000286102295
1750743731834297900,0.7342978515625,7.648050308227539,5.0530500411987305,0.25394999980926514
1750743731843902000,0.74390185546875,7.713000297546387,5.161050319671631,0.11805000901222229
1750743731853505800,0.753505859375,7.869000434875488,5.104050159454346,-0.05100000277161598
1750743731863110000,0.76310986328125,7.888050556182861,5.1660003662109375,-0.2639999985694885
1750743731872713700,0.772713623046875,8.050950050354004,5.161050319671631,-0.4030500054359436
1750743731882317600,0.782317626953125,8.134050369262695,5.170950412750244,-0.5110500454902649
1750743731891921700,0.791921630859375,8.155950546264648,5.082000255584717,-0.3430500030517578
1750743731901525800,0.80152587890625,8.248950004577637,4.9360504150390625,-0.17595000565052032
1750743731911129300,0.81112939453125,8.319000244140625,4.882950305938721,0.05295000225305557
1750743731920733400,0.8207333984375,8.533950805664062,4.8949503898620605,0.0990000069141388
1750743731930337300,0.830337158203125,8.842950820922852,4.869000434875488,0.09405000507831573
1750743731939941000,0.839941162109375,8.944050788879395,4.873950004577637,0.028950002044439316
1750743731949545000,0.849544921875,8.982000350952148,4.88100004196167,-0.010050000622868538
1750743731959149000,0.859149169921875,9.087000846862793,4.866000175476074,0.015000000596046448
1750743731968753200,0.868753173828125,9.11400032043457,4.843050003051758,0.04605000093579292
1750743731978356700,0.878356689453125,8.94795036315918,4.809000015258789,0.11505000293254852
1750743731987960800,0.8879609375,8.68005084991455,4.82295036315918,0.20400001108646393
1750743731997564700,0.897564697265625,8.484000205993652,4.809000015258789,0.18000000715255737
1750743732007168800,0.907168701171875,8.503050804138184,4.965000152587891,-0.025050001218914986
1750743732016772600,0.916772705078125,8.604000091552734,5.034000396728516,-0.2550000250339508
1750743732026376400,0.92637646484375,8.569950103759766,5.094000339508057,-0.2070000171661377
1750743732035980500,0.93598046875,8.37600040435791,5.070000171661377,-0.11805000901222229
1750743732045584400,0.94558447265625,8.167950630187988,5.034000396728516,0.019950000569224358
1750743732055188200,0.955188232421875,8.31195068359375,4.900050163269043,0.016950000077486038
1750743732064792000,0.9647919921875,8.599050521850586,4.885950088500977,-0.09195000678300858
1750743732074396200,0.974396240234375,8.728050231933594,5.035950183868408,0.019950000569224358
1750743732084000000,0.984,9.030000686645508,5.158950328826904,0.07200000435113907
1750743732093603800,0.993603759765625,8.83395004272461,5.107950210571289,0.022050000727176666
1750743732103208000,1.0032080078125,8.613000869750977,5.038950443267822,-0.07005000114440918
1750743732112811800,1.012811767578125,8.32800006866455,4.974000453948975,-0.10605000704526901
1750743732122415900,1.022415771484375,8.239950180053711,4.957050323486328,-0.208950012922287
1750743732132019700,1.032019775390625,8.32395076751709,4.957050323486328,-0.1969500035047531
1750743732141623600,1.04162353515625,8.271000862121582,5.002950191497803,-0.11295000463724136
1750743732151227400,1.051227294921875,8.245050430297852,5.071950435638428,0.003000000026077032
1750743732160831500,1.06083154296875,8.050950050354004,5.15595006942749,0.09405000507831573
1750743732170435300,1.070435302734375,8.212950706481934,5.175000190734863,0.1680000126361847
1750743732180039200,1.0800390625,8.734950065612793,5.239950180053711,0.2160000056028366
1750743732189643300,1.089643310546875,8.63700008392334,5.250000476837158,0.1870500147342682
1750743732199247000,1.0992470703125,8.29995059967041,5.06505012512207,0.20595000684261322
1750743732208851200,1.108851318359375,8.0149507522583,4.885950088500977,0.36000001430511475
1750743732218454800,1.118454833984375,8.046000480651855,4.804050445556641,0.5490000247955322
1750743732228059000,1.128058837890625,8.197050094604492,4.725000381469727,0.6019500494003296
1750743732237663000,1.1376630859375,8.26395034790039,4.740000247955322,0.43605002760887146
1750743732247266600,1.1472666015625,8.191950798034668,4.846950054168701,0.2779500186443329
1750743732256871000,1.156870849609375,7.950000286102295,4.998000144958496,0.12495000660419464
1750743732266474500,1.166474609375,7.560000419616699,5.158950328826904,0.0799500048160553
1750743732276078600,1.17607861328125,7.288950443267822,5.2230000495910645,0.15105000138282776
1750743732285682400,1.185682373046875,7.438050270080566,5.211000442504883,0.24000000953674316
1750743732295286300,1.195286376953125,7.7659502029418945,5.07705020904541,0.2160000056028366
1750743732304890400,1.204890380859375,8.08395004272461,4.914000034332275,0.0010500000789761543
1750743732314494200,1.214494140625,8.27595043182373,4.5259504318237305,-0.42900002002716064
1750743732324098300,1.224098388671875,8.57295036315918,4.558050155639648,-0.5920500159263611
1750743732333702100,1.2337021484375,8.6850004196167,4.81095027923584,-0.7069500088691711
1750743732343306000,1.243305908203125,8.974950790405273,4.98900032043457,-0.8410500288009644
1750743732352909800,1.252909912109375,9.568950653076172,4.8949503898620605,-0.9469500184059143
1750743732362514000,1.262513916015625,9.874950408935547,4.869000434875488,-0.9109500646591187
1750743732372117800,1.27211767578125,9.850950241088867,4.918950080871582,-0.9130500555038452
1750743732381721600,1.2817216796875,9.607050895690918,4.942950248718262,-0.8119500279426575
1750743732391325700,1.29132568359375,9.142050743103027,4.953000068664551,-0.7099500298500061
1750743732400929500,1.300929443359375,8.479050636291504,4.957050323486328,-0.595050036907196
1750743732410533400,1.310533447265625,7.945050239562988,4.974000453948975,-0.5130000114440918
1750743732420137500,1.320137451171875,7.636050224304199,4.954950332641602,-0.6400500535964966
1750743732429741300,1.3297412109375,7.64400053024292,4.930950164794922,-0.6379500031471252
1750743732439345400,1.339345458984375,7.873050212860107,4.929000377655029,-0.6280500292778015
1750743732448949000,1.348948974609375,8.094000816345215,4.90500020980835,-0.6450000405311584
1750743732458553000,1.358552978515625,8.32800006866455,4.890000343322754,-0.6570000052452087
1750743732468157000,1.368156982421875,8.496000289916992,4.914000034332275,-0.6949500441551208
1750743732477761000,1.377760986328125,8.563050270080566,4.945050239562988,-0.7309500575065613
1750743732487364900,1.38736474609375,8.553000450134277,4.960050106048584,-0.697950005531311
1750743732496968700,1.39696875,8.551050186157227,4.9930500984191895,-0.6829500198364258
1750743732506572800,1.40657275390625,8.532000541687012,4.98900032043457,-0.6160500049591064
1750743732516176600,1.4161767578125,8.51294994354248,4.950000286102295,-0.5230500102043152
1750743732525780700,1.42578076171875,8.565000534057617,4.953000068664551,-0.3550500273704529
1750743732535384300,1.43538427734375,8.838000297546387,4.948050022125244,-0.18495000898838043
1750743732544988400,1.444988525390625,8.913000106811523,4.929000377655029,-0.018000001087784767
1750743732554592300,1.45459228515625,8.809950828552246,4.869000434875488,0.09600000083446503
1750743732564196400,1.4641962890625,8.68695068359375,4.816050052642822,0.06000000238418579
1750743732573800200,1.47380029296875,8.592000007629395,4.831050395965576,0.027000000700354576
1750743732583404300,1.483404296875,8.414999961853027,4.864050388336182,-0.043950002640485764
1750743732593008000,1.493008056640625,8.280000686645508,4.869000434875488,-0.13305000960826874
1750743732602612000,1.502612060546875,8.359050750732422,4.897950172424316,-0.18000000715255737
1750743732612215800,1.5122158203125,8.410050392150879,4.869000434875488,-0.24300001561641693
1750743732621820000,1.52181982421875,8.359050750732422,4.831050395965576,-0.22800001502037048
1750743732631423700,1.531423828125,8.320950508117676,4.861950397491455,-0.13695000112056732
1750743732641027600,1.541027587890625,8.295000076293945,4.857000350952148,-0.07695000618696213
1750743732650631700,1.550631591796875,8.320950508117676,4.882950305938721,-0.08895000070333481
1750743732660235500,1.560235595703125,8.371050834655762,4.885950088500977,-0.06795000284910202
1750743732669839400,1.56983935546875,8.391000747680664,4.912050247192383,-0.006000000052154064
1750743732679443500,1.579443359375,8.320950508117676,4.900050163269043,0.06000000238418579
1750743732689047600,1.589047607421875,8.27595043182373,4.866000175476074,0.07200000435113907
1750743732698651400,1.5986513671875,8.41200065612793,4.840050220489502,0.034050002694129944
1750743732708255500,1.60825537109375,8.599050521850586,4.840050220489502,-0.030000001192092896
1750743732717859000,1.617859130859375,8.766000747680664,4.897950172424316,-0.08700000494718552
1750743732727463200,1.627463134765625,8.86500072479248,4.8949503898620605,-0.07005000114440918
1750743732737067000,1.63706689453125,8.866950035095215,4.89300012588501,-0.05100000277161598
1750743732746670800,1.6466708984375,8.797950744628906,4.858950138092041,-0.015000000596046448
1750743732756275000,1.65627490234375,8.605950355529785,4.849950313568115,-0.003000000026077032
1750743732765878800,1.665878662109375,8.383049964904785,4.866000175476074,-0.039000000804662704
1750743732775483000,1.67548291015625,8.221050262451172,4.878000259399414,-0.12105000764131546
1750743732785086500,1.68508642578125,8.158050537109375,4.900050163269043,-0.13695000112056732
1750743732794690600,1.694690673828125,8.302050590515137,4.902000427246094,-0.1279500126838684
1750743732804294400,1.70429443359375,8.500950813293457,4.890000343322754,-0.09195000678300858
1750743732813898500,1.7138984375,8.653950691223145,4.88100004196167,-0.07005000114440918
1750743732823502300,1.72350244140625,8.701950073242188,4.855050086975098,-0.034050002694129944
1750743732833106200,1.733106201171875,8.697000503540039,4.878000259399414,-0.08700000494718552
1750743732842710300,1.742710205078125,8.664000511169434,4.885950088500977,-0.13305000960826874
1750743732852314000,1.752314208984375,8.580000877380371,4.885950088500977,-0.10905000567436218
1750743732861918000,1.76191796875,8.40000057220459,4.858950138092041,-0.06105000153183937
1750743732871522300,1.771522216796875,8.28795051574707,4.8949503898620605,-0.07005000114440918
1750743732881126000,1.7811259765625,8.26395034790039,4.9360504150390625,-0.08895000070333481
1750743732890730000,1.79072998046875,8.31195068359375,4.926000118255615,-0.10605000704526901
1750743732900333800,1.800333740234375,8.338050842285156,4.861950397491455,-0.13005000352859497
1750743732909938000,1.80993798828125,8.395050048828125,4.797000408172607,-0.11100000888109207
1750743732919541800,1.819541748046875,8.527050018310547,4.819050312042236,0.025050001218914986
1750743732929145600,1.8291455078125,8.719050407409668,4.843050003051758,0.06495000422000885
1750743732938749400,1.83874951171875,8.910000801086426,4.785000324249268,0.0010500000789761543
1750743732948353300,1.848353271484375,8.94105052947998,4.7659502029418945,-0.0970500037074089
1750743732957957600,1.85795751953125,8.806950569152832,4.792050361633301,-0.19500000774860382
1750743732967561200,1.867561279296875,8.628000259399414,4.8349504470825195,-0.24300001561641693
1750743732977165300,1.877165283203125,8.497950553894043,4.878000259399414,-0.29100000858306885
1750743732986769200,1.88676904296875,8.404950141906738,4.8949503898620605,-0.32895001769065857
1750743732996373000,1.896373046875,8.32395076751709,4.902000427246094,-0.32895001769065857
1750743733005977000,1.90597705078125,8.32800006866455,4.900050163269043,-0.3379500210285187
1750743733015581000,1.915580810546875,8.320950508117676,4.870950222015381,-0.34095001220703125
1750743733025185000,1.92518505859375,8.36400032043457,4.888050079345703,-0.31905001401901245
1750743733034788600,1.93478857421875,8.464950561523438,4.88100004196167,-0.2569500207901001
1750743733044392700,1.944392822265625,8.545949935913086,4.888050079345703,-0.21195000410079956
1750743733053996500,1.95399658203125,8.644050598144531,4.921950340270996,-0.1969500035047531
1750743733063600600,1.9636005859375,8.644050598144531,4.8949503898620605,-0.19200000166893005
1750743733073204700,1.973204833984375,8.57295036315918,4.897950172424316,-0.18300001323223114
1750743733082808600,1.98280859375,8.497950553894043,4.876049995422363,-0.15195000171661377
1750743733092412400,1.992412353515625,8.414999961853027,4.882950305938721,-0.12300000339746475
1750743733102016500,2.0020166015625,8.307000160217285,4.855050086975098,-0.0970500037074089
1750743733111620400,2.011620361328125,8.28795051574707,4.869000434875488,-0.1279500126838684
1750743733121224200,2.02122412109375,8.37405014038086,4.873950004577637,-0.1469999998807907
1750743733130828000,2.030828125,8.503050804138184,4.849950313568115,-0.12495000660419464
1750743733140432100,2.04043212890625,8.581950187683105,4.840050220489502,-0.12105000764131546
1750743733150036000,2.050035888671875,8.671050071716309,4.864050388336182,-0.15405000746250153
1750743733159640000,2.05964013671875,8.695050239562988,4.858950138092041,-0.15600000321865082
1750743733169244000,2.069243896484375,8.67300033569336,4.876049995422363,-0.14205001294612885
1750743733178847700,2.07884765625,8.539050102233887,4.857000350952148,-0.12495000660419464
1750743733188451800,2.088451904296875,8.458050727844238,4.855050086975098,-0.10605000704526901
1750743733198055400,2.098055419921875,8.443050384521484,4.857000350952148,-0.08505000174045563
1750743733207659800,2.10765966796875,8.443050384521484,4.897950172424316,-0.07005000114440918
1750743733217263600,2.117263671875,8.497950553894043,4.864050388336182,-0.07304999977350235
1750743733226867500,2.126867431640625,8.520000457763672,4.849950313568115,-0.12495000660419464
1750743733236471300,2.13647119140625,8.53695011138916,4.890000343322754,-0.17595000565052032
1750743733246075100,2.1460751953125,8.58495044708252,4.906949996948242,-0.19995000958442688
1750743733255679200,2.15567919921875,8.668050765991211,4.900050163269043,-0.16395001113414764
1750743733265283000,2.165282958984375,8.66100025177002,4.912050247192383,-0.1279500126838684
1750743733274887200,2.17488720703125,8.53695011138916,4.9360504150390625,-0.07304999977350235
1750743733284491000,2.184490966796875,8.419050216674805,4.918950080871582,-0.043950002640485764
1750743733294094800,2.1940947265625,8.326050758361816,4.866000175476074,-0.019950000569224358
1750743733303699000,2.203698974609375,8.25195026397705,4.819050312042236,-0.04905000329017639
1750743733313302800,2.213302734375,8.36400032043457,4.813950061798096,-0.05595000088214874
1750743733322906600,2.22290673828125,8.580000877380371,4.846950054168701,-0.14205001294612885
1750743733332510700,2.2325107421875,8.704050064086914,4.888050079345703,-0.20205001533031464
1750743733342114800,2.24211474609375,8.695050239562988,4.885950088500977,-0.20205001533031464
1750743733351718700,2.25171875,8.640000343322754,4.90500020980835,-0.1879500150680542
1750743733361322500,2.261322509765625,8.529000282287598,4.9360504150390625,-0.13695000112056732
1750743733370926600,2.270926513671875,8.482049942016602,4.933950424194336,-0.11100000888109207
1750743733380530200,2.2805302734375,8.404950141906738,4.900050163269043,-0.1279500126838684
1750743733390134300,2.29013427734375,8.326050758361816,4.873950004577637,-0.15195000171661377
1750743733399738000,2.299738037109375,8.272950172424316,4.861950397491455,-0.11805000901222229
1750743733409342200,2.30934228515625,8.32395076751709,4.852050304412842,-0.10905000567436218
1750743733418946000,2.318946044921875,8.455050468444824,4.900050163269043,-0.06495000422000885
1750743733428550000,2.3285498046875,8.604000091552734,4.918950080871582,-0.04905000329017639
1750743733438154000,2.338154052734375,8.629950523376465,4.9170002937316895,-0.010050000622868538
1750743733447757800,2.3477578125,8.541000366210938,4.876049995422363,-0.0010500000789761543
1750743733457362000,2.35736181640625,8.440950393676758,4.897950172424316,-0.015000000596046448
1750743733466965800,2.3669658203125,8.395050048828125,4.918950080871582,-0.09405000507831573
1750743733476569600,2.376569580078125,8.37405014038086,4.950000286102295,-0.1489500105381012
1750743733486173700,2.386173583984375,8.461950302124023,4.914000034332275,-0.1680000126361847
1750743733495777500,2.395777587890625,8.488950729370117,4.866000175476074,-0.1399500072002411
1750743733505381400,2.40538134765625,8.488950729370117,4.926000118255615,-0.08700000494718552
1750743733514985500,2.4149853515625,8.527050018310547,4.98105001449585,-0.07304999977350235
1750743733524589300,2.42458935546875,8.575050354003906,4.978950023651123,-0.04605000093579292
1750743733534193400,2.434193359375,8.58495044708252,4.933950424194336,-0.06300000101327896
1750743733543797200,2.44379736328125,8.521950721740723,4.849950313568115,-0.10605000704526901
1750743733553401000,2.453401123046875,8.407050132751465,4.828050136566162,-0.13500000536441803
1750743733563005200,2.463005126953125,8.35200023651123,4.873950004577637,-0.16395001113414764
1750743733572609000,2.472609130859375,8.437950134277344,4.88100004196167,-0.21900001168251038
1750743733582212900,2.482212890625,8.517000198364258,4.900050163269043,-0.18300001323223114
1750743733591817000,2.49181689453125,8.517000198364258,4.9170002937316895,-0.13500000536441803
1750743733601421000,2.501421142578125,8.544000625610352,4.921950340270996,-0.08205000311136246
1750743733611024600,2.511024658203125,8.51294994354248,4.941000461578369,-0.07005000114440918
1750743733620628700,2.520628662109375,8.452950477600098,4.953000068664551,-0.11295000463724136
1750743733630232600,2.530232666015625,8.392950057983398,4.926000118255615,-0.10605000704526901
1750743733639836400,2.53983642578125,8.36400032043457,4.930950164794922,-0.08895000070333481
1750743733649440500,2.5494404296875,8.38800048828125,4.906949996948242,-0.0799500048160553
1750743733659044400,2.55904443359375,8.416950225830078,4.878000259399414,-0.05400000140070915
1750743733668648200,2.568648193359375,8.472000122070312,4.890000343322754,-0.06495000422000885
1750743733678252000,2.578251953125,8.539050102233887,4.89300012588501,-0.11100000888109207
1750743733687856400,2.5878564453125,8.57295036315918,4.864050388336182,-0.13305000960826874
1750743733697460000,2.5974599609375,8.577000617980957,4.897950172424316,-0.15600000321865082
1750743733707064000,2.60706396484375,8.532000541687012,4.948050022125244,-0.16095000505447388
1750743733716668000,2.61666796875,8.494050025939941,4.924050331115723,-0.13305000960826874
1750743733726272000,2.62627197265625,8.485950469970703,4.89300012588501,-0.11295000463724136
1750743733735875800,2.635875732421875,8.458050727844238,4.864050388336182,-0.10095000267028809
1750743733745479700,2.645479736328125,8.41200065612793,4.885950088500977,-0.08895000070333481
1750743733755083800,2.655083740234375,8.379000663757324,4.890000343322754,-0.0580500029027462
1750743733764687600,2.6646875,8.410050392150879,4.88100004196167,-0.0799500048160553
1750743733774291500,2.67429150390625,8.455050468444824,4.852050304412842,-0.0990000069141388
1750743733783895600,2.6838955078125,8.569950103759766,4.845000267028809,-0.10095000267028809
1750743733793499400,2.69349951171875,8.616000175476074,4.869000434875488,-0.08505000174045563
1750743733803103500,2.703103515625,8.575050354003906,4.878000259399414,-0.10905000567436218
1750743733812707300,2.712707275390625,8.616000175476074,4.921950340270996,-0.13305000960826874
1750743733822311200,2.722311279296875,8.58495044708252,4.929000377655029,-0.10395000129938126
1750743733831915300,2.731915283203125,8.488950729370117,4.870950222015381,-0.09405000507831573
1750743733841519000,2.74151904296875,8.428950309753418,4.845000267028809,-0.10095000267028809
1750743733851123200,2.751123291015625,8.410050392150879,4.864050388336182,-0.11100000888109207
1750743733860726800,2.760726806640625,8.391000747680664,4.88100004196167,-0.13500000536441803
1750743733870331000,2.770330810546875,8.407050132751465,4.843050003051758,-0.16395001113414764
1750743733879935000,2.77993505859375,8.443050384521484,4.852050304412842,-0.14205001294612885
1750743733889538800,2.789538818359375,8.580000877380371,4.869000434875488,-0.14400000870227814
1750743733899143000,2.799142822265625,8.67300033569336,4.890000343322754,-0.15195000171661377
1750743733908746800,2.808746826171875,8.697000503540039,4.8949503898620605,-0.14400000870227814
1750743733918350600,2.8183505859375,8.683050155639648,4.837950229644775,-0.08700000494718552
1750743733927954400,2.827954345703125,8.581950187683105,4.831050395965576,-0.0799500048160553
1750743733937558500,2.83755859375,8.485950469970703,4.8259501457214355,-0.09405000507831573
1750743733947162600,2.84716259765625,8.476950645446777,4.873950004577637,-0.09195000678300858
1750743733956766500,2.856766357421875,8.484000205993652,4.88100004196167,-0.10395000129938126
1750743733966370300,2.866370361328125,8.482049942016602,4.89300012588501,-0.08895000070333481
1750743733975974100,2.87597412109375,8.443050384521484,4.876049995422363,-0.10395000129938126
1750743733985578200,2.885578125,8.40000057220459,4.890000343322754,-0.11100000888109207
1750743733995182000,2.89518212890625,8.392950057983398,4.929000377655029,-0.08700000494718552
1750743734004786000,2.904785888671875,8.437950134277344,4.866000175476074,-0.08895000070333481
1750743734014390000,2.91439013671875,8.529000282287598,4.843050003051758,-0.10605000704526901
1750743734023994000,2.923994140625,8.529000282287598,4.82295036315918,-0.0970500037074089
1750743734033598000,2.933597900390625,8.545949935913086,4.82295036315918,-0.09195000678300858
1750743734043201800,2.943201904296875,8.556000709533691,4.864050388336182,-0.12300000339746475
1750743734052805600,2.9528056640625,8.640000343322754,4.876049995422363,-0.14400000870227814
1750743734062409700,2.96240966796875,8.659049987792969,4.866000175476074,-0.12300000339746475
1750743734072013600,2.972013671875,8.577000617980957,4.821000099182129,-0.09405000507831573
1750743734081617700,2.98161767578125,8.482049942016602,4.858950138092041,-0.13305000960826874
1750743734091221800,2.9912216796875,8.458050727844238,4.900050163269043,-0.1680000126361847
1750743734100825300,3.000825439453125,8.440950393676758,4.864050388336182,-0.17100000381469727
1750743734110429400,3.010429443359375,8.515049934387207,4.869000434875488,-0.11595000326633453
1750743734120033300,3.020033203125,8.541000366210938,4.876049995422363,-0.0580500029027462
1750743734129637400,3.029637451171875,8.532000541687012,4.870950222015381,-0.037050001323223114
1750743734139241200,3.0392412109375,8.496000289916992,4.866000175476074,-0.06495000422000885
1750743734148845000,3.048844970703125,8.455050468444824,4.858950138092041,-0.1279500126838684
1750743734158449200,3.05844921875,8.443050384521484,4.88100004196167,-0.15405000746250153
1750743734168053000,3.068052978515625,8.437950134277344,4.857000350952148,-0.15195000171661377
1750743734177657000,3.077656982421875,8.532000541687012,4.861950397491455,-0.15600000321865082
1750743734187261200,3.08726123046875,8.517000198364258,4.864050388336182,-0.08700000494718552
1750743734196864800,3.09686474609375,8.485950469970703,4.900050163269043,-0.06495000422000885
1750743734206468900,3.10646875,8.496000289916992,4.929000377655029,-0.07005000114440918
1750743734216072700,3.11607275390625,8.557950019836426,4.900050163269043,-0.10605000704526901
1750743734225676800,3.1256767578125,8.533950805664062,4.857000350952148,-0.11100000888109207
1750743734235280600,3.13528076171875,8.452950477600098,4.831050395965576,-0.14400000870227814
1750743734244884500,3.144884521484375,8.43600082397461,4.852050304412842,-0.1399500072002411
1750743734254488300,3.15448828125,8.515049934387207,4.855050086975098,-0.13500000536441803
1750743734264092400,3.164092529296875,8.577000617980957,4.864050388336182,-0.13005000352859497
1750743734273696500,3.173696533203125,8.592000007629395,4.828050136566162,-0.11295000463724136
1750743734283300400,3.18330029296875,8.57295036315918,4.8349504470825195,-0.1279500126838684
1750743734292904200,3.192904296875,8.517000198364258,4.855050086975098,-0.10605000704526901
1750743734302508300,3.20250830078125,8.494050025939941,4.89300012588501,-0.05595000088214874
1750743734312112000,3.212112060546875,8.589000701904297,4.912050247192383,-0.05595000088214874
1750743734321716000,3.221716064453125,8.599050521850586,4.88100004196167,-0.08205000311136246
1750743734331320000,3.231320068359375,8.51294994354248,4.852050304412842,-0.11805000901222229
1750743734340924000,3.240923828125,8.41200065612793,4.873950004577637,-0.1469999998807907
1750743734350527700,3.25052783203125,8.42400074005127,4.930950164794922,-0.19200000166893005
1750743734360131600,3.260131591796875,8.449950218200684,4.954950332641602,-0.20400001108646393
1750743734369735700,3.269735595703125,8.449950218200684,4.882950305938721,-0.1680000126361847
1750743734379339500,3.279339599609375,8.43600082397461,4.852050304412842,-0.15900000929832458
1750743734388943600,3.288943603515625,8.40000057220459,4.88100004196167,-0.12105000764131546
1750743734398547500,3.29854736328125,8.392950057983398,4.882950305938721,-0.08205000311136246
1750743734408151600,3.308151611328125,8.464950561523438,4.921950340270996,-0.06795000284910202
1750743734417755100,3.317755126953125,8.589000701904297,4.882950305938721,-0.07005000114440918
1750743734427359200,3.327359130859375,8.616000175476074,4.845000267028809,-0.07500000298023224
1750743734436963300,3.33696337890625,8.539050102233887,4.840050220489502,-0.0990000069141388
1750743734446567200,3.346567138671875,8.527050018310547,4.861950397491455,-0.12105000764131546
1750743734456171000,3.3561708984375,8.580000877380371,4.906949996948242,-0.06495000422000885
1750743734465775000,3.365775146484375,8.616000175476074,4.900050163269043,-0.0799500048160553
1750743734475379000,3.37537890625,8.587050437927246,4.870950222015381,-0.08895000070333481
1750743734484982800,3.384982666015625,8.440950393676758,4.840050220489502,-0.0990000069141388
1750743734494587000,3.3945869140625,8.278050422668457,4.897950172424316,-0.12495000660419464
1750743734504190700,3.404190673828125,8.43600082397461,4.98105001449585,-0.17295001447200775
1750743734513794600,3.413794677734375,8.722949981689453,4.960050106048584,-0.19005000591278076
1750743734523398700,3.423398681640625,8.692049980163574,4.785000324249268,-0.1489500105381012
1750743734533002500,3.43300244140625,8.37405014038086,4.764000415802002,-0.11805000901222229
1750743734542606600,3.442606689453125,8.138999938964844,4.89300012588501,-0.12300000339746475
1750743734552210400,3.45221044921875,8.188950538635254,5.032050132751465,-0.14205001294612885
1750743734561814300,3.461814208984375,8.517000198364258,4.969050407409668,-0.13695000112056732
1750743734571418400,3.47141845703125,8.745000839233398,4.858950138092041,-0.08700000494718552
1750743734581022200,3.481022216796875,8.644050598144531,4.8349504470825195,-0.07005000114440918
1750743734590626000,3.4906259765625,8.460000038146973,4.89300012588501,-0.11100000888109207
1750743734600230100,3.500230224609375,8.414999961853027,4.942950248718262,-0.14400000870227814
1750743734609834000,3.509833984375,8.503050804138184,4.950000286102295,-0.1399500072002411
1750743734619437800,3.519437744140625,8.587050437927246,4.9360504150390625,-0.1399500072002411
1750743734629042000,3.5290419921875,8.56095027923584,4.864050388336182,-0.08700000494718552
1750743734638646000,3.53864599609375,8.395050048828125,4.8349504470825195,-0.04905000329017639
1750743734648249600,3.54824951171875,8.248950004577637,4.882950305938721,-0.07304999977350235
1750743734657853700,3.557853759765625,8.307000160217285,4.966950416564941,-0.0970500037074089
1750743734667457500,3.56745751953125,8.532000541687012,4.933950424194336,-0.06105000153183937
1750743734677061600,3.5770615234375,8.66100025177002,4.866000175476074,-0.0799500048160553
1750743734686665500,3.58666552734375,8.589000701904297,4.82295036315918,-0.05100000277161598
1750743734696269300,3.596269287109375,8.479050636291504,4.882950305938721,-0.08700000494718552
1750743734705873400,3.605873291015625,8.491050720214844,4.965000152587891,-0.13305000960826874
1750743734715477200,3.615477294921875,8.52495002746582,4.957050323486328,-0.17805001139640808
1750743734725081300,3.625081298828125,8.577000617980957,4.909950256347656,-0.15600000321865082
1750743734734685200,3.634685302734375,8.467050552368164,4.885950088500977,-0.13305000960826874
1750743734744289000,3.6442890625,8.332950592041016,4.902000427246094,-0.0970500037074089
1750743734753893000,3.65389306640625,8.302050590515137,4.933950424194336,-0.10605000704526901
1750743734763497000,3.6634970703125,8.37405014038086,4.945050239562988,-0.11595000326633453
1750743734773101000,3.67310107421875,8.539050102233887,4.938000202178955,-0.12105000764131546
1750743734782705000,3.682704833984375,8.644050598144531,4.873950004577637,-0.08205000311136246
1750743734792309000,3.69230908203125,8.565000534057617,4.849950313568115,-0.05100000277161598
1750743734801912800,3.701912841796875,8.437950134277344,4.88100004196167,-0.11100000888109207
1750743734811516700,3.7115166015625,8.43600082397461,4.926000118255615,-0.1469999998807907
1750743734821120800,3.721120849609375,8.51294994354248,4.924050331115723,-0.15900000929832458
1750743734830724600,3.730724609375,8.541000366210938,4.885950088500977,-0.09405000507831573
1750743734840328400,3.740328369140625,8.472000122070312,4.873950004577637,-0.07304999977350235
1750743734849932500,3.7499326171875,8.485950469970703,4.90500020980835,-0.06105000153183937
1750743734859536400,3.759536376953125,8.497950553894043,4.902000427246094,-0.07695000618696213
1750743734869140500,3.769140380859375,8.473950386047363,4.890000343322754,-0.0970500037074089
1750743734878744300,3.778744384765625,8.461950302124023,4.870950222015381,-0.11805000901222229
1750743734888348400,3.788348388671875,8.496000289916992,4.870950222015381,-0.15900000929832458
1750743734897952300,3.7979521484375,8.508000373840332,4.906949996948242,-0.1469999998807907
1750743734907556000,3.80755615234375,8.485950469970703,4.897950172424316,-0.13305000960826874
1750743734917160000,3.817159912109375,8.458050727844238,4.902000427246094,-0.11595000326633453
1750743734926764000,3.826763916015625,8.458050727844238,4.9360504150390625,-0.08505000174045563
1750743734936367900,3.836367919921875,8.479050636291504,4.918950080871582,-0.0990000069141388
1750743734945971700,3.8459716796875,8.470050811767578,4.909950256347656,-0.1279500126838684
1750743734955575800,3.855575927734375,8.461950302124023,4.926000118255615,-0.10605000704526901
1750743734965179600,3.8651796875,8.428950309753418,4.8949503898620605,-0.11295000463724136
1750743734974783700,3.87478369140625,8.447999954223633,4.888050079345703,-0.0990000069141388
1750743734984387600,3.8843876953125,8.517000198364258,4.90500020980835,-0.11805000901222229
1750743734993991400,3.893991455078125,8.575050354003906,4.858950138092041,-0.12495000660419464
1750743735003595500,3.903595458984375,8.56095027923584,4.855050086975098,-0.13305000960826874
1750743735013199400,3.913199462890625,8.51294994354248,4.873950004577637,-0.12105000764131546
1750743735022803500,3.922803466796875,8.517000198364258,4.888050079345703,-0.12105000764131546
1750743735032407600,3.932407470703125,8.52495002746582,4.900050163269043,-0.08895000070333481
1750743735042011100,3.94201123046875,8.497950553894043,4.906949996948242,-0.06105000153183937
1750743735051615200,3.951615234375,8.464950561523438,4.929000377655029,-0.06495000422000885
1750743735061219000,3.961218994140625,8.437950134277344,4.924050331115723,-0.06105000153183937
1750743735070823200,3.9708232421875,8.404950141906738,4.930950164794922,-0.11595000326633453
1750743735080427000,3.980427001953125,8.37405014038086,4.9360504150390625,-0.11295000463724136
1750743735090030800,3.99003076171875,8.398050308227539,4.926000118255615,-0.14400000870227814
1750743735099635000,3.999635009765625,8.440950393676758,4.909950256347656,-0.1469999998807907
1750743735109238800,4.00923876953125,8.472000122070312,4.897950172424316,-0.15900000929832458
1750743735118843000,4.0188427734375,8.491050720214844,4.890000343322754,-0.09195000678300858
1750743735128446700,4.02844677734375,8.508000373840332,4.900050163269043,-0.09195000678300858
1750743735138050800,4.03805078125,8.568000793457031,4.882950305938721,-0.11100000888109207
1750743735147654700,4.047654541015625,8.632050514221191,4.89300012588501,-0.08505000174045563
1750743735157258500,4.057258544921875,8.563050270080566,4.890000343322754,-0.07304999977350235
1750743735166862300,4.0668623046875,8.476950645446777,4.885950088500977,-0.08205000311136246
1750743735176466400,4.076466552734375,8.434050559997559,4.912050247192383,-0.10395000129938126
1750743735186070300,4.0860703125,8.419050216674805,4.909950256347656,-0.08895000070333481
1750743735195674000,4.095674072265625,8.443050384521484,4.902000427246094,-0.08895000070333481
1750743735205278200,4.1052783203125,8.467050552368164,4.909950256347656,-0.08895000070333481
1750743735214882300,4.11488232421875,8.458050727844238,4.906949996948242,-0.10605000704526901
1750743735224486100,4.124486083984375,8.479050636291504,4.912050247192383,-0.11295000463724136
1750743735234090200,4.13409033203125,8.544000625610352,4.888050079345703,-0.0970500037074089
1750743735243693800,4.14369384765625,8.589000701904297,4.897950172424316,-0.10905000567436218
1750743735253298000,4.1532978515625,8.557950019836426,4.888050079345703,-0.11295000463724136
1750743735262902000,4.162902099609375,8.517000198364258,4.890000343322754,-0.10605000704526901
1750743735272505900,4.172505859375,8.460000038146973,4.902000427246094,-0.10095000267028809
1750743735282109700,4.182109619140625,8.449950218200684,4.921950340270996,-0.12105000764131546
1750743735291713500,4.191713623046875,8.440950393676758,4.90500020980835,-0.12495000660419464
1750743735301317600,4.201317626953125,8.437950134277344,4.897950172424316,-0.14400000870227814
1750743735310921500,4.21092138671875,8.467050552368164,4.909950256347656,-0.11100000888109207
1750743735320525600,4.220525634765625,8.443050384521484,4.914000034332275,-0.13005000352859497
1750743735330129400,4.23012939453125,8.455050468444824,4.930950164794922,-0.1469999998807907
1750743735339733200,4.239733154296875,8.533950805664062,4.897950172424316,-0.12300000339746475
1750743735349337300,4.24933740234375,8.563050270080566,4.888050079345703,-0.09405000507831573
1750743735358941200,4.258941162109375,8.461950302124023,4.869000434875488,-0.06105000153183937
1750743735368545300,4.268545166015625,8.398050308227539,4.902000427246094,-0.04200000315904617
1750743735378149000,4.278149169921875,8.440950393676758,4.906949996948242,-0.07005000114440918
1750743735387753200,4.287753173828125,8.52495002746582,4.918950080871582,-0.10395000129938126
1750743735397357000,4.297357177734375,8.541000366210938,4.888050079345703,-0.1279500126838684
1750743735406961000,4.3069609375,8.53695011138916,4.888050079345703,-0.09195000678300858
1750743735416564700,4.316564697265625,8.494050025939941,4.921950340270996,-0.13305000960826874
1750743735426169000,4.326169189453125,8.484000205993652,4.918950080871582,-0.14205001294612885
1750743735435772700,4.335772705078125,8.509950637817383,4.897950172424316,-0.13695000112056732
1750743735445376800,4.345376708984375,8.482049942016602,4.885950088500977,-0.11595000326633453
1750743735454980900,4.35498095703125,8.479050636291504,4.88100004196167,-0.1279500126838684
1750743735464584700,4.364584716796875,8.485950469970703,4.900050163269043,-0.08700000494718552
1750743735474188500,4.3741884765625,8.452950477600098,4.890000343322754,-0.08205000311136246
1750743735483792400,4.38379248046875,8.447999954223633,4.902000427246094,-0.09405000507831573
1750743735493396500,4.393396484375,8.484000205993652,4.912050247192383,-0.12495000660419464
1750743735503000600,4.40300048828125,8.496000289916992,4.8949503898620605,-0.11295000463724136
1750743735512604400,4.4126044921875,8.494050025939941,4.890000343322754,-0.12105000764131546
1750743735522208300,4.422208251953125,8.461950302124023,4.90500020980835,-0.11805000901222229
1750743735531812000,4.43181201171875,8.455050468444824,4.930950164794922,-0.13005000352859497
1750743735541416200,4.441416259765625,8.476950645446777,4.897950172424316,-0.13500000536441803
1750743735551020000,4.45102001953125,8.470050811767578,4.876049995422363,-0.13005000352859497
1750743735560624000,4.4606240234375,8.485950469970703,4.8949503898620605,-0.06105000153183937
1750743735570228000,4.47022802734375,8.500950813293457,4.882950305938721,-0.015000000596046448
1750743735579831800,4.479831787109375,8.503050804138184,4.888050079345703,-0.010050000622868538
1750743735589436000,4.489435791015625,8.484000205993652,4.912050247192383,-0.05400000140070915
1750743735599039700,4.499039794921875,8.500950813293457,4.906949996948242,-0.10605000704526901
1750743735608643800,4.508643798828125,8.494050025939941,4.90500020980835,-0.13305000960826874
1750743735618247700,4.51824755859375,8.458050727844238,4.873950004577637,-0.1489500105381012
1750743735627851500,4.5278515625,8.446050643920898,4.885950088500977,-0.17595000565052032
1750743735637456000,4.537455810546875,8.472000122070312,4.890000343322754,-0.15600000321865082
1750743735647059500,4.5470595703125,8.473950386047363,4.900050163269043,-0.1469999998807907
1750743735656663600,4.55666357421875,8.527050018310547,4.902000427246094,-0.11595000326633453
1750743735666267400,4.566267333984375,8.529000282287598,4.926000118255615,-0.0970500037074089
1750743735675871500,4.57587158203125,8.461950302124023,4.878000259399414,-0.06300000101327896
1750743735685475300,4.585475341796875,8.43600082397461,4.869000434875488,-0.04605000093579292
1750743735695079200,4.5950791015625,8.416950225830078,4.882950305938721,-0.08505000174045563
1750743735704683000,4.60468310546875,8.460000038146973,4.890000343322754,-0.10905000567436218
1750743735714287000,4.614287109375,8.563050270080566,4.849950313568115,-0.12105000764131546
1750743735723891000,4.623890869140625,8.57295036315918,4.849950313568115,-0.10395000129938126
1750743735733494800,4.633494873046875,8.551050186157227,4.843050003051758,-0.09195000678300858
1750743735743099000,4.643098876953125,8.479050636291504,4.882950305938721,-0.08205000311136246
1750743735752703000,4.652702880859375,8.446050643920898,4.888050079345703,-0.08700000494718552
1750743735762306800,4.662306884765625,8.410050392150879,4.902000427246094,-0.07695000618696213
1750743735771911000,4.671910888671875,8.410050392150879,4.873950004577637,-0.09405000507831573
1750743735781514500,4.681514404296875,8.398050308227539,4.882950305938721,-0.11595000326633453
1750743735791118600,4.69111865234375,8.42400074005127,4.878000259399414,-0.11295000463724136
1750743735800722400,4.700722412109375,8.446050643920898,4.861950397491455,-0.10395000129938126
1750743735810326500,4.710326416015625,8.440950393676758,4.882950305938721,-0.08505000174045563
1750743735819930400,4.719930419921875,8.484000205993652,4.906949996948242,-0.04605000093579292
1750743735829534200,4.7295341796875,8.563050270080566,4.869000434875488,-0.025050001218914986
1750743735848742100,4.7487421875,8.893050193786621,4.88100004196167,-0.08505000174045563
1750743735858346200,4.75834619140625,9.111000061035156,4.882950305938721,-0.0799500048160553
1750743735867950000,4.7679501953125,9.54900074005127,4.821000099182129,-0.05595000088214874
1750743735877554000,4.777553955078125,10.368000030517578,4.771050453186035,0.027000000700354576
1750743735887158000,4.787157958984375,12.580950736999512,4.833000183105469,0.31200000643730164
1750743735896761900,4.796761962890625,15.813000679016113,4.594050407409668,0.13695000112056732
1750743735906366000,4.806365966796875,16.821001052856445,4.165050029754639,0.028950002044439316
1750743735915969800,4.8159697265625,15.865950584411621,3.9780001640319824,-0.25200000405311584
1750743735925573600,4.82557373046875,13.759050369262695,4.179000377655029,-0.37005001306533813
1750743735935177700,4.835177734375,11.653950691223145,4.261050224304199,-0.6930000185966492
1750743735944781600,4.844781494140625,9.171000480651855,4.4070000648498535,-1.1809500455856323
1750743735954385700,4.8543857421875,7.581000328063965,4.51200008392334,-0.934950053691864
1750743735963989500,4.863989501953125,6.814950466156006,4.8070502281188965,-0.6540000438690186
1750743735973593600,4.873593505859375,6.643050193786621,5.233050346374512,-0.2569500207901001
1750743735983197400,4.883197509765625,6.346050262451172,5.620950222015381,0.24495001137256622
1750743735992801300,4.89280126953125,6.463050365447998,5.914950370788574,0.12300000339746475
1750743736002405400,4.9024052734375,7.438050270080566,6.142950057983398,-0.08205000311136246
1750743736012009200,4.91200927734375,7.7470502853393555,6.423000335693359,-0.6280500292778015
1750743736021613000,4.921613037109375,6.403050422668457,6.439950466156006,-0.8989500403404236
1750743736031217200,4.931217041015625,4.677000045776367,6.547050476074219,-0.7290000319480896
1750743736040821000,4.940821044921875,3.126000165939331,6.777000427246094,-0.5160000324249268
1750743736050424800,4.9504248046875,1.765950083732605,7.081050395965576,-0.3049500286579132
1750743736060029000,4.96002880859375,0.3720000088214874,7.3660502433776855,-0.08505000174045563
1750743736069633000,4.969633056640625,-0.5820000171661377,7.740000247955322,0.07005000114440918
1750743736079236600,4.979236572265625,-0.814050018787384,7.9360504150390625,0.24705001711845398
1750743736088840700,4.9888408203125,-0.3739500045776367,8.202000617980957,0.18495000898838043
1750743736098444800,4.99844482421875,0.7290000319480896,8.545949935913086,0.040950000286102295
1750743736108048600,5.008048583984375,1.7320500612258911,8.593950271606445,0.022050000727176666
1750743736117652700,5.01765283203125,2.299950122833252,8.451000213623047,0.15600000321865082
1750743736127256300,5.02725634765625,2.476950168609619,8.242050170898438,0.36195001006126404
1750743736136860700,5.036860595703125,2.5440001487731934,8.094000816345215,0.42900002002716064
1750743736146464300,5.04646435546875,3.114000082015991,7.888050556182861,0.37905001640319824
1750743736156068400,5.056068359375,3.7669501304626465,7.728000164031982,0.19500000774860382
1750743736165672200,5.065672119140625,4.0159502029418945,7.603050231933594,0.05100000277161598
1750743736175276000,5.075276123046875,3.870000123977661,7.395000457763672,0.015000000596046448
1750743736184880000,5.084880126953125,3.7360501289367676,7.159950256347656,0.022050000727176666
1750743736194484200,5.094484130859375,3.7219502925872803,6.918000221252441,0.015000000596046448
1750743736204088000,5.104088134765625,4.063950061798096,6.763050556182861,-0.13305000960826874
1750743736213692000,5.11369189453125,4.605000019073486,6.50700044631958,-0.1969500035047531
1750743736223296000,5.1232958984375,5.248950481414795,6.349050521850586,-0.25005000829696655
1750743736232900000,5.132900146484375,6.3670501708984375,6.346050262451172,-0.15900000929832458
1750743736242503700,5.142503662109375,7.291950225830078,6.178950309753418,-0.09195000678300858
1750743736252107800,5.152107666015625,8.006999969482422,5.956050395965576,-0.12105000764131546
1750743736261711600,5.161711669921875,8.737950325012207,5.788050174713135,-0.22605000436306
1750743736271315700,5.171315673828125,9.454050064086914,5.728050231933594,-0.3930000066757202
1750743736280919800,5.180919921875,10.182000160217285,5.635050296783447,-0.5040000081062317
1750743736290523400,5.1905234375,10.813950538635254,5.38800048828125,-0.5419500470161438
1750743736300127500,5.20012744140625,11.13900089263916,5.058000087738037,-0.5440500378608704
1750743736309731300,5.2097314453125,11.187000274658203,4.809000015258789,-0.41700002551078796
1750743736319335400,5.21933544921875,11.331000328063965,4.684950351715088,-0.21900001168251038
1750743736328939300,5.228939208984375,11.838000297546387,4.531050205230713,-0.07695000618696213
1750743736338543000,5.238543212890625,11.910000801086426,4.3969502449035645,-0.04200000315904617
1750743736348147200,5.248147216796875,11.676000595092773,4.394999980926514,-0.043950002640485764
1750743736357751300,5.257751220703125,11.28795051574707,4.491000175476074,-0.10605000704526901
1750743736367355100,5.267355224609375,10.926000595092773,4.660950183868408,-0.1660500019788742
1750743736376959000,5.276958984375,10.411050796508789,4.789950370788574,-0.17595000565052032
1750743736386563000,5.28656298828125,9.822000503540039,4.837950229644775,-0.1680000126361847
1750743736396167000,5.2961669921875,9.420000076293945,4.852050304412842,-0.2070000171661377
1750743736405770800,5.305770751953125,8.926950454711914,4.902000427246094,-0.23295001685619354
1750743736415374800,5.315374755859375,8.380949974060059,5.010000228881836,-0.1489500105381012
1750743736424979000,5.32497900390625,7.978950500488281,5.139000415802002,-0.10395000129938126
1750743736434582800,5.334582763671875,7.70805025100708,5.269050121307373,-0.04200000315904617
1750743736444186600,5.3441865234375,7.5960001945495605,5.371950149536133,-0.027000000700354576
1750743736453790700,5.353790771484375,7.713000297546387,5.368950366973877,0.034050002694129944
1750743736463394600,5.36339453125,7.842000484466553,5.359950065612793,0.04800000041723251
1750743736472998700,5.37299853515625,7.950000286102295,5.353050231933594,0.07695000618696213
1750743736482602500,5.3826025390625,8.08395004272461,5.344950199127197,0.019950000569224358
1750743736492206600,5.39220654296875,8.212950706481934,5.323950290679932,-0.04200000315904617
1750743736501810400,5.401810546875,8.239950180053711,5.27400016784668,-0.07005000114440918
1750743736511414300,5.411414306640625,8.266050338745117,5.247000217437744,-0.06300000101327896
1750743736521018400,5.421018310546875,8.235000610351562,5.235000133514404,-0.06300000101327896
1750743736530622000,5.4306220703125,8.224950790405273,5.2260003089904785,-0.06495000422000885
1750743736540226300,5.440226318359375,8.245050430297852,5.190000057220459,-0.05400000140070915
1750743736549830100,5.449830078125,8.28795051574707,5.185050010681152,-0.06105000153183937
1750743736559434000,5.45943408203125,8.434050559997559,5.19195032119751,-0.07695000618696213
1750743736569037800,5.469037841796875,8.464950561523438,5.218050479888916,-0.07304999977350235
1750743736578642000,5.478641845703125,8.447999954223633,5.142000198364258,-0.030000001192092896
1750743736588246000,5.48824609375,8.40000057220459,5.149050235748291,-0.013050000183284283
1750743736597849600,5.497849609375,8.371050834655762,5.161050319671631,-0.010050000622868538
1750743736607453700,5.50745361328125,8.343000411987305,5.182950019836426,-0.04605000093579292
1750743736617057500,5.5170576171875,8.326050758361816,5.194050312042236,-0.0799500048160553
1750743736626661600,5.52666162109375,8.28795051574707,5.211000442504883,-0.11295000463724136
1750743736636265500,5.536265380859375,8.236949920654297,5.202000141143799,-0.07005000114440918
1750743736645869300,5.545869384765625,8.179950714111328,5.20395040512085,-0.031950000673532486
1750743736655473400,5.555473388671875,8.151000022888184,5.197050094604492,-0.031950000673532486
1750743736665077200,5.5650771484375,8.200950622558594,5.190000057220459,-0.043950002640485764
1750743736674681300,5.574681396484375,8.230050086975098,5.20395040512085,-0.030000001192092896
1750743736684285200,5.58428515625,8.278050422668457,5.178000450134277,-0.039000000804662704
1750743736693889000,5.593888916015625,8.332950592041016,5.170950412750244,-0.027000000700354576
1750743736703493000,5.6034931640625,8.40000057220459,5.158950328826904,-0.022050000727176666
1750743736713097000,5.613096923828125,8.503050804138184,5.154000282287598,0.010050000622868538
1750743736722701000,5.622701171875,8.563050270080566,5.158950328826904,-0.0010500000789761543
1750743736732305200,5.63230517578125,8.56095027923584,5.178000450134277,-0.027000000700354576
1750743736741909000,5.641908935546875,8.446050643920898,5.182950019836426,-0.08700000494718552
1750743736751512800,5.651512939453125,8.355000495910645,5.19195032119751,-0.09405000507831573
1750743736761117000,5.661116943359375,8.307000160217285,5.194050312042236,-0.12495000660419464
1750743736770720800,5.670720703125,8.224950790405273,5.185050010681152,-0.0970500037074089
1750743736780324600,5.68032470703125,8.199000358581543,5.19195032119751,-0.07500000298023224
1750743736789928700,5.6899287109375,8.218050003051758,5.197050094604492,-0.0799500048160553
1750743736799532300,5.6995322265625,8.302050590515137,5.16795015335083,-0.034050002694129944
1750743736809136400,5.709136474609375,8.343000411987305,5.215950012207031,-0.0580500029027462
1750743736818740500,5.718740478515625,8.326050758361816,5.227950096130371,-0.07005000114440918
1750743736828344300,5.72834423828125,8.304000854492188,5.2230000495910645,-0.07500000298023224
1750743736837948400,5.737948486328125,8.272950172424316,5.230050086975098,-0.06300000101327896
1750743736847552300,5.74755224609375,8.260950088500977,5.20395040512085,-0.06495000422000885
1750743736857156400,5.75715625,8.223000526428223,5.211000442504883,-0.04605000093579292
1750743736866760200,5.76676025390625,8.187000274658203,5.218050479888916,-0.0580500029027462
1750743736876364000,5.776364013671875,8.239950180053711,5.2260003089904785,-0.0580500029027462
1750743736885968100,5.785968017578125,8.32395076751709,5.206050395965576,-0.030000001192092896
1750743736895572000,5.795572021484375,8.355000495910645,5.206050395965576,-0.015000000596046448
1750743736905176000,5.805176025390625,8.37405014038086,5.202000141143799,-0.027000000700354576
1750743736914779600,5.814779541015625,8.410050392150879,5.227950096130371,-0.025050001218914986
1750743736924383700,5.8243837890625,8.443050384521484,5.238000392913818,-0.019950000569224358
1750743736933987600,5.833987548828125,8.37405014038086,5.158950328826904,-0.05595000088214874
1750743736943591700,5.843591796875,8.284950256347656,5.173050403594971,-0.09405000507831573
1750743736953195800,5.85319580078125,8.271000862121582,5.161050319671631,-0.11805000901222229
1750743736962799400,5.86279931640625,8.278050422668457,5.173050403594971,-0.12105000764131546
1750743736972403700,5.87240380859375,8.284950256347656,5.190000057220459,-0.11100000888109207
1750743736982007600,5.882007568359375,8.295000076293945,5.202000141143799,-0.07695000618696213
1750743736991611400,5.891611328125,8.292000770568848,5.214000225067139,-0.04905000329017639
1750743737001215500,5.901215576171875,8.272950172424316,5.218050479888916,-0.04605000093579292
1750743737010819300,5.9108193359375,8.282999992370605,5.218050479888916,-0.07304999977350235
1750743737020423200,5.920423095703125,8.331000328063965,5.227950096130371,-0.08895000070333481
1750743737030027300,5.93002734375,8.368950843811035,5.239950180053711,-0.09405000507831573
1750743737039631000,5.939631103515625,8.383049964904785,5.239950180053711,-0.08700000494718552
1750743737049235000,5.94923486328125,8.37600040435791,5.247000217437744,-0.06795000284910202
1750743737058839000,5.958839111328125,8.355000495910645,5.251950263977051,-0.06105000153183937
1750743737068443000,5.96844287109375,8.338050842285156,5.199000358581543,-0.06105000153183937
1750743737078047000,5.978046875,8.248950004577637,5.209050178527832,-0.022050000727176666
1750743737087650800,5.98765087890625,8.143950462341309,5.238000392913818,-0.00795000046491623
1750743737097254700,5.997254638671875,8.122050285339355,5.227950096130371,-0.022050000727176666
1750743737106858800,6.006858642578125,8.155950546264648,5.221050262451172,-0.00795000046491623
1750743737116462600,6.016462646484375,8.242050170898438,5.194050312042236,-0.034050002694129944
1750743737126066400,6.02606640625,8.307000160217285,5.2230000495910645,-0.04200000315904617
1750743737135670500,6.03567041015625,8.35004997253418,5.263950347900391,-0.07304999977350235
1750743737145274600,6.045274658203125,8.410050392150879,5.263950347900391,-0.07304999977350235
1750743737154878500,6.05487841796875,8.403000831604004,5.247000217437744,-0.06795000284910202
1750743737164482600,6.064482666015625,8.326050758361816,5.230050086975098,-0.04605000093579292
1750743737174086100,6.074086181640625,8.223000526428223,5.206050395965576,-0.039000000804662704
1750743737183690200,6.083690185546875,8.143950462341309,5.235000133514404,-0.0799500048160553
1750743737193294300,6.09329443359375,8.14905071258545,5.230050086975098,-0.12495000660419464
1750743737202898200,6.102898193359375,8.230050086975098,5.233050346374512,-0.15405000746250153
1750743737212502300,6.112502197265625,8.32395076751709,5.199000358581543,-0.11295000463724136
1750743737222105900,6.12210595703125,8.368950843811035,5.197050094604492,-0.0990000069141388
1750743737231710000,6.1317099609375,8.43600082397461,5.230050086975098,-0.07304999977350235
1750743737241314300,6.141314208984375,8.452950477600098,5.227950096130371,-0.05100000277161598
1750743737250918000,6.15091796875,8.379000663757324,5.238000392913818,0.015000000596046448
1750743737260522000,6.16052197265625,8.272950172424316,5.233050346374512,0.010050000622868538
1750743737270125800,6.170125732421875,8.170050621032715,5.245050430297852,-0.013050000183284283
1750743737279729700,6.179729736328125,8.170050621032715,5.230050086975098,-0.025050001218914986
1750743737289333800,6.189333740234375,8.182050704956055,5.215950012207031,-0.013050000183284283
1750743737298937600,6.1989375,8.256000518798828,5.20395040512085,-0.043950002640485764
1750743737308541700,6.208541748046875,8.379000663757324,5.187000274658203,-0.04200000315904617
1750743737318145500,6.2181455078125,8.416950225830078,5.187000274658203,-0.04200000315904617
1750743737327749600,6.22774951171875,8.410050392150879,5.187000274658203,-0.05595000088214874
1750743737337353500,6.237353515625,8.410050392150879,5.209050178527832,-0.04200000315904617
1750743737346957300,6.246957275390625,8.410050392150879,5.211000442504883,-0.010050000622868538
1750743737356561400,6.2565615234375,8.37600040435791,5.214000225067139,-0.00795000046491623
1750743737366165200,6.266165283203125,8.290050506591797,5.197050094604492,0.003000000026077032
1750743737375769300,6.275769287109375,8.188950538635254,5.2260003089904785,0.0010500000789761543
1750743737385373200,6.285373291015625,8.176950454711914,5.2420501708984375,-0.027000000700354576
1750743737394977000,6.29497705078125,8.203949928283691,5.283000469207764,-0.034050002694129944
1750743737404581000,6.3045810546875,8.28795051574707,5.269050121307373,-0.027000000700354576
1750743737414185000,6.31418505859375,8.284950256347656,5.27400016784668,-0.019950000569224358
1750743737423788800,6.323788818359375,8.200950622558594,5.26200008392334,-0.06105000153183937
1750743737433393000,6.333392822265625,8.158050537109375,5.263950347900391,-0.1279500126838684
1750743737442997000,6.3429970703125,8.173049926757812,5.259000301361084,-0.1399500072002411
1750743737452600800,6.352600830078125,8.25195026397705,5.271000385284424,-0.14400000870227814
1750743737462204700,6.36220458984375,8.314050674438477,5.245050430297852,-0.06105000153183937
1750743737471808800,6.371808837890625,8.33595085144043,5.238000392913818,-0.013050000183284283
1750743737481412600,6.38141259765625,8.368950843811035,5.206050395965576,-0.019950000569224358
1750743737491016700,6.3910166015625,8.35200023651123,5.221050262451172,-0.034050002694129944
1750743737500620500,6.40062060546875,8.332950592041016,5.215950012207031,-0.013050000183284283
1750743737510224400,6.410224365234375,8.295000076293945,5.218050479888916,-0.018000001087784767
1750743737519828200,6.419828125,8.320950508117676,5.221050262451172,0.0010500000789761543
1750743737529432300,6.429432373046875,8.331000328063965,5.221050262451172,-0.022050000727176666
1750743737539036400,6.439036376953125,8.272950172424316,5.2230000495910645,-0.015000000596046448
1750743737548640300,6.44864013671875,8.224950790405273,5.247000217437744,-0.030000001192092896
1750743737558244400,6.458244384765625,8.235000610351562,5.227950096130371,-0.04200000315904617
1750743737567848200,6.46784814453125,8.224950790405273,5.214000225067139,-0.05100000277161598
1750743737577452000,6.4774521484375,8.224950790405273,5.206050395965576,-0.043950002640485764
1750743737587056000,6.48705615234375,8.295000076293945,5.211000442504883,-0.037050001323223114
1750743737596660000,6.496659912109375,8.344950675964355,5.239950180053711,-0.034050002694129944
1750743737606264000,6.50626416015625,8.338050842285156,5.2260003089904785,-0.07005000114440918
1750743737615868000,6.515867919921875,8.320950508117676,5.221050262451172,-0.08205000311136246
1750743737625471700,6.5254716796875,8.356950759887695,5.218050479888916,-0.0799500048160553
1750743737635075800,6.535075927734375,8.473950386047363,5.227950096130371,-0.08700000494718552
1750743737644679700,6.5446796875,8.616000175476074,5.215950012207031,-0.030000001192092896
1750743737654283800,6.55428369140625,8.814000129699707,5.194050312042236,0.06495000422000885
1750743737663887600,6.5638876953125,9.256950378417969,5.235000133514404,0.022050000727176666
1750743737673491700,6.57349169921875,9.712050437927246,5.271000385284424,0.05295000225305557
1750743737683095600,6.583095458984375,10.723050117492676,5.230050086975098,0.33105000853538513
1750743737692699600,6.59269970703125,12.693000793457031,5.094000339508057,0.3430500030517578
1750743737702303500,6.602303466796875,15.547050476074219,4.846950054168701,0.15900000929832458
1750743737711907600,6.611907470703125,17.599050521850586,4.600950241088867,0.027000000700354576
1750743737721511400,6.621511474609375,17.488950729370117,4.32105016708374,-0.31905001401901245
1750743737731115300,6.631115234375,16.195951461791992,3.8680500984191895,-0.17100000381469727
1750743737740719400,6.64071923828125,14.199000358581543,3.601950168609619,0.6949500441551208
1750743737750323200,6.6503232421875,10.110000610351562,3.8299500942230225,-0.07500000298023224
1750743737759927300,6.65992724609375,8.138999938964844,4.491000175476074,-0.1879500150680542
1750743737769531100,6.66953125,7.689000129699707,4.878000259399414,0.47895002365112305
1750743737779135000,6.679135009765625,8.563050270080566,5.151000022888184,0.9439500570297241
1750743737788739000,6.688739013671875,8.845050811767578,5.4340500831604,0.8650500178337097
1750743737798343000,6.698343017578125,7.761000156402588,5.677950382232666,0.043950002640485764
1750743737807946800,6.70794677734375,6.553950309753418,6.049050331115723,-0.06300000101327896
1750743737817550800,6.71755078125,4.240950107574463,6.207000255584717,-0.5710500478744507
1750743737827155000,6.727155029296875,1.8300000429153442,6.2410502433776855,-0.934950053691864
1750743737836758800,6.7367587890625,-0.036000002175569534,6.418050289154053,-1.0260000228881836
1750743737846362600,6.746362548828125,-1.7290500402450562,6.802950382232666,-0.9490500688552856
1750743737855966700,6.755966796875,-3.0510001182556152,7.315950393676758,-0.5490000247955322
1750743737865570600,6.765570556640625,-4.054049968719482,7.882950305938721,-0.16095000505447388
1750743737875174700,6.775174560546875,-4.573050022125244,8.40000057220459,-0.030000001192092896
1750743737884778200,6.7847783203125,-4.471050262451172,8.800050735473633,0.004950000438839197
1750743737894382300,6.79438232421875,-3.7140002250671387,9.006000518798828,0.25200000405311584
1750743737903986200,6.803986083984375,-2.6580002307891846,9.091950416564941,0.4459500312805176
1750743737913590300,6.81359033203125,-1.533000111579895,9.207000732421875,0.39795002341270447
1750743737923194400,6.8231943359375,-0.5920500159263611,9.258000373840332,0.30195000767707825
1750743737932798200,6.832798095703125,0.022950001060962677,9.032999992370605,0.2689500153064728
1750743737942402300,6.84240234375,1.0069500207901,8.776050567626953,0.37905001640319824
1750743737952006000,6.852005859375,1.8300000429153442,8.491050720214844,0.41700002551078796
1750743737961610000,6.86160986328125,2.02905011177063,8.151000022888184,0.4120500087738037
1750743737971214000,6.871214111328125,2.047950029373169,7.809000492095947,0.42195001244544983
1750743737980818000,6.88081787109375,2.307000160217285,7.479000568389893,0.43905001878738403
1750743737990421800,6.890421875,2.908050060272217,7.2270002365112305,0.3930000066757202
1750743738000025600,6.900025634765625,3.6739501953125,6.993000507354736,0.32895001769065857
1750743738009629700,6.909629638671875,4.3660502433776855,6.66195011138916,0.23805001378059387
1750743738019233800,6.91923388671875,5.082000255584717,6.447000503540039,0.19500000774860382
1750743738028837600,6.928837646484375,6.193050384521484,6.29295015335083,0.12300000339746475
1750743738038441500,6.93844140625,7.392000198364258,6.151950359344482,0.010050000622868538
1750743738048045600,6.948045654296875,8.227950096130371,5.982000350952148,-0.0799500048160553
1750743738057649400,6.9576494140625,8.814000129699707,5.824050426483154,-0.1489500105381012
1750743738067253200,6.967253173828125,9.340950012207031,5.755050182342529,-0.25905001163482666
1750743738076857300,6.976857421875,9.967950820922852,5.764050483703613,-0.3240000009536743
1750743738086461400,6.98646142578125,10.528950691223145,5.611050128936768,-0.19995000958442688
1750743738096065300,6.996065185546875,11.64900016784668,5.464950084686279,-0.48405003547668457
1750743738105669000,7.005669189453125,12.334050178527832,5.187000274658203,-0.7720500230789185
1750743738115273200,7.015273193359375,12.552000999450684,4.912050247192383,-0.7930500507354736
1750743738124877000,7.024876953125,12.559050559997559,4.639050006866455,-0.6450000405311584
1750743738134481200,7.034481201171875,12.418050765991211,4.522050380706787,-0.4650000333786011
1750743738144085000,7.0440849609375,12.295950889587402,4.495050430297852,-0.27900001406669617
1750743738153688800,7.053688720703125,12.106950759887695,4.567049980163574,-0.1469999998807907
1750743738163293000,7.06329296875,11.69895076751709,4.62000036239624,-0.14205001294612885
1750743738172897000,7.07289697265625,11.173050880432129,4.656000137329102,-0.19995000958442688
1750743738182500900,7.0825009765625,10.680000305175781,4.849950313568115,-0.24495001137256622
1750743738192104700,7.092104736328125,9.909000396728516,5.07705020904541,-0.2350500077009201
1750743738201708800,7.101708740234375,9.046950340270996,5.202000141143799,-0.1660500019788742
1750743738211312600,7.111312744140625,8.292000770568848,5.317050457000732,-0.10095000267028809
1750743738220916500,7.12091650390625,7.656000137329102,5.371950149536133,-0.013050000183284283
1750743738230520600,7.1305205078125,7.228950500488281,5.484000205993652,0.00795000046491623
1750743738240124400,7.14012451171875,7.04295015335083,5.665950298309326,-0.030000001192092896
1750743738249728500,7.149728515625,7.0159502029418945,5.755050182342529,-0.05100000277161598
1750743738259332400,7.159332275390625,7.021050453186035,5.761950492858887,-0.04905000329017639
1750743738268936200,7.168936279296875,7.105050563812256,5.748000144958496,0.019950000569224358
1750743738278540300,7.178540283203125,7.3560004234313965,5.740050315856934,0.08700000494718552
1750743738288144400,7.188144287109375,7.672050476074219,5.692950248718262,0.1469999998807907
1750743738297748200,7.197748291015625,7.981050491333008,5.664000034332275,0.17100000381469727
1750743738307352000,7.20735205078125,8.209050178527832,5.602050304412842,0.15900000929832458
1750743738316956200,7.2169560546875,8.315999984741211,5.556000232696533,0.13905000686645508
1750743738326560000,7.22656005859375,8.282999992370605,5.512950420379639,0.11805000901222229
1750743738336164000,7.2361640625,8.239950180053711,5.416950225830078,0.0580500029027462
1750743738345768200,7.245768310546875,8.185050010681152,5.4340500831604,0.04800000041723251
1750743738355371800,7.255371826171875,8.155950546264648,5.419950485229492,-0.010050000622868538
1750743738364975900,7.264975830078125,8.185050010681152,5.419950485229492,-0.05100000277161598
1750743738374579700,7.274579833984375,8.320950508117676,5.374050140380859,-0.10605000704526901
1750743738384183800,7.284183837890625,8.407050132751465,5.367000102996826,-0.11595000326633453
1750743738393787600,7.29378759765625,8.488950729370117,5.355000019073486,-0.1279500126838684
1750743738403391700,7.303391845703125,8.508000373840332,5.36400032043457,-0.1469999998807907
1750743738412995800,7.312995849609375,8.452950477600098,5.416950225830078,-0.18000000715255737
1750743738432203500,7.33220361328125,8.236949920654297,5.368950366973877,-0.10905000567436218
1750743738441807400,7.341807373046875,8.12700080871582,5.371950149536133,-0.10095000267028809
1750743738451411500,7.351411376953125,8.058000564575195,5.3620500564575195,-0.07304999977350235
1750743738461015300,7.361015380859375,7.987950325012207,5.38800048828125,-0.04605000093579292
1750743738470619100,7.370619140625,7.975950241088867,5.3959503173828125,-0.06105000153183937
1750743738480223200,7.38022314453125,8.029050827026367,5.4120001792907715,-0.06495000422000885
1750743738489827000,7.3898271484375,8.134050369262695,5.419950485229492,-0.11805000901222229
1750743738499431200,7.39943115234375,8.271000862121582,5.419950485229492,-0.06105000153183937
1750743738509035000,7.409034912109375,8.307000160217285,5.38800048828125,0.010050000622868538
1750743738518638800,7.418638916015625,8.395050048828125,5.400000095367432,0.015000000596046448
1750743738528243000,7.428242919921875,8.460000038146973,5.428950309753418,-0.019950000569224358
1750743738537846800,7.4378466796875,8.38800048828125,5.392950057983398,-0.018000001087784767
1750743738547451000,7.447450927734375,8.295000076293945,5.380950450897217,0.010050000622868538
1750743738557054700,7.4570546875,8.194050788879395,5.3959503173828125,0.025050001218914986
1750743738566658800,7.466658935546875,8.142000198364258,5.3959503173828125,0.00795000046491623
1750743738576263000,7.476262939453125,8.07194995880127,5.4120001792907715,0.027000000700354576
1750743738585866500,7.485866455078125,8.055000305175781,5.427000045776367,0.04800000041723251
1750743738595470600,7.495470703125,8.029050827026367,5.424000263214111,0.06795000284910202
1750743738605074400,7.505074462890625,7.993050575256348,5.416950225830078,0.027000000700354576
1750743738614678500,7.514678466796875,8.019000053405762,5.451000213623047,-0.025050001218914986
1750743738624282400,7.524282470703125,8.06505012512207,5.452950477600098,-0.025050001218914986
1750743738633886200,7.53388623046875,8.130000114440918,5.463000297546387,-0.07500000298023224
1750743738643490000,7.543489990234375,8.230050086975098,5.45805025100708,-0.06105000153183937
1750743738653094100,7.55309423828125,8.271000862121582,5.419950485229492,-0.043950002640485764
1750743738662698200,7.5626982421875,8.236949920654297,5.440950393676758,-0.05595000088214874
1750743738672302000,7.572302001953125,8.176950454711914,5.452950477600098,-0.07005000114440918
1750743738681906000,7.581906005859375,8.188950538635254,5.4340500831604,-0.06105000153183937
1750743738691510000,7.591510009765625,8.175000190734863,5.410050392150879,-0.04905000329017639
1750743738701113900,7.60111376953125,8.107950210571289,5.398050308227539,-0.043950002640485764
1750743738710718000,7.610718017578125,8.038949966430664,5.392950057983398,-0.018000001087784767
1750743738720321800,7.62032177734375,8.035950660705566,5.407950401306152,-0.0010500000789761543
1750743738729926000,7.62992578125,8.079000473022461,5.391000270843506,0.0010500000789761543
1750743738739529700,7.63952978515625,8.161050796508789,5.3620500564575195,-0.018000001087784767
1750743738749133600,7.649133544921875,8.259000778198242,5.341050148010254,-0.10095000267028809
1750743738758737700,7.658737548828125,8.368950843811035,5.3620500564575195,-0.11805000901222229
1750743738768341500,7.668341552734375,8.407050132751465,5.374050140380859,-0.11100000888109207
1750743738777945600,7.677945556640625,8.461950302124023,5.4120001792907715,-0.039000000804662704
1750743738787549400,7.687549560546875,8.472000122070312,5.400000095367432,0.0010500000789761543
1750743738797153500,7.697153564453125,8.356950759887695,5.37600040435791,0.028950002044439316
1750743738806757400,7.70675732421875,8.151000022888184,5.371950149536133,0.028950002044439316
1750743738816361200,7.716361328125,8.031000137329102,5.36400032043457,0.004950000438839197
1750743738825965300,7.72596533203125,7.990950584411621,5.37600040435791,-0.06795000284910202
1750743738835569200,7.735569091796875,8.029050827026367,5.398050308227539,-0.12105000764131546
1750743738845173200,7.74517333984375,8.138999938964844,5.404950141906738,-0.12495000660419464
1750743738854777300,7.75477734375,8.215950012207031,5.428950309753418,-0.04905000329017639
1750743738864381200,7.764381103515625,8.233050346374512,5.440950393676758,0.015000000596046448
1750743738873985000,7.773985107421875,8.368950843811035,5.428950309753418,0.027000000700354576
1750743738883589000,7.783589111328125,8.404950141906738,5.424000263214111,0.010050000622868538
1750743738893193000,7.79319287109375,8.404950141906738,5.407950401306152,0.010050000622868538
1750743738902797000,7.802797119140625,8.447999954223633,5.380950450897217,0.019950000569224358
1750743738912401000,7.81240087890625,8.43600082397461,5.383950233459473,0.028950002044439316
1750743738922005000,7.8220048828125,8.33595085144043,5.403000354766846,-0.043950002640485764
1750743738931608600,7.831608642578125,8.154000282287598,5.4150004386901855,-0.04605000093579292
1750743738941212700,7.841212646484375,7.957050323486328,5.419950485229492,-0.039000000804662704
1750743738950816500,7.85081640625,7.7440505027771,5.488950252532959,-0.0970500037074089
1750743738960420600,7.860420654296875,7.794000148773193,5.518050193786621,-0.10395000129938126
1750743738970024700,7.870024658203125,7.9860005378723145,5.508000373840332,-0.09405000507831573
1750743738979628300,7.879628173828125,8.118000030517578,5.455050468444824,-0.06795000284910202
1750743738989232600,7.889232666015625,8.355000495910645,5.448000431060791,-0.0010500000789761543
1750743738998836500,7.89883642578125,9.175950050354004,5.416950225830078,0.09405000507831573
1750743739008440600,7.908440673828125,9.73905086517334,5.431950092315674,0.17100000381469727
1750743739018044400,7.91804443359375,10.119000434875488,5.451000213623047,-0.003000000026077032
1750743739027648300,7.927648193359375,9.94005012512207,5.391000270843506,-0.12300000339746475
1750743739037252400,7.93725244140625,9.40095043182373,5.332950115203857,-0.11100000888109207
1750743739046856000,7.94685595703125,8.86500072479248,5.37600040435791,-0.15600000321865082
1750743739056460300,7.956460205078125,8.278050422668457,5.392950057983398,-0.2569500207901001
1750743739066064100,7.966064208984375,7.52400016784668,5.503050327301025,-0.19200000166893005
1750743739075668000,7.97566796875,6.703050136566162,5.673000335693359,-0.13500000536441803
1750743739085272000,7.98527197265625,6.147000312805176,5.824050426483154,-0.06300000101327896
1750743739094876000,7.9948759765625,5.84505033493042,5.970000267028809,-0.06300000101327896
1750743739104480000,8.00447998046875,5.740050315856934,6.0610504150390625,-0.1680000126361847
1750743739114083800,8.014083740234375,5.850000381469727,6.1020002365112305,-0.208950012922287
1750743739123687700,8.023687744140625,6.111000061035156,6.115950107574463,-0.2350500077009201
1750743739133291800,8.033291748046874,6.547050476074219,6.091950416564941,-0.21195000410079956
1750743739142895600,8.0428955078125,7.009050369262695,6.006000518798828,-0.15600000321865082
1750743739152499700,8.052499755859374,7.459050178527832,5.889000415802002,-0.13005000352859497
1750743739162103600,8.062103515625,7.837050437927246,5.82705020904541,-0.07005000114440918
1750743739171707600,8.071707763671874,8.223000526428223,5.782950401306152,-0.04605000093579292
1750743739181311700,8.081311767578125,8.628000259399414,5.773950099945068,-0.0580500029027462
1750743739190915300,8.090915283203126,8.731050491333008,5.7330002784729,-0.06495000422000885
1750743739200519400,8.10051953125,8.620050430297852,5.700000286102295,-0.06105000153183937
1750743739210123300,8.110123291015626,8.515049934387207,5.613000392913818,-0.04200000315904617
1750743739219727400,8.119727294921875,8.368950843811035,5.568000316619873,-0.0580500029027462
1750743739229331500,8.12933154296875,8.224950790405273,5.533950328826904,-0.10905000567436218
1750743739238935300,8.138935302734374,8.094000816345215,5.512950420379639,-0.15600000321865082
1750743739248539100,8.1485390625,8.031000137329102,5.5320000648498535,-0.1279500126838684
1750743739258143200,8.158143310546874,8.058000564575195,5.587050437927246,-0.09405000507831573
1750743739267747000,8.1677470703125,8.138999938964844,5.617950439453125,-0.06300000101327896
1750743739277351200,8.17735107421875,8.224950790405273,5.617950439453125,-0.025050001218914986
1750743739286955000,8.186955078125,8.307000160217285,5.608950138092041,0.0010500000789761543
1750743739296559000,8.19655908203125,8.344950675964355,5.63700008392334,0.025050001218914986
1750743739306163000,8.206162841796875,8.308950424194336,5.63700008392334,0.0010500000789761543
1750743739315767000,8.21576708984375,8.142000198364258,5.5819501876831055,-0.003000000026077032
1750743739325371000,8.225370849609375,8.05305004119873,5.5849504470825195,-0.04605000093579292
1750743739334974700,8.234974609375,8.035950660705566,5.580000400543213,-0.022050000727176666
1750743739344578800,8.244578857421875,8.029050827026367,5.580000400543213,-0.015000000596046448
1750743739354182700,8.2541826171875,8.019000053405762,5.52495002746582,0.010050000622868538
1750743739363786800,8.263786865234374,8.058000564575195,5.539050102233887,0.025050001218914986
1750743739373390600,8.273390625,8.094000816345215,5.551050186157227,0.004950000438839197
1750743739382994700,8.28299462890625,8.163000106811523,5.556000232696533,-0.034050002694129944
1750743739392598800,8.292598876953125,8.199000358581543,5.575050354003906,-0.07304999977350235
1750743739402202400,8.302202392578126,8.173049926757812,5.604000091552734,-0.10395000129938126
1750743739411806500,8.311806396484375,8.14905071258545,5.616000175476074,-0.12495000660419464
1750743739421410600,8.32141064453125,8.12700080871582,5.590050220489502,-0.08895000070333481
1750743739431014100,8.33101416015625,8.09595012664795,5.578050136566162,-0.0799500048160553
1750743739440618500,8.340618408203126,8.074950218200684,5.596950054168701,-0.037050001323223114
1750743739450222600,8.35022265625,7.987950325012207,5.602050304412842,-0.037050001323223114
1750743739459826200,8.359826171875,7.950000286102295,5.602050304412842,0.00795000046491623
1750743739469430300,8.36943017578125,7.939950466156006,5.580000400543213,0.028950002044439316
1750743739479034000,8.3790341796875,7.924050331115723,5.5819501876831055,0.016950000077486038
1750743739488638200,8.38863818359375,7.972050189971924,5.604000091552734,-0.015000000596046448
1750743739498242000,8.398241943359375,8.070000648498535,5.575050354003906,-0.030000001192092896
1750743739507846100,8.40784619140625,8.107950210571289,5.57295036315918,-0.06495000422000885
1750743739517450000,8.417449951171875,8.131950378417969,5.605950355529785,-0.12105000764131546
1750743739527053800,8.4270537109375,8.191950798034668,5.593950271606445,-0.10605000704526901
1750743739536658000,8.436657958984375,8.200950622558594,5.575050354003906,-0.034050002694129944
1750743739546261800,8.44626171875,8.118000030517578,5.554050445556641,0.015000000596046448
1750743739555865900,8.455865966796875,8.006999969482422,5.580000400543213,0.04800000041723251
1750743739565470000,8.465469970703126,7.933050155639648,5.590050220489502,0.06000000238418579
1750743739575073500,8.475073486328125,7.900050163269043,5.569950103759766,0.028950002044439316
1750743739584678000,8.484677978515625,7.972050189971924,5.56095027923584,-0.022050000727176666
1750743739594281700,8.49428173828125,8.062950134277344,5.551050186157227,-0.04905000329017639
1750743739603885600,8.503885498046875,8.130000114440918,5.575050354003906,-0.08205000311136246
1750743739613489700,8.51348974609375,8.176950454711914,5.590050220489502,-0.09405000507831573
1750743739623093500,8.523093505859375,8.179950714111328,5.5819501876831055,-0.08700000494718552
1750743739632697600,8.532697509765624,8.07194995880127,5.563050270080566,-0.04200000315904617
1750743739642301700,8.5423017578125,7.927950382232666,5.568000316619873,-0.003000000026077032
1750743739651905500,8.551905517578126,7.818000316619873,5.563050270080566,0.0010500000789761543
1750743739661509600,8.561509521484375,7.948050498962402,5.569950103759766,-0.018000001087784767
1750743739671113500,8.571113525390626,8.050950050354004,5.575050354003906,-0.030000001192092896
1750743739680717300,8.58071728515625,8.146050453186035,5.5320000648498535,-0.019950000569224358
1750743739690321400,8.5903212890625,8.295000076293945,5.527050495147705,-0.013050000183284283
1750743739699925200,8.59992529296875,8.472000122070312,5.544000148773193,0.027000000700354576
1750743739709529300,8.609529296875,8.71095085144043,5.542050361633301,0.06000000238418579
1750743739719133200,8.61913330078125,9.159000396728516,5.515050411224365,0.07695000618696213
1750743739728737000,8.628737060546875,9.547050476074219,5.494050025939941,0.1080000028014183
1750743739738341400,8.63834130859375,9.942000389099121,5.544000148773193,0.05595000088214874
1750743739747945000,8.647945068359375,10.395000457763672,5.596950054168701,-0.11295000463724136
1750743739757549000,8.657549072265626,11.161050796508789,5.455050468444824,-0.15405000746250153
1750743739767153000,8.66715283203125,12.396000862121582,5.2759504318237305,-0.06300000101327896
1750743739776757000,8.676757080078126,13.833000183105469,5.20395040512085,-0.07304999977350235
1750743739786360800,8.68636083984375,13.957050323486328,5.134950160980225,-0.325950026512146
1750743739795964700,8.695964599609376,11.968050956726074,5.254050254821777,-0.7410000562667847
1750743739805568800,8.70556884765625,9.529950141906738,5.257050037384033,-0.7549500465393066
1750743739815172600,8.715172607421875,6.910950183868408,5.154000282287598,-0.3960000276565552
1750743739824776700,8.724776611328124,4.615050315856934,5.3020501136779785,0.15105000138282776
1750743739834380500,8.734380615234375,2.817000150680542,5.791050434112549,0.32895001769065857
1750743739843984600,8.743984619140624,1.6960500478744507,6.298050403594971,0.26205000281333923
1750743739853588700,8.753588623046875,0.9559500217437744,6.712050437927246,0.04605000093579292
1750743739863192300,8.7631923828125,0.8050500154495239,7.084050178527832,-0.1489500105381012
1750743739872796400,8.77279638671875,1.215000033378601,7.324950218200684,-0.15195000171661377
1750743739882400500,8.782400390625,1.5600000619888306,7.573950290679932,-0.6310500502586365
1750743739892004400,8.79200439453125,2.436000108718872,7.752000331878662,-0.7690500617027283
1750743739901608400,8.8016083984375,3.5400002002716064,7.753950595855713,-0.6450000405311584
1750743739911212300,8.81121240234375,4.5259504318237305,7.594050407409668,-0.47505003213882446
1750743739920816400,8.82081640625,5.319000244140625,7.282050132751465,-0.208950012922287
1750743739930420200,8.830420166015625,6.013050079345703,7.024050235748291,0.043950002640485764
1750743739940024000,8.840024169921875,6.589950084686279,6.765000343322754,0.13005000352859497
1750743739949628200,8.849628173828124,7.234050273895264,6.5809502601623535,0.0580500029027462
1750743739959232000,8.85923193359375,7.750950336456299,6.472950458526611,-0.09405000507831573
1750743739968836000,8.868836181640624,8.10105037689209,6.3100504875183105,-0.15405000746250153
1750743739978440000,8.87843994140625,8.428950309753418,6.130950450897217,-0.043950002640485764
1750743739988044000,8.8880439453125,8.623050689697266,5.926950454711914,0.10605000704526901
1750743739997648000,8.89764794921875,8.640000343322754,5.797950267791748,0.0990000069141388
1750743740007251700,8.907251708984376,8.68695068359375,5.797950267791748,-0.019950000569224358
1750743740016855800,8.916855712890625,8.809950828552246,5.818950176239014,-0.18300001323223114
1750743740026460000,8.9264599609375,9.082950592041016,5.809950351715088,-0.31005001068115234
1750743740036063700,8.936063720703125,9.195000648498535,5.713950157165527,-0.4050000309944153
1750743740045667800,8.945667724609375,9.241050720214844,5.707050323486328,-0.40095001459121704
1750743740055271700,8.955271728515624,9.229050636291504,5.7430500984191895,-0.3840000033378601
1750743740064875800,8.964875732421875,9.147000312805176,5.748000144958496,-0.31905001401901245
1750743740074479400,8.974479248046874,8.98905086517334,5.7019500732421875,-0.2550000250339508
1750743740084083500,8.98408349609375,8.797950744628906,5.6610002517700195,-0.10095000267028809
1750743740093687600,8.9936875,8.57295036315918,5.625000476837158,0.019950000569224358
1750743740103291600,9.003291748046875,8.367000579833984,5.64900016784668,0.06300000101327896
1750743740112895500,9.0128955078125,8.239950180053711,5.629950046539307,0.09600000083446503
1750743740122499600,9.02249951171875,8.130000114440918,5.632950305938721,0.06795000284910202
1750743740132103400,9.032103515625,8.10105037689209,5.673000335693359,0.07500000298023224
1750743740141707500,9.04170751953125,8.118000030517578,5.731050491333008,0.05100000277161598
1750743740151311400,9.051311279296876,8.110050201416016,5.791050434112549,0.013050000183284283
1750743740160915200,9.060915283203125,8.035950660705566,5.797950267791748,0.04605000093579292
1750743740170519300,9.070519287109375,7.9360504150390625,5.782950401306152,0.06795000284910202
1750743740180123100,9.080123046875,7.869000434875488,5.769000053405762,0.06300000101327896
1750743740189727200,9.089727294921875,7.858950138092041,5.797950267791748,0.013050000183284283
1750743740199331000,9.0993310546875,7.837050437927246,5.805000305175781,-0.00795000046491623
1750743740208935200,9.10893505859375,7.8160505294799805,5.75700044631958,-0.013050000183284283
1750743740218539000,9.1185390625,7.8160505294799805,5.776050090789795,-0.015000000596046448
1750743740228143000,9.12814306640625,7.960050582885742,5.776050090789795,-0.030000001192092896
1750743740237747200,9.137747314453126,8.055000305175781,5.788050174713135,-0.04905000329017639
1750743740247351000,9.14735107421875,8.067000389099121,5.800050258636475,-0.0799500048160553
1750743740256955000,9.156954833984376,8.017050743103027,5.841000080108643,-0.10395000129938126
1750743740266559000,9.16655908203125,7.981050491333008,5.841000080108643,-0.11595000326633453
1750743740276162800,9.176162841796875,7.951950550079346,5.841000080108643,-0.10905000567436218
1750743740285767000,9.185766845703125,7.966950416564941,5.8030500411987305,-0.10905000567436218
1750743740295370800,9.195370849609375,7.938000202178955,5.755050182342529,-0.11595000326633453
1750743740304974600,9.204974609375,7.846950531005859,5.755050182342529,-0.0799500048160553
1750743740314578700,9.21457861328125,7.750950336456299,5.779050350189209,-0.10395000129938126
1750743740324182800,9.224182861328124,7.780050277709961,5.782950401306152,-0.12495000660419464
1750743740333786600,9.23378662109375,7.893000602722168,5.788050174713135,-0.1660500019788742
1750743740343390500,9.243390380859376,7.978950500488281,5.725950241088867,-0.12495000660419464
1750743740352994600,9.25299462890625,8.022000312805176,5.728050231933594,-0.10095000267028809
1750743740362598700,9.2625986328125,7.993050575256348,5.75700044631958,-0.06795000284910202
1750743740372202200,9.2722021484375,7.9360504150390625,5.767050266265869,-0.07500000298023224
1750743740381806300,9.281806396484376,7.938000202178955,5.728050231933594,-0.07500000298023224
1750743740391410400,9.291410400390625,7.978950500488281,5.677950382232666,-0.0970500037074089
1750743740401014300,9.30101416015625,7.945050239562988,5.7210001945495605,-0.06795000284910202
1750743740410618400,9.310618408203124,7.950000286102295,5.772000312805176,-0.010050000622868538
1750743740420222200,9.32022216796875,8.06505012512207,5.773950099945068,-0.006000000052154064
1750743740429826300,9.329826416015624,8.067000389099121,5.767050266265869,-0.00795000046491623
1750743740439430100,9.33943017578125,8.023950576782227,5.7430500984191895,0.025050001218914986
1750743740449034200,9.3490341796875,7.974000453948975,5.748000144958496,0.04800000041723251
1750743740458638000,9.35863818359375,7.942950248718262,5.716050148010254,0.05100000277161598
1750743740468242000,9.368241943359376,7.950000286102295,5.707050323486328,0.019950000569224358
1750743740477846000,9.377845947265625,7.966950416564941,5.731050491333008,-0.039000000804662704
1750743740487449900,9.387449951171876,7.969050407409668,5.737950325012207,-0.09195000678300858
1750743740497054000,9.397053955078125,7.948050498962402,5.752050399780273,-0.10605000704526901
1750743740506657800,9.40665771484375,7.972050189971924,5.749950408935547,-0.10395000129938126
1750743740516262000,9.416261962890625,7.945050239562988,5.769000053405762,-0.0990000069141388
1750743740525865700,9.42586572265625,7.902000427246094,5.8120503425598145,-0.08205000311136246
1750743740535469600,9.435469482421874,7.8949503898620605,5.8120503425598145,-0.04905000329017639
1750743740545074000,9.445073974609375,7.837050437927246,5.8120503425598145,-0.019950000569224358
1750743740554677500,9.454677490234374,7.846950531005859,5.781000137329102,0.013050000183284283
1750743740564281600,9.464281494140625,7.900050163269043,5.773950099945068,0.004950000438839197
1750743740573885400,9.473885498046876,7.893000602722168,5.788050174713135,-0.030000001192092896
1750743740583489500,9.483489501953125,7.924050331115723,5.809950351715088,-0.043950002640485764
1750743740593093600,9.49309375,7.942950248718262,5.779050350189209,-0.05100000277161598
1750743740602697500,9.502697509765625,7.914000511169434,5.773950099945068,-0.0799500048160553
1750743740612301300,9.51230126953125,7.873050212860107,5.760000228881836,-0.08700000494718552
1750743740621905400,9.521905517578125,7.866000175476074,5.797950267791748,-0.06795000284910202
1750743740631509500,9.531509521484375,7.962000370025635,5.800050258636475,-0.05595000088214874
1750743740641113300,9.54111328125,8.022000312805176,5.772000312805176,-0.07304999977350235
1750743740650717200,9.55071728515625,8.034000396728516,5.767050266265869,-0.05400000140070915
1750743740660321300,9.5603212890625,7.999950408935547,5.772000312805176,-0.034050002694129944
1750743740669925000,9.569925048828125,7.974000453948975,5.761950492858887,-0.034050002694129944
1750743740679529000,9.579529052734374,7.930950164794922,5.75700044631958,-0.027000000700354576
1750743740689133000,9.589133056640625,7.873050212860107,5.769000053405762,-0.030000001192092896
1750743740698737000,9.59873681640625,7.828050136566162,5.773950099945068,-0.05595000088214874
1750743740708341000,9.608341064453125,7.809000492095947,5.755050182342529,-0.05595000088214874
1750743740717944800,9.61794482421875,7.8160505294799805,5.75700044631958,-0.0580500029027462
1750743740727549000,9.627548828125,7.881000518798828,5.767050266265869,-0.037050001323223114
1750743740737153000,9.637153076171876,7.998000144958496,5.773950099945068,-0.0580500029027462
1750743740746756900,9.6467568359375,8.074950218200684,5.7430500984191895,-0.037050001323223114
1750743740756361000,9.65636083984375,8.06505012512207,5.7330002784729,-0.034050002694129944
1750743740765964800,9.66596484375,7.9860005378723145,5.755050182342529,-0.04200000315904617
1750743740775568600,9.675568603515625,7.951950550079346,5.793000221252441,-0.04605000093579292
1750743740785172700,9.6851728515625,7.963950157165527,5.764050483703613,-0.05595000088214874
1750743740794776600,9.694776611328125,7.930950164794922,5.75700044631958,-0.06300000101327896
1750743740804380700,9.704380615234374,7.902000427246094,5.764050483703613,-0.034050002694129944
1750743740813984500,9.713984619140625,7.881000518798828,5.773950099945068,-0.0580500029027462
1750743740823588600,9.723588623046876,7.869000434875488,5.755050182342529,-0.09195000678300858
1750743740833192700,9.733192626953125,7.878000259399414,5.772000312805176,-0.11295000463724136
1750743740842796500,9.742796630859376,7.914000511169434,5.769000053405762,-0.0970500037074089
1750743740852400400,9.752400390625,7.966950416564941,5.764050483703613,-0.08505000174045563
1750743740862004500,9.76200439453125,7.969050407409668,5.75700044631958,-0.043950002640485764
1750743740871608300,9.7716083984375,7.972050189971924,5.769000053405762,-0.003000000026077032
1750743740881212400,9.78121240234375,7.939950466156006,5.788050174713135,0.00795000046491623
1750743740890816300,9.790816162109374,7.924050331115723,5.776050090789795,-0.003000000026077032
1750743740900420400,9.80042041015625,7.948050498962402,5.769000053405762,0.00795000046491623
1750743740910024200,9.810024169921874,7.927950382232666,5.749950408935547,-0.015000000596046448
1750743740919628000,9.8196279296875,7.90500020980835,5.736000061035156,-0.025050001218914986
1750743740929232100,9.829232177734376,7.9360504150390625,5.74500036239624,-0.043950002640485764
1750743740938836000,9.8388359375,7.962000370025635,5.781000137329102,-0.06105000153183937
1750743740948440000,9.848440185546876,7.972050189971924,5.764050483703613,-0.07005000114440918
1750743740958044200,9.858044189453125,7.9960503578186035,5.752050399780273,-0.06300000101327896
1750743740967648000,9.86764794921875,7.962000370025635,5.748000144958496,-0.04200000315904617
1750743740977252000,9.877252197265625,7.9069504737854,5.740050315856934,-0.031950000673532486
1750743740986856000,9.88685595703125,7.912050247192383,5.736000061035156,-0.030000001192092896
1750743740996459800,9.896459716796874,7.938000202178955,5.737950325012207,-0.06300000101327896
1750743741006063900,9.90606396484375,7.963950157165527,5.752050399780273,-0.037050001323223114
1750743741015667700,9.915667724609374,7.998000144958496,5.752050399780273,-0.031950000673532486
1750743741025271800,9.925271728515625,8.005050659179688,5.737950325012207,0.0010500000789761543
1750743741034875600,9.934875732421874,7.954950332641602,5.755050182342529,-0.031950000673532486
1750743741044479700,9.944479736328125,7.951950550079346,5.760000228881836,-0.037050001323223114
1750743741054083600,9.95408349609375,7.933050155639648,5.779050350189209,-0.06105000153183937
1750743741063687400,9.9636875,7.954950332641602,5.767050266265869,-0.039000000804662704
1750743741073291800,9.973291748046876,7.914000511169434,5.740050315856934,-0.006000000052154064
1750743741082895600,9.9828955078125,7.882950305938721,5.725950241088867,0.025050001218914986
1750743741092499500,9.99249951171875,7.900050163269043,5.736000061035156,0.019950000569224358
1750743741102103600,10.002103515625,7.945050239562988,5.740050315856934,0.013050000183284283
1750743741111707400,10.011707275390625,7.993050575256348,5.725950241088867,0.003000000026077032
1750743741121311500,10.0213115234375,8.022000312805176,5.728050231933594,-0.039000000804662704
1750743741130915300,10.030915283203125,8.08395004272461,5.748000144958496,-0.037050001323223114
1750743741140519400,10.04051953125,8.062950134277344,5.755050182342529,-0.06495000422000885
1750743741150123300,10.050123291015625,7.999950408935547,5.776050090789795,-0.09195000678300858
1750743741159727400,10.059727294921874,7.91895055770874,5.767050266265869,-0.06795000284910202
1750743741169331200,10.069331298828125,7.878000259399414,5.767050266265869,-0.031950000673532486
1750743741178935000,10.07893505859375,7.914000511169434,5.773950099945068,0.022050000727176666
1750743741188539100,10.0885390625,7.909050464630127,5.75700044631958,0.013050000183284283
1750743741198143200,10.098143310546876,7.861050605773926,5.707050323486328,0.010050000622868538
1750743741207747000,10.1077470703125,7.846950531005859,5.697000503540039,-0.022050000727176666
1750743741217351000,10.117350830078125,7.897050380706787,5.7210001945495605,-0.07304999977350235
1750743741226955000,10.126955078125,8.011950492858887,5.716050148010254,-0.08700000494718552
1750743741236559000,10.13655908203125,8.138999938964844,5.728050231933594,-0.07695000618696213
1750743741246163000,10.146162841796874,8.142000198364258,5.7430500984191895,-0.07695000618696213
1750743741255766800,10.155766845703125,8.022000312805176,5.788050174713135,-0.043950002640485764
1750743741265371000,10.165370849609374,7.9360504150390625,5.800050258636475,-0.022050000727176666
1750743741274975000,10.17497509765625,7.864050388336182,5.793000221252441,0.015000000596046448
1750743741284578800,10.184578857421876,7.858950138092041,5.755050182342529,0.05100000277161598
1750743741294183000,10.194182861328125,7.801950454711914,5.707050323486328,0.039000000804662704
1750743741303786500,10.203786376953126,7.768050193786621,5.74500036239624,0.025050001218914986
1750743741313390800,10.213390869140625,7.804050445556641,5.75700044631958,-0.0010500000789761543
1750743741322994700,10.22299462890625,7.909050464630127,5.704050064086914,-0.010050000622868538
1750743741332598800,10.232598876953125,8.034000396728516,5.713950157165527,-0.04605000093579292
1750743741342202600,10.24220263671875,8.12700080871582,5.697000503540039,-0.06495000422000885
1750743741351806500,10.251806396484374,8.161050796508789,5.716050148010254,-0.07500000298023224
1750743741361410600,10.26141064453125,8.119950294494629,5.709000110626221,-0.037050001323223114
1750743741371014400,10.271014404296874,8.05305004119873,5.7430500984191895,-0.019950000569224358
1750743741380618500,10.280618408203125,7.990950584411621,5.75700044631958,-0.006000000052154064
1750743741390222600,10.29022265625,7.9360504150390625,5.737950325012207,0.022050000727176666
1750743741399826400,10.299826416015625,7.818000316619873,5.719050407409668,0.016950000077486038
1750743741409430300,10.30943017578125,7.780050277709961,5.740050315856934,0.016950000077486038
1750743741419034400,10.319034423828125,7.81095027923584,5.764050483703613,-0.010050000622868538
1750743741428638200,10.32863818359375,7.893000602722168,5.772000312805176,-0.027000000700354576
1750743741438242300,10.3382421875,7.987950325012207,5.761950492858887,-0.04200000315904617
1750743741447846100,10.34784619140625,8.002950668334961,5.755050182342529,-0.08205000311136246
1750743741457450200,10.3574501953125,7.987950325012207,5.7330002784729,-0.10095000267028809
1750743741467054000,10.36705419921875,7.945050239562988,5.740050315856934,-0.06495000422000885
1750743741476658000,10.376657958984374,7.933050155639648,5.724000453948975,-0.04905000329017639
1750743741486262000,10.386261962890625,7.990950584411621,5.74500036239624,-0.043950002640485764
1750743741495865900,10.395865966796874,8.022000312805176,5.719050407409668,-0.018000001087784767
1750743741505470000,10.405469970703125,7.990950584411621,5.695050239562988,0.022050000727176666
1750743741515073800,10.41507373046875,7.927950382232666,5.704050064086914,0.00795000046491623
1750743741524678000,10.424677978515625,7.926000595092773,5.760000228881836,0.015000000596046448
1750743741534282000,10.434281982421876,7.974000453948975,5.731050491333008,0.027000000700354576
1750743741543885600,10.443885498046875,7.999950408935547,5.740050315856934,0.016950000077486038
1750743741553490000,10.453489990234376,8.017050743103027,5.719050407409668,0.027000000700354576
1750743741563094000,10.463093994140625,7.950000286102295,5.707050323486328,-0.0010500000789761543
1750743741572697600,10.472697509765625,7.885050296783447,5.7210001945495605,-0.006000000052154064
1750743741582301700,10.4823017578125,7.888050556182861,5.737950325012207,-0.034050002694129944
1750743741591905800,10.49190576171875,7.91895055770874,5.740050315856934,-0.04200000315904617
1750743741601509600,10.501509521484374,7.912050247192383,5.689950466156006,-0.043950002640485764
1750743741611113500,10.511113525390625,7.909050464630127,5.7210001945495605,-0.022050000727176666
1750743741620717600,10.520717529296874,7.978950500488281,5.752050399780273,-0.015000000596046448
1750743741630321700,10.53032177734375,8.058000564575195,5.697000503540039,0.003000000026077032
1750743741639925500,10.539925537109376,8.050950050354004,5.688000202178955,0.031950000673532486
1750743741649529300,10.549529296875,7.999950408935547,5.712000370025635,0.00795000046491623
1750743741659133400,10.559133544921876,7.984050273895264,5.760000228881836,-0.013050000183284283
1750743741668737300,10.5687373046875,7.975950241088867,5.719050407409668,-0.003000000026077032
1750743741678341400,10.57834130859375,7.921050548553467,5.709000110626221,0.010050000622868538
1750743741687945500,10.587945556640625,7.914000511169434,5.683050155639648,0.00795000046491623
1750743741697549300,10.59754931640625,7.938000202178955,5.712000370025635,0.027000000700354576
1750743741707153200,10.607153076171874,7.963950157165527,5.7210001945495605,0.019950000569224358
1750743741716757000,10.616757080078125,7.948050498962402,5.7019500732421875,0.013050000183284283
1750743741726361000,10.626361083984374,7.921050548553467,5.688000202178955,0.016950000077486038
1750743741735965000,10.63596484375,7.869000434875488,5.709000110626221,-0.006000000052154064
1750743741745569000,10.645569091796874,7.888050556182861,5.755050182342529,0.0010500000789761543
1750743741755172900,10.6551728515625,7.954950332641602,5.712000370025635,-0.006000000052154064
1750743741764777000,10.66477685546875,7.927950382232666,5.724000453948975,-0.0010500000789761543
1750743741774381000,10.674381103515625,7.893000602722168,5.680950164794922,-0.010050000622868538
1750743741783985000,10.68398486328125,7.902000427246094,5.688000202178955,-0.022050000727176666
1750743741793588700,10.693588623046875,7.984050273895264,5.700000286102295,-0.043950002640485764
1750743741803192800,10.70319287109375,7.978950500488281,5.719050407409668,-0.027000000700354576
1750743741812796700,10.712796630859375,8.023950576782227,5.677950382232666,-0.00795000046491623
1750743741822400800,10.72240087890625,8.070000648498535,5.692950248718262,-0.019950000569224358
1750743741832004600,10.732004638671874,8.107950210571289,5.697000503540039,-0.030000001192092896
1750743741841608700,10.741608642578125,8.06505012512207,5.676000118255615,0.003000000026077032
1750743741851212800,10.751212890625,8.017050743103027,5.685000419616699,0.004950000438839197
1750743741860816600,10.760816650390625,8.067000389099121,5.676000118255615,-0.031950000673532486
1750743741870420700,10.770420654296874,8.131950378417969,5.664000034332275,-0.06795000284910202
1750743741880024300,10.7800244140625,8.182050704956055,5.63700008392334,-0.09405000507831573
1750743741889628400,10.78962841796875,8.154000282287598,5.659050464630127,-0.0990000069141388
1750743741899232500,10.799232421875,8.221050262451172,5.676000118255615,-0.07005000114440918
1750743741908836400,10.80883642578125,8.315999984741211,5.689950466156006,-0.039000000804662704
1750743741918440400,10.8184404296875,8.422050476074219,5.697000503540039,-0.019950000569224358
1750743741928044300,10.828044189453125,8.601000785827637,5.716050148010254,0.09405000507831573
1750743741937648400,10.8376484375,8.809950828552246,5.685000419616699,0.12495000660419464
1750743741947252200,10.847252197265625,8.776050567626953,5.659050464630127,0.040950000286102295
1750743741956856300,10.856856201171874,8.632050514221191,5.602050304412842,0.05295000225305557
1750743741966460400,10.86646044921875,8.938950538635254,5.544000148773193,0.15900000929832458
1750743741976064300,10.876064208984374,11.005050659179688,5.533950328826904,0.7600500583648682
1750743741985668000,10.885668212890625,13.194000244140625,5.37600040435791,0.8740500211715698
1750743741995272200,10.895272216796876,14.106000900268555,5.293050289154053,0.28095000982284546
1750743742004876000,10.9048759765625,13.468950271606445,5.278050422668457,-0.39795002341270447
1750743742014480100,10.914480224609376,11.10300064086914,5.3620500564575195,-1.0110000371932983
1750743742024084200,10.924084228515625,8.848050117492676,5.512950420379639,-0.9439500570297241
1750743742033688000,10.93368798828125,6.487050533294678,5.518050193786621,-0.5869500041007996
1750743742043292000,10.9432919921875,4.156949996948242,5.724000453948975,-0.003000000026077032
1750743742052896000,10.95289599609375,2.350050210952759,6.088050365447998,0.1469999998807907
1750743742062499800,10.962499755859374,1.7700001001358032,6.487050533294678,-0.031950000673532486
1750743742072104000,10.97210400390625,2.0620501041412354,6.957000255584717,-0.27900001406669617
1750743742081707800,10.981707763671874,2.6920502185821533,7.459050178527832,-0.47505003213882446
1750743742091311900,10.991311767578125,3.3409502506256104,7.7659502029418945,-0.6640500426292419
1750743742100915700,11.000915771484374,3.790950298309326,7.833000183105469,-0.6739500164985657
1750743742110519800,11.010519775390625,3.8610002994537354,7.7560505867004395,-0.5800500512123108
1750743742120124000,11.0201240234375,3.934950113296509,7.627050399780273,-0.4650000333786011
1750743742129727500,11.0297275390625,4.078050136566162,7.35705041885376,-0.3769500255584717
1750743742139331600,11.03933154296875,4.299000263214111,7.033050537109375,-0.364950031042099
1750743742148935700,11.048935791015625,4.830000400543213,6.849000453948975,-0.37905001640319824
1750743742158539800,11.058539794921876,5.440950393676758,6.721950531005859,-0.48405003547668457
1750743742168143600,11.0681435546875,5.977050304412842,6.655050277709961,-0.6190500259399414
1750743742177747500,11.07774755859375,6.178050518035889,6.504000186920166,-0.6310500502586365
1750743742187351600,11.0873515625,6.109050273895264,6.3319501876831055,-0.48900002241134644
1750743742196955400,11.096955322265625,6.091950416564941,6.199950218200684,-0.325950026512146
1750743742206559200,11.106559326171874,6.31695032119751,6.133050441741943,-0.1279500126838684
1750743742216163600,11.11616357421875,6.922950267791748,6.091950416564941,-0.019950000569224358
1750743742225767200,11.12576708984375,8.05305004119873,6.010950088500977,-0.07304999977350235
1750743742235371300,11.135371337890625,9.379050254821777,5.884050369262695,0.028950002044439316
1750743742244975000,11.14497509765625,10.435050964355469,5.713950157165527,0.08895000070333481
1750743742254579200,11.1545791015625,10.972050666809082,5.539050102233887,0.19005000591278076
1750743742264183000,11.16418310546875,11.083950996398926,5.424000263214111,0.25200000405311584
1750743742273787100,11.173787109375,10.957050323486328,5.338050365447998,0.2639999985694885
1750743742283391200,11.18339111328125,10.533000946044922,5.238000392913818,0.23295001685619354
1750743742292995000,11.1929951171875,10.023000717163086,5.215950012207031,0.15600000321865082
1750743742302599200,11.20259912109375,9.51300048828125,5.2420501708984375,0.036000002175569534
1750743742312203000,11.212203125,9.025050163269043,5.299950122833252,-0.04200000315904617
1750743742321806800,11.221806884765625,8.745000839233398,5.308950424194336,-0.07695000618696213
1750743742331411000,11.231410888671874,8.529000282287598,5.391000270843506,-0.08895000070333481
1750743742341014800,11.241014892578125,8.290050506591797,5.463000297546387,-0.010050000622868538
1750743742350619000,11.250618896484376,8.151000022888184,5.554050445556641,-0.010050000622868538
1750743742360222700,11.26022265625,8.002950668334961,5.602050304412842,-0.0010500000789761543
1750743742369826600,11.26982666015625,7.842000484466553,5.628000259399414,0.013050000183284283
1750743742379430700,11.2794306640625,7.735050201416016,5.6449503898620605,-0.019950000569224358
1750743742389034500,11.289034423828125,7.6459503173828125,5.671050071716309,0.0010500000789761543
1750743742398638600,11.298638671875,7.629000186920166,5.716050148010254,-0.018000001087784767
1750743742408242400,11.308242431640625,7.750950336456299,5.740050315856934,0.036000002175569534
1750743742417846500,11.317846435546874,7.939950466156006,5.688000202178955,0.07695000618696213
1750743742427450400,11.327450439453125,8.070000648498535,5.6449503898620605,0.07200000435113907
1750743742437054500,11.337054443359374,8.08905029296875,5.602050304412842,0.09195000678300858
1750743742446658600,11.346658447265625,8.155950546264648,5.63700008392334,0.08700000494718552
1750743742456262400,11.356262451171874,8.182050704956055,5.659050464630127,0.010050000622868538
1750743742465866500,11.365866455078125,8.239950180053711,5.629950046539307,-0.027000000700354576
1750743742475470300,11.37547021484375,8.29995059967041,5.5849504470825195,-0.039000000804662704
1750743742485074200,11.38507421875,8.235000610351562,5.568000316619873,-0.06105000153183937
1750743742494678300,11.39467822265625,8.09595012664795,5.593950271606445,-0.037050001323223114
1750743742504282000,11.4042822265625,7.957050323486328,5.616000175476074,-0.0010500000789761543
1750743742513886200,11.41388623046875,7.950000286102295,5.625000476837158,0.040950000286102295
1750743742523490000,11.423489990234375,7.926000595092773,5.620950222015381,0.0580500029027462
1750743742533094100,11.43309423828125,7.878000259399414,5.620950222015381,0.06495000422000885
1750743742542698200,11.4426982421875,7.91895055770874,5.647050380706787,0.0580500029027462
1750743742552301800,11.4523017578125,7.960050582885742,5.652000427246094,0.06000000238418579
1750743742561906000,11.461906005859374,8.067000389099121,5.604000091552734,0.0580500029027462
1750743742571510000,11.471510009765625,8.118000030517578,5.5489501953125,0.040950000286102295
1750743742581113900,11.48111376953125,8.170050621032715,5.556000232696533,0.013050000183284283
1750743742590717700,11.4907177734375,8.203949928283691,5.580000400543213,-0.018000001087784767
1750743742600321800,11.50032177734375,8.211000442504883,5.57295036315918,-0.015000000596046448
1750743742609926000,11.50992578125,8.155950546264648,5.556000232696533,-0.034050002694129944
1750743742619529700,11.51952978515625,8.082000732421875,5.544000148773193,-0.025050001218914986
1750743742629133600,11.529133544921875,8.062950134277344,5.5819501876831055,-0.00795000046491623
1750743742638737700,11.538737548828125,8.047950744628906,5.569950103759766,0.028950002044439316
1750743742648341800,11.548341796875,8.035950660705566,5.575050354003906,0.05295000225305557
1750743742657945600,11.557945556640625,7.975950241088867,5.568000316619873,0.034050002694129944
1750743742667549400,11.567549560546874,7.974000453948975,5.611050128936768,0.043950002640485764
1750743742677153500,11.577153564453125,8.031000137329102,5.5819501876831055,0.039000000804662704
1750743742686757600,11.586757568359374,8.031000137329102,5.568000316619873,0.028950002044439316
1750743742696361500,11.596361572265625,8.0910005569458,5.566050052642822,0.034050002694129944
1750743742705965300,11.60596533203125,8.118000030517578,5.602050304412842,0.039000000804662704
1750743742715569400,11.6155693359375,8.194050788879395,5.652000427246094,0.05295000225305557
1750743742725173500,11.625173583984376,8.155950546264648,5.616000175476074,0.034050002694129944
1750743742734777600,11.634777587890625,8.043000221252441,5.575050354003906,0.040950000286102295
1750743742744381200,11.644381103515625,7.926000595092773,5.554050445556641,0.06000000238418579
1750743742753985300,11.6539853515625,7.869000434875488,5.629950046539307,0.022050000727176666
1750743742763589400,11.66358935546875,7.938000202178955,5.7019500732421875,-0.019950000569224358
1750743742773193200,11.673193115234374,8.058000564575195,5.664000034332275,-0.003000000026077032
1750743742782797300,11.68279736328125,8.046000480651855,5.593950271606445,0.025050001218914986
1750743742792401200,11.692401123046874,8.005050659179688,5.5819501876831055,0.040950000286102295
1750743742802005200,11.702005126953125,7.9960503578186035,5.611050128936768,0.025050001218914986
1750743742811609000,11.711609130859374,8.047950744628906,5.620950222015381,-0.00795000046491623
1750743742821213000,11.721212890625,8.119950294494629,5.580000400543213,-0.030000001192092896
1750743742830817000,11.730817138671876,8.11305046081543,5.563050270080566,0.025050001218914986
1750743742840421000,11.740421142578125,8.09595012664795,5.596950054168701,0.08205000311136246
1750743742850025000,11.75002490234375,8.098050117492676,5.599050045013428,0.07200000435113907
1750743742859629000,11.759629150390625,8.07194995880127,5.592000484466553,0.040950000286102295
1750743742869233000,11.76923291015625,8.06505012512207,5.617950439453125,0.010050000622868538
1750743742878836700,11.778836669921875,8.043000221252441,5.613000392913818,-0.030000001192092896
1750743742888440800,11.78844091796875,7.999950408935547,5.593950271606445,-0.043950002640485764
1750743742898044700,11.798044677734374,7.945050239562988,5.563050270080566,-0.00795000046491623
1750743742907648800,11.807648681640625,7.962000370025635,5.617950439453125,-0.013050000183284283
1750743742917252600,11.817252685546874,8.038949966430664,5.608950138092041,0.013050000183284283
1750743742926856700,11.826856689453125,8.107950210571289,5.599050045013428,0.034050002694129944
1750743742936460800,11.836460693359374,8.09595012664795,5.5819501876831055,0.06495000422000885
1750743742946064600,11.846064697265625,8.07705020904541,5.580000400543213,0.05295000225305557
1750743742955668700,11.855668701171876,8.04104995727539,5.599050045013428,0.034050002694129944
1750743742965272600,11.8652724609375,8.055000305175781,5.557950496673584,0.028950002044439316
1750743742974876400,11.87487646484375,8.094000816345215,5.587050437927246,0.07005000114440918
1750743742984480300,11.884480224609375,8.110050201416016,5.578050136566162,0.04800000041723251
1750743742994084400,11.89408447265625,8.134050369262695,5.599050045013428,0.04800000041723251
1750743743003688400,11.9036884765625,8.12700080871582,5.613000392913818,0.034050002694129944
1750743743013292300,11.913292236328125,8.070000648498535,5.593950271606445,0.015000000596046448
1750743743022896400,11.922896484375,8.006999969482422,5.628000259399414,0.039000000804662704
1750743743032500200,11.932500244140625,7.9860005378723145,5.64900016784668,0.08895000070333481
1750743743042104300,11.942104248046874,7.9860005378723145,5.620950222015381,0.0990000069141388
1750743743051708200,11.951708251953125,7.974000453948975,5.5849504470825195,0.11295000463724136
1750743743061312300,11.961312255859376,7.90500020980835,5.605950355529785,0.06495000422000885
1750743743070916000,11.970916015625,7.945050239562988,5.617950439453125,0.003000000026077032
1750743743080520000,11.98052001953125,7.9960503578186035,5.6449503898620605,-0.043950002640485764
1750743743090124000,11.9901240234375,8.07705020904541,5.625000476837158,-0.018000001087784767
1750743743099728000,11.999727783203125,8.12700080871582,5.635050296783447,-0.00795000046491623
1750743743109332000,12.00933203125,8.105999946594238,5.592000484466553,0.015000000596046448
1750743743118936000,12.01893603515625,8.074950218200684,5.604000091552734,0.039000000804662704
1750743743128540000,12.028539794921874,8.09595012664795,5.617950439453125,0.019950000569224358
1750743743138144000,12.03814404296875,8.107950210571289,5.604000091552734,-0.00795000046491623
1750743743147747800,12.047747802734374,8.098050117492676,5.587050437927246,-0.0010500000789761543
1750743743157351700,12.0573515625,8.07194995880127,5.599050045013428,0.027000000700354576
1750743743166955800,12.066955810546874,8.05305004119873,5.592000484466553,0.04800000041723251
1750743743176559900,12.076559814453125,8.022000312805176,5.568000316619873,0.04800000041723251
1750743743186163700,12.086163818359376,8.038949966430664,5.596950054168701,0.07500000298023224
1750743743195767800,12.095767822265625,8.029050827026367,5.623050212860107,0.05295000225305557
1750743743205371400,12.105371337890626,7.978950500488281,5.575050354003906,0.05100000277161598
1750743743214975500,12.1149755859375,7.902000427246094,5.56095027923584,0.06000000238418579
1750743743224579300,12.124579345703125,7.882950305938721,5.602050304412842,0.06000000238418579
1750743743234183400,12.134183349609375,7.987950325012207,5.6569504737854,0.034050002694129944
1750743743243787500,12.14378759765625,8.08395004272461,5.632950305938721,0.013050000183284283
1750743743253391400,12.153391357421874,8.13705062866211,5.590050220489502,0.039000000804662704
1750743743262995500,12.162995361328125,8.107950210571289,5.569950103759766,0.043950002640485764
1750743743272599600,12.172599609375,8.074950218200684,5.625000476837158,0.04800000041723251
1750743743282203400,12.182203369140625,8.086950302124023,5.590050220489502,0.06795000284910202
1750743743291807500,12.191807373046874,8.131950378417969,5.593950271606445,0.04605000093579292
1750743743301411300,12.201411376953125,8.143950462341309,5.613000392913818,0.022050000727176666
1750743743311015200,12.21101513671875,8.105999946594238,5.605950355529785,0.004950000438839197
1750743743320619300,12.220619384765625,8.059950828552246,5.590050220489502,-0.010050000622868538
1750743743330223000,12.23022314453125,8.022000312805176,5.563050270080566,-0.010050000622868538
1750743743339827200,12.2398271484375,8.005050659179688,5.602050304412842,0.004950000438839197
1750743743349431000,12.24943115234375,8.022000312805176,5.596950054168701,-0.006000000052154064
1750743743359035100,12.25903515625,8.010000228881836,5.590050220489502,0.027000000700354576
1750743743368639200,12.26863916015625,8.002950668334961,5.590050220489502,0.06495000422000885
1750743743378243000,12.2782431640625,7.993050575256348,5.605950355529785,0.04605000093579292
1750743743387847200,12.28784716796875,8.04104995727539,5.668950080871582,0.04605000093579292
1750743743397451000,12.297450927734374,8.11500072479248,5.616000175476074,0.07695000618696213
1750743743407054800,12.307054931640625,8.04104995727539,5.580000400543213,0.06795000284910202
1750743743416659000,12.316658935546876,7.999950408935547,5.5849504470825195,0.034050002694129944
