time,seconds_elapsed,z,y,x
1750560782143424000,0.086424072265625,-0.36919400095939636,-0.6641989946365356,1.4075989723205566
1750560782153028600,0.096028564453125,-0.523822009563446,-1.148561954498291,1.1484659910202026
1750560782162633500,0.105633544921875,-0.5436549782752991,-1.7232630252838135,1.1980849504470825
1750560782172238000,0.115238037109375,-0.210317000746727,-0.2833150029182434,0.393777996301651
1750560782181842700,0.1248427734375,0.29287201166152954,-0.042851999402046204,0.08385299891233444
1750560782191447300,0.134447265625,1.2978310585021973,-0.7080069780349731,0.6963199973106384
1750560782201052000,0.144052001953125,1.7405099868774414,-1.26112699508667,1.207237958908081
1750560782210656500,0.153656494140625,1.4954769611358643,-1.2773679494857788,1.4002439975738525
1750560782220261000,0.16326123046875,1.1091020107269287,-1.12711501121521,1.2201869487762451
1750560782229865700,0.17286572265625,0.7212250232696533,-0.8278099894523621,0.9018740057945251
1750560782239470600,0.182470703125,0.3526659905910492,-0.48655200004577637,0.6629539728164673
1750560782249075200,0.1920751953125,-0.07909200340509415,-0.1394679993391037,0.614113986492157
1750560782258679800,0.2016796875,-0.584086000919342,0.2274869978427887,0.6503599882125854
1750560782268284400,0.211284423828125,-0.8574309945106506,0.4843589961528778,0.5001140236854553
1750560782277889000,0.220888916015625,-0.8321160078048706,0.6296070218086243,0.35917899012565613
1750560782287494100,0.230494140625,-0.8881819844245911,0.6013259887695312,0.330935001373291
1750560782297098800,0.2400986328125,-1.0802799463272095,0.5973860025405884,0.39254701137542725
1750560782306703400,0.249703369140625,-1.3435449600219727,0.665198028087616,0.53022700548172
1750560782316308000,0.259307861328125,-1.4885799884796143,0.6115139722824097,0.7421519756317139
1750560782325912600,0.26891259765625,-1.4418389797210693,0.6459550261497498,0.9105859994888306
1750560782335517200,0.27851708984375,-1.4540539979934692,0.6594330072402954,0.7819499969482422
1750560782345121800,0.288121826171875,-1.4464919567108154,0.7275859713554382,0.45778098702430725
1750560782354726400,0.297726318359375,-1.2787749767303467,0.8581529855728149,0.09492199867963791
1750560782364331000,0.3073310546875,-0.9306439757347107,0.9946929812431335,-0.2903740108013153
1750560782373935900,0.316935791015625,-0.46090200543403625,0.8829489946365356,-0.41934800148010254
1750560782383540500,0.32654052734375,0.09920000284910202,0.5166590213775635,-0.1509850025177002
1750560782393145000,0.33614501953125,0.2730950117111206,0.2649039924144745,0.13475599884986877
1750560782402749700,0.345749755859375,0.1265999972820282,0.24328699707984924,0.21026499569416046
1750560782412354300,0.355354248046875,-0.2398259937763214,0.3268029987812042,0.12031999975442886
1750560782421959200,0.364959228515625,-0.6004520058631897,0.34878599643707275,-0.07378800213336945
1750560782431564000,0.37456396484375,-0.8213329911231995,0.32829999923706055,-0.22557400166988373
1750560782441168600,0.384168701171875,-0.894877016544342,0.18901699781417847,-0.18868499994277954
1750560782450773200,0.393773193359375,-0.8646429777145386,0.03030100092291832,-0.003280000062659383
1750560782460377900,0.4033779296875,-0.9325209856033325,-0.008093000389635563,0.16198399662971497
1750560782469982500,0.412982421875,-0.8371229767799377,-0.09675700217485428,0.27793100476264954
1750560782479587000,0.422587158203125,-0.875108003616333,0.06018399819731712,0.08434099704027176
1750560782489192000,0.43219189453125,-1.0288059711456299,0.3128820061683655,-0.34474998712539673
1750560782498796300,0.44179638671875,-1.041043996810913,0.5028169751167297,-0.5982930064201355
1750560782508401200,0.451401123046875,-0.9128450155258179,0.5737069845199585,-0.7225170135498047
1750560782518005800,0.461005859375,-0.6418079733848572,0.5540509819984436,-0.6639339923858643
1750560782527610400,0.4706103515625,-0.2048729956150055,0.3342509865760803,-0.2786659896373749
1750560782537215000,0.480215087890625,0.23935499787330627,0.13970699906349182,0.08751899749040604
1750560782546819600,0.489819580078125,0.3640710115432739,0.09954100102186203,0.2440429925918579
1750560782556424400,0.499424560546875,0.3871670067310333,0.1854420006275177,0.19826899468898773
1750560782566029000,0.509029052734375,0.3258410096168518,0.21957999467849731,0.1304830014705658
1750560782575633700,0.518633544921875,0.3668619990348816,0.2519029974937439,0.07928500324487686
1750560782585238300,0.52823828125,0.37917599081993103,0.38964998722076416,0.01256099995225668
1750560782594843100,0.537843017578125,0.38944900035858154,0.5176389813423157,-0.06871800124645233
1750560782604447700,0.54744775390625,0.3605850040912628,0.6563299894332886,-0.12705299258232117
1750560782614052400,0.55705224609375,0.2771430015563965,0.6873170137405396,-0.07854299992322922
1750560782623657000,0.566656982421875,0.10929500311613083,0.6239110231399536,0.0873740017414093
1750560782633261600,0.576261474609375,-0.1358480006456375,0.4853219985961914,0.22129200398921967
1750560782642866200,0.5858662109375,-0.3082759976387024,0.34867000579833984,0.336557000875473
1750560782652470800,0.595470703125,-0.25585299730300903,0.14499099552631378,0.4873400032520294
1750560782662075600,0.60507568359375,-0.059025999158620834,0.12888699769973755,0.41659098863601685
1750560782671680300,0.61468017578125,0.15672899782657623,0.2171349972486496,0.1483670026063919
1750560782681284900,0.624284912109375,0.29308900237083435,0.33135199546813965,-0.06317699700593948
1750560782690889500,0.633889404296875,0.35938599705696106,0.35761600732803345,-0.09346500039100647
1750560782700494300,0.643494384765625,0.39931100606918335,0.3336949944496155,-0.08117000013589859
1750560782710099000,0.653098876953125,0.25800201296806335,0.23048600554466248,0.007908999919891357
1750560782719703600,0.66270361328125,0.1763879954814911,0.21879099309444427,0.0655059963464737
1750560782729308400,0.672308349609375,0.18211500346660614,0.19398899376392365,0.08391699939966202
1750560782738913000,0.6819130859375,0.1539510041475296,0.13379499316215515,0.14867499470710754
1750560782748517600,0.691517578125,0.11862800270318985,0.1290780007839203,0.27004799246788025
1750560782758122200,0.701122314453125,0.08567199856042862,0.06989599764347076,0.4195530116558075
1750560782767726800,0.710726806640625,0.2229509949684143,-0.030280999839305878,0.5098479986190796
1750560782777331700,0.720331787109375,0.3681960105895996,-0.047947000712156296,0.46083900332450867
1750560782786936300,0.729936279296875,0.37212300300598145,-0.03991900011897087,0.24083900451660156
1750560782796541000,0.739541015625,0.3556399941444397,0.10781999677419662,-0.002947000088170171
1750560782806145500,0.7491455078125,0.26633501052856445,0.19224299490451813,-0.06474199891090393
1750560782815750100,0.758750244140625,0.13353900611400604,0.21105100214481354,0.10111699998378754
1750560782825355000,0.76835498046875,-0.0626629963517189,0.134225994348526,0.3065609931945801
1750560782834959600,0.777959716796875,-0.27897199988365173,0.10516099631786346,0.4381920099258423
1750560782844564000,0.78756396484375,-0.2971940040588379,-0.011717000044882298,0.46428999304771423
1750560782854168800,0.7971689453125,-0.3191069960594177,-0.0703750029206276,0.3740540146827698
1750560782863773400,0.8067734375,-0.384223997592926,0.013673000037670135,0.09671200066804886
1750560782873378300,0.81637841796875,-0.320576012134552,0.11858200281858444,-0.1012360006570816
1750560782882983000,0.82598291015625,-0.09197799861431122,0.14123499393463135,-0.1679220050573349
1750560782892587500,0.83558740234375,0.10037799924612045,0.19248899817466736,-0.14853599667549133
1750560782902192400,0.8451923828125,0.26007699966430664,0.180744007229805,-0.057333000004291534
1750560782911797000,0.854796875,0.22108399868011475,0.07129699736833572,0.07321300357580185
1750560782921401600,0.864401611328125,0.13561399281024933,0.03778599947690964,0.13779200613498688
1750560782931006200,0.874006103515625,-0.05111800134181976,0.022489000111818314,0.097461998462677
1750560782940611000,0.883611083984375,-0.18347600102424622,0.032485999166965485,0.09049499779939651
1750560782950215700,0.893215576171875,-0.2587909996509552,-0.04040899872779846,0.15859200060367584
1750560782959820500,0.902820556640625,-0.37898001074790955,-0.10377500206232071,0.25259798765182495
1750560782969425000,0.9124248046875,-0.3542949855327606,-0.19209599494934082,0.3934890031814575
1750560782979029800,0.92202978515625,-0.262800008058548,-0.22397400438785553,0.29732099175453186
1750560782988634600,0.931634521484375,-0.10998900234699249,-0.14949999749660492,0.010743999853730202
1750560782998239200,0.9412392578125,0.2596740126609802,-0.057176001369953156,-0.1253660023212433
1750560783007843800,0.95084375,0.5202940106391907,-0.09853900223970413,-0.10986900329589844
1750560783017448400,0.960448486328125,0.6455190181732178,-0.22426599264144897,0.039629001170396805
1750560783027053000,0.970052978515625,0.6209819912910461,-0.31585100293159485,0.2582400143146515
1750560783036658000,0.979657958984375,0.37916499376296997,-0.27193498611450195,0.332614004611969
1750560783046262500,0.989262451171875,0.058556001633405685,-0.1910420060157776,0.29149800539016724
1750560783055867100,0.9988671875,-0.10328099876642227,-0.006082999985665083,0.04551500082015991
1750560783065471700,1.0084716796875,0.011048000305891037,0.08755599707365036,-0.2253350019454956
1750560783075076400,1.018076416015625,0.034056998789310455,0.11403899639844894,-0.1439650058746338
1750560783084681000,1.027680908203125,0.012853999622166157,0.09929800033569336,-0.06893199682235718
1750560783094285800,1.037285888671875,-0.06998299807310104,0.21840700507164001,-0.14719699323177338
1750560783103890200,1.04689013671875,-0.11869800090789795,0.1431259959936142,-0.18684500455856323
1750560783113495000,1.0564951171875,0.007536000106483698,0.21835599839687347,-0.21049299836158752
1750560783123099600,1.066099609375,-0.03272499889135361,0.26403599977493286,-0.24827300012111664
1750560783132704300,1.075704345703125,-0.18790900707244873,0.2338549941778183,-0.22937799990177155
1750560783142309000,1.08530908203125,-0.4477219879627228,0.18740299344062805,-0.1379079967737198
1750560783151914000,1.0949140625,-0.6498000025749207,0.13666200637817383,-0.11442200094461441
1750560783161518600,1.1045185546875,-0.5794860124588013,0.16274499893188477,-0.08370400220155716
1750560783171123200,1.114123291015625,0.11995600163936615,0.1241070032119751,-0.05669799819588661
1750560783180727800,1.123727783203125,0.40483999252319336,0.07404100149869919,-0.126009002327919
1750560783190332700,1.133332763671875,0.4715979993343353,0.10389400273561478,-0.0007820000173524022
1750560783199937000,1.14293701171875,0.5560479760169983,-0.01292600017040968,0.092849001288414
1750560783209542000,1.1525419921875,0.4768509864807129,-0.03990500047802925,0.03421499952673912
1750560783219146500,1.162146484375,0.10515999794006348,-0.03933899849653244,-0.13559399545192719
1750560783228751000,1.171751220703125,-0.3353559970855713,0.012474999763071537,-0.1787489950656891
1750560783238356000,1.18135595703125,-0.6603909730911255,0.094200000166893,-0.146464005112648
1750560783247960600,1.190960693359375,-0.8335700035095215,0.14478999376296997,-0.08807799965143204
1750560783257565200,1.200565185546875,-0.802075982093811,0.13432100415229797,-0.006132000125944614
1750560783267170000,1.210170166015625,-0.59266597032547,0.10969000309705734,0.04248400032520294
1750560783276774700,1.219774658203125,-0.27749601006507874,0.003217000048607588,0.07053399831056595
1750560783286379300,1.229379150390625,0.06255999952554703,-0.03737400099635124,0.0015790000325068831
1750560783295984000,1.238984130859375,0.30616599321365356,-0.15540899336338043,0.057684000581502914
1750560783305588700,1.248588623046875,0.3651359975337982,-0.2659029960632324,0.17314699292182922
1750560783315193300,1.258193359375,0.6235920190811157,-0.2142139971256256,0.3077079951763153
1750560783324798000,1.2677978515625,0.6219969987869263,-0.15512000024318695,0.37059301137924194
1750560783334402600,1.277402587890625,0.41317200660705566,-0.1702899932861328,0.20881399512290955
1750560783344007200,1.287007080078125,0.237745001912117,-0.03163300082087517,0.02413400076329708
1750560783353612000,1.296612060546875,0.05723600089550018,-0.02406099997460842,-0.10020700097084045
1750560783363216600,1.306216552734375,-0.0799349993467331,-0.0405149981379509,-0.12040899693965912
1750560783372821500,1.315821533203125,-0.10598400235176086,0.009239999577403069,-0.09136500209569931
1750560783382426000,1.325426025390625,-0.024088000878691673,0.03016900084912777,0.05663299933075905
1750560783392030700,1.33503076171875,0.16253599524497986,-0.03231700137257576,0.207069993019104
1750560783401635600,1.344635498046875,0.44379401206970215,-0.08023300021886826,0.2589679956436157
1750560783411240200,1.354240234375,0.5056089758872986,-0.03848600015044212,0.14747199416160583
1750560783420844800,1.3638447265625,0.3188979923725128,0.019847000017762184,-0.03312600031495094
1750560783430449400,1.373449462890625,0.13528500497341156,0.06843499839305878,-0.20371699333190918
1750560783440054300,1.38305419921875,-0.10440199822187424,0.09737800061702728,-0.2561819851398468
1750560783449659000,1.392658935546875,-0.227851003408432,0.09944099932909012,-0.2594600021839142
1750560783459263500,1.402263427734375,-0.2298790067434311,0.08372999727725983,-0.04747600108385086
1750560783468868000,1.4118681640625,-0.2815310060977936,0.05823700129985809,0.047485001385211945
1750560783478473000,1.421472900390625,-0.27922898530960083,0.08850699663162231,-0.06376200169324875
1750560783488077600,1.43107763671875,-0.21947500109672546,0.19927500188350677,-0.25472399592399597
1750560783497682200,1.44068212890625,-0.07363100349903107,0.17245100438594818,-0.33828601241111755
1750560783507287000,1.450287109375,0.005772000178694725,0.09186399728059769,-0.29983800649642944
1750560783516891600,1.4598916015625,-0.04095600172877312,-0.02753400057554245,-0.19180099666118622
1750560783526496300,1.469496337890625,0.12157599627971649,-0.10717999935150146,0.04660499840974808
1750560783536101000,1.47910107421875,0.27658799290657043,-0.13390499353408813,0.20674900710582733
1750560783545705700,1.488705810546875,0.24085600674152374,-0.009890999644994736,0.2150759994983673
1750560783555310300,1.498310302734375,0.055052999407052994,0.13831999897956848,0.1058960035443306
1750560783564915000,1.5079150390625,-0.07735300064086914,0.20225800573825836,-0.06416899710893631
1750560783574519600,1.51751953125,-0.09003899991512299,0.13850200176239014,-0.20320600271224976
1750560783584124200,1.527124267578125,-0.09222500026226044,0.06620500236749649,-0.23989300429821014
1750560783593729000,1.53672900390625,-0.15068699419498444,0.04337900131940842,-0.17908799648284912
1750560783603333600,1.546333740234375,-0.09186500310897827,0.09274999797344208,-0.0778530016541481
1750560783612938200,1.555938232421875,0.19356399774551392,0.03935299813747406,0.050951000303030014
1750560783622542800,1.56554296875,0.29395899176597595,-0.020992999896407127,0.10373999923467636
1750560783632147700,1.575147705078125,0.1942960023880005,0.028467999771237373,0.05880099907517433
1750560783641752300,1.58475244140625,-0.03385699912905693,0.0901930034160614,-0.04218300059437752
1750560783651357200,1.594357177734375,-0.37001198530197144,0.1319590061903,-0.13211600482463837
1750560783660961800,1.6039619140625,-0.647150993347168,0.12322500348091125,-0.1454710066318512
1750560783670566400,1.61356640625,-0.6904090046882629,0.16863399744033813,-0.05770599842071533
1750560783680171300,1.623171142578125,-0.6814360022544861,0.17417599260807037,0.11850100010633469
1750560783689775900,1.63277587890625,-0.5800259709358215,0.02931400015950203,0.3069939911365509
1750560783699380700,1.642380615234375,-0.4433650076389313,-0.06376399844884872,0.3066979944705963
1750560783708985300,1.6519853515625,-0.3399829864501953,-0.07288999855518341,0.09708800166845322
1750560783718590000,1.66158984375,-0.18660199642181396,-0.18712900578975677,-0.04760900139808655
1750560783728194600,1.671194580078125,-0.10015299916267395,-0.11576999723911285,-0.02552199922502041
1750560783737799200,1.680799072265625,0.015513000078499317,0.029106000438332558,-0.06367900222539902
1750560783747404000,1.690404052734375,0.3886919915676117,0.19040800631046295,-0.05286400020122528
1750560783757008600,1.700008544921875,0.9273920059204102,0.13610300421714783,-0.005714999977499247
1750560783766613200,1.70961328125,1.392596960067749,-0.07615700364112854,0.0693959966301918
1750560783776217900,1.7192177734375,1.5774199962615967,-0.22335100173950195,0.0925000011920929
1750560783785822500,1.728822509765625,1.4941869974136353,-0.2182849943637848,0.0455470010638237
1750560783795427000,1.738427001953125,1.3368439674377441,-0.10192400217056274,-0.127252995967865
1750560783805032000,1.748031982421875,1.156190037727356,-0.057075001299381256,-0.27521800994873047
1750560783814636800,1.75763671875,0.9718689918518066,0.035613998770713806,-0.3412120044231415
1750560783824241400,1.767241455078125,1.04789400100708,0.0313740000128746,-0.3472760021686554
1750560783833846000,1.776845947265625,0.9605330228805542,0.019415000453591347,-0.08343400061130524
1750560783843451000,1.786450927734375,0.44156399369239807,0.024483000859618187,0.0957769975066185
1750560783853055500,1.796055419921875,-0.08527400344610214,0.02975199930369854,0.21953700482845306
1750560783862660000,1.80566015625,-0.5889819860458374,0.06382499635219574,0.21055099368095398
1750560783872264700,1.8152646484375,-1.1420660018920898,0.11830099672079086,0.1526149958372116
1750560783881869600,1.82486962890625,-1.4307440519332886,0.20981599390506744,0.09246200323104858
1750560783891474200,1.83447412109375,-1.270751953125,0.3389059901237488,-0.06030600145459175
1750560783901078800,1.844078857421875,-0.8451240062713623,0.4638029932975769,-0.20081700384616852
1750560783910683600,1.85368359375,-0.5706729888916016,0.35239100456237793,-0.2371390014886856
1750560783920288500,1.86328857421875,-0.4782080054283142,0.09831099957227707,-0.1081480011343956
1750560783929893000,1.87289306640625,-0.5574899911880493,-0.015309000387787819,0.061351001262664795
1750560783939497700,1.882497802734375,-0.67808997631073,-0.10672099888324738,0.12989099323749542
1750560783949102300,1.892102294921875,-0.6967949867248535,-0.08285800367593765,0.01520800031721592
1750560783958707200,1.901707275390625,-0.5707550048828125,-0.02800299972295761,-0.07735899835824966
1750560783968311800,1.911311767578125,-0.0016509999986737967,-0.15453599393367767,-0.0680840015411377
1750560783977916400,1.92091650390625,0.5258299708366394,-0.09094800055027008,0.21450699865818024
1750560783987521000,1.93052099609375,0.4685080051422119,-0.09079399704933167,0.09592500329017639
1750560783997126000,1.9401259765625,0.5141549706459045,-0.18663500249385834,-0.07518800348043442
1750560784006730500,1.94973046875,0.617326021194458,-0.26139798760414124,-0.11478199809789658
1750560784016335400,1.95933544921875,0.3504430055618286,-0.283050000667572,-0.13743700087070465
1750560784025940000,1.96893994140625,0.12675000727176666,-0.10866300016641617,-0.17297199368476868
1750560784035544600,1.978544677734375,0.26194000244140625,0.011874999850988388,-0.013799999840557575
1750560784045149200,1.988149169921875,0.06257399916648865,-0.049258001148700714,0.017407000064849854
1750560784054754000,1.997754150390625,-0.3000909984111786,-0.026575999334454536,-0.0064559997990727425
1750560784064358700,2.007358642578125,-0.38150501251220703,0.01716100051999092,-0.11816199868917465
1750560784073963300,2.01696337890625,-0.2252490073442459,0.04700399935245514,-0.27233898639678955
1750560784083567900,2.02656787109375,-0.14131200313568115,0.15556700527668,-0.3573960065841675
1750560784093172700,2.0361728515625,-0.20655100047588348,0.19807299971580505,-0.27987000346183777
1750560784102777300,2.04577734375,-0.22019599378108978,0.13382500410079956,-0.14548900723457336
1750560784112382200,2.05538232421875,-0.12043800204992294,0.06078699976205826,-0.024521000683307648
1750560784121986800,2.06498681640625,0.09921400249004364,-0.03304100036621094,0.04134700074791908
1750560784131591400,2.07459130859375,0.36583200097084045,-0.2356249988079071,0.13533900678157806
1750560784141196300,2.0841962890625,0.49164700508117676,-0.4372499883174896,0.4491479992866516
1750560784150801000,2.09380078125,0.21227499842643738,-0.14776499569416046,0.26273199915885925
1750560784160405800,2.10340576171875,0.0016420000465586782,-0.0884540006518364,0.09200700372457504
1750560784170010400,2.11301025390625,0.0467820018529892,0.05971900001168251,-0.09499499946832657
1750560784179615000,2.122614990234375,0.12172599881887436,0.16360700130462646,-0.18958400189876556
1750560784189219600,2.132219482421875,0.04527600109577179,0.09870199859142303,-0.031814999878406525
1750560784198824200,2.14182421875,0.0023529999889433384,-0.006225999910384417,0.20233799517154694
1750560784208429000,2.151428955078125,-0.05942700058221817,-0.12561899423599243,0.31297799944877625
1750560784218033700,2.16103369140625,-0.13570399582386017,-0.08402899652719498,0.34446999430656433
1750560784227638300,2.17063818359375,-0.13094399869441986,0.003602999961003661,0.3340489864349365
1750560784237243100,2.1802431640625,0.04175100103020668,0.04191400110721588,0.2226720005273819
1750560784246847700,2.18984765625,0.17876000702381134,-0.012144999578595161,0.18956899642944336
1750560784256452400,2.199452392578125,0.13841399550437927,-0.0925230011343956,0.214260995388031
1750560784266057200,2.20905712890625,0.1440570056438446,-0.06796900182962418,0.14410699903964996
1750560784275662000,2.218662109375,0.2173590064048767,-0.0235190000385046,-0.12131600081920624
1750560784285266700,2.2282666015625,0.26688799262046814,0.015402999706566334,-0.23768499493598938
1750560784294871300,2.237871337890625,0.11592800170183182,0.06913000345230103,-0.20151099562644958
1750560784304476000,2.247475830078125,-0.004807000048458576,0.08206100016832352,-0.03842499852180481
1750560784314080500,2.25708056640625,0.006794999819248915,0.02543500065803528,0.12789799273014069
1750560784323685400,2.266685302734375,0.02720700018107891,-0.05926499888300896,0.19697299599647522
1750560784333290000,2.2762900390625,0.0710040032863617,-0.13424399495124817,0.19959500432014465
1750560784342894600,2.28589453125,0.09412500262260437,-0.12680399417877197,0.12935499846935272
1750560784352499200,2.295499267578125,0.0930899977684021,-0.10720299929380417,0.11549200117588043
1750560784362104000,2.30510400390625,0.14773300290107727,-0.04291300103068352,0.0933620035648346
1750560784371709000,2.314708984375,0.09898199886083603,0.08198899775743484,0.03282900154590607
1750560784381313500,2.3243134765625,0.0319099985063076,0.19451400637626648,-0.046227000653743744
1750560784390918100,2.333918212890625,-0.007232999894768,0.21466900408267975,-0.05331899970769882
1750560784400523000,2.34352294921875,0.06473500281572342,0.15436600148677826,-0.10482300072908401
1750560784410127600,2.353127685546875,0.1318269968032837,0.10825400054454803,-0.05758799985051155
1750560784419732200,2.362732177734375,0.09801000356674194,0.10813199728727341,-0.05629599839448929
1750560784429336800,2.3723369140625,0.07269299775362015,0.1406860053539276,0.05722200125455856
1750560784438941700,2.381941650390625,0.06136099994182587,0.08067099750041962,0.1513269990682602
1750560784448546300,2.39154638671875,0.1623609960079193,0.03462500125169754,0.1381639987230301
1750560784458151000,2.40115087890625,0.2236589938402176,0.0085230004042387,0.06802599877119064
1750560784467755800,2.410755859375,0.1845480054616928,-0.03930800035595894,0.03955399990081787
1750560784477360400,2.4203603515625,0.12264300137758255,0.03894000127911568,0.0336729995906353
1750560784486965000,2.429965087890625,0.10556700080633163,0.06330200284719467,0.10100200027227402
1750560784496569600,2.439569580078125,0.06871700286865234,0.06732399761676788,0.2151069939136505
1750560784506174500,2.449174560546875,-0.007211000192910433,0.11790599673986435,0.1830199956893921
1750560784515779300,2.458779296875,-0.13236799836158752,0.17267699539661407,0.1181579977273941
1750560784525383700,2.4683837890625,-0.2354629933834076,0.16953200101852417,0.03395000100135803
1750560784534988500,2.477988525390625,-0.26655399799346924,0.08712299913167953,0.07693199813365936
1750560784544593400,2.487593505859375,-0.36305099725723267,0.03454799950122833,0.14994999766349792
1750560784554198000,2.497197998046875,-0.27807798981666565,0.05587400123476982,-0.018881000578403473
1750560784563802600,2.506802734375,-0.06932400166988373,0.1265619993209839,-0.2307009994983673
1750560784573407200,2.5164072265625,0.14222599565982819,0.12859900295734406,-0.2998560070991516
1750560784583012000,2.52601220703125,0.26628801226615906,0.01432000007480383,-0.19107100367546082
1750560784592616700,2.53561669921875,0.22715499997138977,-0.0559299997985363,-0.0578479990363121
1750560784602221300,2.54522119140625,0.19962500035762787,-0.06307400017976761,-0.012076999992132187
1750560784611826000,2.554825927734375,0.1711840033531189,-0.09087000042200089,-0.08973299711942673
1750560784621430800,2.5644306640625,0.040980998426675797,-0.07152099907398224,-0.09598899632692337
1750560784631035400,2.574035400390625,-0.07361400127410889,-0.060051001608371735,-0.06604799628257751
1750560784640640000,2.583639892578125,-0.14790600538253784,-0.014188000001013279,-0.01635099947452545
1750560784650244900,2.593244873046875,-0.13632699847221375,0.003263999940827489,-0.007946000434458256
1750560784659849500,2.602849365234375,-0.07473000138998032,0.02520499937236309,-0.062212999910116196
1750560784669454000,2.6124541015625,0.041843999177217484,-0.05157100036740303,-0.02166000008583069
1750560784679059000,2.622058837890625,0.13349699974060059,-0.1540510058403015,0.08313000202178955
1750560784688663800,2.631663818359375,0.05249100178480148,-0.11472400277853012,0.04882499948143959
1750560784698268400,2.641268310546875,-0.026771999895572662,-0.0023789999540895224,-0.008413000032305717
1750560784707873000,2.650873046875,-0.1300950050354004,0.03863000124692917,-0.06085500121116638
1750560784717477600,2.6604775390625,-0.16803500056266785,0.04071500152349472,-0.042100001126527786
1750560784727082500,2.67008251953125,-0.1126519963145256,0.06641499698162079,-0.09070400148630142
1750560784736687000,2.67968701171875,0.05820599943399429,0.01168499980121851,-0.1270110011100769
1750560784746291700,2.689291748046875,0.17409999668598175,-0.0341310016810894,-0.058928001672029495
1750560784755896600,2.698896484375,0.13390100002288818,-0.014515000395476818,-0.04253000020980835
1750560784765501200,2.708501220703125,0.12091600149869919,0.09567300230264664,-0.06896299868822098
1750560784775105800,2.718105712890625,0.14151699841022491,0.11720400303602219,-0.10442499816417694
1750560784784710700,2.727710693359375,0.1278340071439743,0.03196199983358383,-0.025381000712513924
1750560784794315300,2.737315185546875,0.13924400508403778,-0.03972199931740761,0.11871100217103958
1750560784803920100,2.746920166015625,0.2113189995288849,0.01209499966353178,-0.0063749998807907104
1750560784813524700,2.756524658203125,0.26216399669647217,0.10885900259017944,-0.20274899899959564
1750560784823129300,2.76612939453125,-0.015057000331580639,0.19230100512504578,-0.29859501123428345
1750560784832734200,2.775734130859375,-0.3280960023403168,0.243599995970726,-0.260904997587204
1750560784842338800,2.7853388671875,-0.5290480256080627,0.17647899687290192,-0.1386529952287674
1750560784851943400,2.794943359375,-0.5672039985656738,0.13576200604438782,-0.0069989999756217
1750560784861548000,2.804548095703125,-0.2614099979400635,0.041822001338005066,0.15644200146198273
1750560784871153000,2.81415283203125,0.15497499704360962,-0.057096999138593674,0.18159300088882446
1750560784880757500,2.823757568359375,0.41881799697875977,-0.08134199678897858,0.06681700050830841
1750560784890362400,2.8333623046875,0.45032998919487,-0.03607900068163872,-0.03585100173950195
1750560784899967000,2.842967041015625,0.33812201023101807,0.036386001855134964,-0.06206300109624863
1750560784909571800,2.85257177734375,0.17446400225162506,0.09433499723672867,-0.0434270016849041
1750560784919176400,2.862176513671875,0.0704369992017746,0.09342599660158157,0.03412200137972832
1750560784928781000,2.871781005859375,-0.003082999959588051,0.014526000246405602,0.15213699638843536
1750560784938386000,2.881385986328125,-0.05436500161886215,-0.06733100116252899,0.2578659951686859
1750560784947990500,2.890990478515625,-0.03854599967598915,-0.04411499947309494,0.2168319970369339
1750560784957595100,2.90059521484375,-0.13611599802970886,0.053971998393535614,-0.015905000269412994
1750560784967200000,2.910199951171875,-0.05508900061249733,0.1573130041360855,-0.20006899535655975
1750560784976804400,2.919804443359375,0.12336300313472748,0.2463739961385727,-0.24630999565124512
1750560784986409200,2.9294091796875,0.1669660061597824,0.2044460028409958,-0.12493199855089188
1750560784996014300,2.939014404296875,0.23285700380802155,0.032444000244140625,0.0696370005607605
1750560785005619000,2.948618896484375,0.30665498971939087,-0.0757559984922409,0.21810099482536316
1750560785015223600,2.9582236328125,0.18164299428462982,-0.19545599818229675,0.26381900906562805
1750560785024828200,2.967828125,0.015294999815523624,-0.18238100409507751,0.1649470031261444
1750560785034433000,2.97743310546875,-0.2031880021095276,-0.07816199958324432,0.06244799867272377
1750560785044037400,2.987037353515625,-0.39434701204299927,-0.05555799975991249,0.058299001306295395
1750560785053642200,2.996642333984375,-0.42972099781036377,0.03943900018930435,0.17590899765491486
1750560785063246800,3.006246826171875,-0.2966180145740509,-0.036913998425006866,0.1718759983778
1750560785072851500,3.0158515625,-0.11915899813175201,-0.12074899673461914,0.12786099314689636
1750560785082456300,3.025456298828125,-0.18561400473117828,-0.2509729862213135,0.038072001188993454
1750560785092061200,3.035061279296875,-0.363647997379303,-0.27915799617767334,-0.09707500040531158
1750560785101665800,3.044665771484375,-0.4338870048522949,-0.17584100365638733,-0.31845900416374207
1750560785111270400,3.0542705078125,0.07286600023508072,0.017393000423908234,-0.08633899688720703
1750560785120875300,3.063875244140625,0.3264639973640442,0.04876700043678284,-0.018508000299334526
1750560785130479900,3.07347998046875,0.27948999404907227,0.000028000000384054147,-0.18090300261974335
1750560785140084700,3.083084716796875,0.3165760040283203,0.027956999838352203,-0.1496960073709488
1750560785149689300,3.092689453125,0.22861899435520172,-0.14678199589252472,-0.07673300057649612
1750560785159294000,3.1022939453125,0.15710200369358063,-0.14591899514198303,0.0005680000176653266
1750560785168898600,3.111898681640625,0.07575000077486038,-0.00015300000086426735,0.10386999696493149
1750560785178503200,3.121503173828125,-0.010250000283122063,0.08637499809265137,0.16671299934387207
1750560785188108300,3.1311083984375,-0.12641499936580658,0.03314099833369255,0.04655800014734268
1750560785197713000,3.140712890625,-0.16965900361537933,0.06490900367498398,-0.0751589983701706
1750560785207317500,3.1503173828125,-0.045743998140096664,0.1637430042028427,-0.19481399655342102
1750560785216922400,3.15992236328125,0.11049900203943253,0.14568600058555603,-0.2578429877758026
1750560785226527000,3.16952685546875,0.2625580132007599,0.12388499826192856,-0.2989799976348877
1750560785236131600,3.179131591796875,0.45621201395988464,0.1702599972486496,-0.2100529968738556
1750560785245736400,3.188736328125,0.4606519937515259,0.14761699736118317,-0.020591000095009804
1750560785255341000,3.198341064453125,0.39696401357650757,0.09548299759626389,0.10252700001001358
1750560785264945700,3.207945556640625,0.35182300209999084,0.022789999842643738,0.1648550033569336
1750560785274550300,3.21755029296875,0.26630499958992004,-0.03552699834108353,0.16527800261974335
1750560785284155100,3.227155029296875,0.22615699470043182,-0.03851199895143509,0.056102998554706573
1750560785293760000,3.236760009765625,0.12890499830245972,0.008585000410676003,-0.08926399797201157
1750560785303364600,3.246364501953125,0.06940200179815292,0.1667580008506775,-0.320466011762619
1750560785312969200,3.25596923828125,0.05101599916815758,0.3011449873447418,-0.3782930076122284
1750560785322573800,3.26557373046875,-0.04184100031852722,0.2878440022468567,-0.2863740026950836
1750560785332178700,3.2751787109375,-0.24274900555610657,0.28279098868370056,-0.11567100137472153
1750560785341783600,3.284783447265625,-0.31262001395225525,0.1442900002002716,0.08465199917554855
1750560785351388200,3.29438818359375,-0.39929699897766113,0.007962999865412712,0.22686100006103516
1750560785360992800,3.30399267578125,-0.4869149923324585,-0.10841500014066696,0.30473199486732483
1750560785370597600,3.31359765625,-0.4838089942932129,-0.1074339970946312,0.25076401233673096
1750560785380202200,3.3232021484375,-0.43957599997520447,-0.07367700338363647,0.20249399542808533
1750560785389807000,3.33280712890625,-0.18208500742912292,-0.033622000366449356,0.16265399754047394
1750560785399411500,3.342411376953125,0.056977998465299606,-0.004906999878585339,0.042534999549388885
1750560785409016300,3.352016357421875,0.09552399814128876,-0.008043999783694744,-0.04761099815368652
1750560785418621000,3.361620849609375,0.1123960018157959,-0.03260599821805954,-0.034664999693632126
1750560785428225800,3.371225830078125,0.003976999782025814,-0.08744200319051743,0.021674999967217445
1750560785437830400,3.380830322265625,-0.08514600247144699,-0.11834599822759628,0.04410399869084358
1750560785447435000,3.39043505859375,-0.11486499756574631,-0.08884099870920181,0.11949799954891205
1750560785457040000,3.400039794921875,0.016969000920653343,-0.015382000245153904,0.10346700251102448
1750560785466644700,3.409644775390625,0.05435600131750107,-0.003235999960452318,0.07687599956989288
1750560785476249300,3.419249267578125,0.21116100251674652,0.027974000200629234,0.049876000732183456
1750560785485854000,3.42885400390625,0.36293599009513855,0.0470689982175827,-0.029378000646829605
1750560785495458600,3.43845849609375,0.43603000044822693,-0.054076001048088074,0.009763999842107296
1750560785505063200,3.448063232421875,0.30601200461387634,-0.11206500232219696,0.07513999938964844
1750560785514668000,3.45766796875,0.1925240010023117,-0.1476459950208664,0.18505600094795227
1750560785524272600,3.467272705078125,-0.0157260000705719,-0.16185100376605988,0.2906720042228699
1750560785533877200,3.476877197265625,-0.15404100716114044,-0.11610499769449234,0.28004199266433716
1750560785543482000,3.486482177734375,-0.2562060058116913,-0.008107000030577183,0.11630599945783615
1750560785553087000,3.4960869140625,-0.2690120041370392,0.0942320004105568,-0.08836500346660614
1750560785562691600,3.505691650390625,-0.10613299906253815,0.17831699550151825,-0.1921280026435852
1750560785572296400,3.51529638671875,0.03967899829149246,0.11588600277900696,-0.18753500282764435
1750560785581901000,3.524901123046875,0.14595000445842743,0.0614130012691021,-0.12399499863386154
1750560785591505700,3.534505615234375,0.16767199337482452,-0.0019000000320374966,0.055243998765945435
1750560785601110500,3.544110595703125,0.043255001306533813,-0.0502530001103878,0.16506700217723846
1750560785610715100,3.553715087890625,-0.01579900085926056,0.035294000059366226,0.14213299751281738
1750560785620319700,3.56331982421875,-0.00877899955958128,0.10279600322246552,0.034081000834703445
1750560785629924400,3.57292431640625,0.040699999779462814,0.07242199778556824,-0.08324699848890305
1750560785639529500,3.582529541015625,0.011562000028789043,0.03681999817490578,-0.10156100243330002
1750560785649134000,3.592134033203125,-0.0602170005440712,-0.018278999254107475,-0.06660199910402298
1750560785658738700,3.60173876953125,-0.02819100022315979,-0.10081599652767181,-0.0036720000207424164
1750560785668343600,3.611343505859375,-0.0037189999129623175,-0.07541599869728088,0.03157300129532814
1750560785677948200,3.6209482421875,-0.014977999962866306,0.04338400065898895,-0.04132400080561638
1750560785687552800,3.630552734375,0.06054599955677986,0.10646799951791763,-0.0975480005145073
1750560785697157600,3.64015771484375,0.14713500440120697,0.08890300244092941,-0.12701000273227692
1750560785706762200,3.64976220703125,0.12469399720430374,0.09906800091266632,-0.09835699945688248
1750560785716366800,3.659366943359375,0.0906979963183403,0.04670200124382973,-0.03780699893832207
1750560785725971700,3.6689716796875,0.09057299792766571,0.013000999577343464,-0.03259899839758873
1750560785735576300,3.678576416015625,0.06331100314855576,0.04703899845480919,-0.11946699768304825
1750560785745181000,3.688180908203125,0.07663200050592422,0.062073998153209686,-0.0909539982676506
1750560785754785500,3.69778564453125,0.09654700011014938,0.08488699793815613,-0.04142099991440773
1750560785764390400,3.707390380859375,0.10583999752998352,0.0010300000431016088,0.10755299776792526
1750560785773995300,3.716995361328125,0.10485100001096725,-0.055757999420166016,0.16700899600982666
1750560785783599900,3.726599853515625,0.17087599635124207,-0.009705999866127968,0.05350299924612045
1750560785793204700,3.736204833984375,0.25102499127388,0.03855999931693077,-0.11600100249052048
1750560785802809300,3.745809326171875,0.28659701347351074,0.04981900006532669,-0.19588099420070648
1750560785812414000,3.7554140625,0.23399199545383453,-0.02782200090587139,-0.04022600129246712
1750560785822018600,3.7650185546875,0.16801300644874573,-0.03183000162243843,0.15323400497436523
1750560785831623400,3.77462353515625,0.07611799985170364,0.01925699971616268,0.12229599803686142
1750560785841228000,3.78422802734375,0.12784600257873535,0.1208140030503273,0.0504629984498024
1750560785850832600,3.79383251953125,0.22179000079631805,0.18494999408721924,0.05955599993467331
1750560785860437500,3.8034375,0.09017600119113922,0.11830300092697144,0.13790400326251984
1750560785870042000,3.8130419921875,-0.1103459969162941,0.03251799941062927,0.21028800308704376
1750560785879647000,3.82264697265625,-0.17185400426387787,0.05923499912023544,0.12212400138378143
1750560785889251800,3.832251953125,-0.1232059970498085,0.04248199984431267,0.019027000293135643
1750560785898856400,3.8418564453125,-0.10437300056219101,0.14863300323486328,-0.16647499799728394
1750560785908461000,3.8514609375,-0.1617020070552826,0.1898909956216812,-0.2590720057487488
1750560785918066000,3.86106591796875,-0.08855699747800827,0.15079399943351746,-0.17227399349212646
1750560785927670500,3.87067041015625,-0.05988699942827225,0.028874000534415245,-0.09100700169801712
1750560785937275100,3.880275146484375,-0.05937499925494194,-0.017362000420689583,-0.10282400250434875
1750560785946880000,3.8898798828125,-0.02421100065112114,-0.055449001491069794,-0.08349800109863281
1750560785956484600,3.899484619140625,-0.06080299988389015,-0.06486400216817856,-0.07626000046730042
1750560785966089500,3.90908935546875,-0.02042900025844574,-0.06979399919509888,-0.028521999716758728
1750560785975694300,3.9186943359375,0.16748100519180298,-0.05977100133895874,0.006262000184506178
1750560785985299000,3.928298828125,0.31927499175071716,-0.0017180000431835651,0.024960000067949295
1750560785994903600,3.937903564453125,0.3435159921646118,0.04529000073671341,-0.020228000357747078
1750560786004508200,3.947508056640625,0.18765699863433838,0.012014999985694885,-0.0030249999836087227
1750560786014113000,3.957113037109375,-0.1613979935646057,0.024414999410510063,-0.05251099914312363
1750560786023717600,3.966717529296875,-0.3351919949054718,0.051270000636577606,-0.1078300029039383
1750560786033322200,3.976322265625,-0.328590989112854,0.07228100299835205,-0.07747399806976318
1750560786042927000,3.985927001953125,-0.31979799270629883,0.10272300243377686,-0.04770100116729736
1750560786052532000,3.995531982421875,-0.21489299833774567,0.11330699920654297,0.015432000160217285
1750560786062136600,4.005136474609375,-0.025226999074220657,0.03351999819278717,0.07388799637556076
1750560786071741400,4.014741455078125,0.08510199934244156,0.023168999701738358,0.08162900060415268
1750560786081346000,4.024345947265625,0.13046100735664368,-0.008551999926567078,0.029771000146865845
1750560786090950700,4.03395068359375,0.18909400701522827,-0.041770998388528824,-0.04469799995422363
1750560786100555500,4.043555419921875,0.20408999919891357,-0.05057299882173538,-0.08308800309896469
1750560786110160100,4.05316015625,0.24394899606704712,-0.057937998324632645,-0.025206999853253365
1750560786119765000,4.062764892578125,0.33151501417160034,-0.0724409967660904,0.040300000458955765
1750560786129369600,4.07236962890625,0.31898099184036255,0.008584000170230865,-0.09545700252056122
1750560786138974500,4.081974365234375,0.37820199131965637,0.12350799888372421,-0.22919100522994995
1750560786148579000,4.0915791015625,0.17813900113105774,0.07430200278759003,-0.2628070116043091
1750560786158184000,4.101183837890625,-0.13026900589466095,0.08880399912595749,-0.13813099265098572
1750560786167788300,4.110788330078125,-0.27621498703956604,0.0249439999461174,-0.006058000028133392
1750560786177393200,4.12039306640625,-0.25095200538635254,0.01472300011664629,0.08382199704647064
1750560786186998000,4.129998046875,-0.2180130034685135,0.030233999714255333,0.11192700266838074
1750560786196602600,4.1396025390625,0.014201000332832336,0.07112699747085571,0.12480700016021729
1750560786206207200,4.149207275390625,0.2225939929485321,0.06584300100803375,0.0019239999819546938
1750560786215812000,4.15881201171875,0.26107099652290344,0.10838299989700317,-0.16427400708198547
1750560786225416700,4.168416748046875,0.17824099957942963,0.052296001464128494,-0.08928100019693375
1750560786235021300,4.178021240234375,-0.1566849946975708,-0.03346899896860123,0.06313300132751465
1750560786244626000,4.1876259765625,-0.35968199372291565,-0.025489000603556633,0.15788300335407257
1750560786254230800,4.197230712890625,-0.3837989866733551,-0.004807000048458576,0.154229998588562
1750560786263835400,4.20683544921875,-0.32067498564720154,0.04559899866580963,0.11028899997472763
1750560786273440000,4.21643994140625,-0.14215199649333954,0.008701000362634659,0.13177800178527832
1750560786283044900,4.226044921875,-0.16088399291038513,-0.039542000740766525,0.13619600236415863
1750560786292649500,4.2356494140625,-0.2249480038881302,0.0246140006929636,-0.09058400243520737
1750560786302254300,4.24525439453125,-0.13285399973392487,0.18854700028896332,-0.321821004152298
1750560786311859200,4.254859130859375,0.0031510000117123127,0.14277100563049316,-0.32601198554039
1750560786321463800,4.2644638671875,0.05902399867773056,0.07380100339651108,-0.23165500164031982
1750560786331068400,4.274068359375,0.24268800020217896,0.08759699761867523,-0.07538499683141708
1750560786340673300,4.28367333984375,0.3525159955024719,0.04819900169968605,0.08395300060510635
1750560786350278000,4.29327783203125,0.17006100714206696,0.021789999678730965,0.18714000284671783
1750560786359882500,4.302882568359375,0.03141200169920921,-0.047929998487234116,0.17952600121498108
1750560786369487400,4.3124873046875,-0.09621799737215042,-0.037321001291275024,0.11863899976015091
1750560786379092000,4.322092041015625,-0.35950401425361633,0.254925012588501,-0.8298599720001221
1750560786388697000,4.331697021484375,-0.1967490017414093,1.3038649559020996,-2.7180581092834473
1750560786398301700,4.3413017578125,0.0812940001487732,2.0149450302124023,-4.381476879119873
1750560786407906300,4.35090625,-0.1062140017747879,2.7924699783325195,-6.005794048309326
1750560786417511200,4.36051123046875,-0.5889710187911987,3.1410210132598877,-6.6005940437316895
1750560786427115800,4.37011572265625,-1.6111170053482056,2.493911027908325,-6.383360862731934
1750560786436720400,4.379720458984375,-2.3722739219665527,2.5990428924560547,-7.11405611038208
1750560786446325000,4.389324951171875,-3.2882490158081055,1.8628909587860107,-6.487867832183838
1750560786455929900,4.398929931640625,-4.322414875030518,0.06604199856519699,-5.182666778564453
1750560786465534500,4.408534423828125,-4.688783168792725,-0.3345479965209961,-5.193785190582275
1750560786475139300,4.418139404296875,-4.05968713760376,-0.2564519941806793,-6.509214878082275
1750560786484744000,4.427743896484375,-3.0661981105804443,-0.9049710035324097,-5.944356918334961
1750560786494348800,4.437348876953125,-2.221101999282837,-2.248823881149292,-4.220465183258057
1750560786503953400,4.446953369140625,-1.6705249547958374,-3.32779598236084,-1.2357269525527954
1750560786513558000,4.45655810546875,-0.4516099989414215,-4.558444023132324,4.057003021240234
1750560786523163000,4.466162841796875,1.3484070301055908,-5.362151145935059,8.607032775878906
1750560786532767500,4.475767578125,3.640434980392456,-5.640389919281006,10.612380027770996
1750560786542372000,4.4853720703125,5.2644147872924805,-5.647605895996094,10.370384216308594
1750560786551977000,4.49497705078125,5.4935407638549805,-5.0142130851745605,8.633734703063965
1750560786561581600,4.50458154296875,4.138566970825195,-4.04018497467041,7.345436096191406
1750560786571186400,4.5141865234375,2.8127219676971436,-3.8522660732269287,6.511773109436035
1750560786580791300,4.523791259765625,3.3419740200042725,-4.500271797180176,6.131837844848633
1750560786590396000,4.53339599609375,4.304842948913574,-4.921106815338135,5.952890872955322
1750560786600000500,4.54300048828125,4.622348785400391,-4.994174957275391,5.971889972686768
1750560786609605400,4.55260546875,5.178625106811523,-5.373586177825928,6.66845178604126
1750560786619210000,4.5622099609375,5.6166558265686035,-6.211857795715332,7.677064895629883
1750560786628814600,4.571814697265625,5.196792125701904,-7.083762168884277,9.13973331451416
1750560786638419500,4.58141943359375,3.8835771083831787,-7.143154144287109,9.041667938232422
1750560786648024000,4.591024169921875,2.180143117904663,-6.52243709564209,6.221414089202881
1750560786657629000,4.60062890625,1.389404058456421,-5.303317070007324,1.8729209899902344
1750560786667233800,4.61023388671875,0.9056000113487244,-3.838273048400879,-2.2542200088500977
1750560786676838400,4.61983837890625,0.6113560199737549,-1.278594970703125,-6.585454940795898
1750560786686443000,4.629443115234375,-0.0874290019273758,1.515192985534668,-8.025057792663574
1750560786696047900,4.6390478515625,-1.4535720348358154,1.985577940940857,-5.543529987335205
1750560786705652500,4.648652587890625,-1.6983829736709595,1.1070430278778076,-1.8223860263824463
1750560786715257000,4.658257080078125,-1.2650909423828125,0.06468600034713745,0.4855619966983795
1750560786724862000,4.667862060546875,-0.9261429905891418,0.07914499938488007,0.33869099617004395
1750560786734466600,4.677466552734375,-0.6481750011444092,0.5154290199279785,-0.414095014333725
1750560786744071400,4.687071533203125,-1.0518909692764282,0.9336240291595459,-0.9130150079727173
1750560786753676000,4.696676025390625,-1.653607964515686,1.082859992980957,-1.0398080348968506
1750560786763280600,4.70628076171875,-2.211577892303467,1.1162630319595337,-1.1268390417099
1750560786772885500,4.715885498046875,-2.7084789276123047,1.0220810174942017,-1.2320530414581299
1750560786782490400,4.725490478515625,-2.45750093460083,1.4231079816818237,-1.8295730352401733
1750560786792095000,4.735094970703125,-1.8087830543518066,1.6767300367355347,-2.162108898162842
1750560786801699800,4.744699951171875,-1.4733619689941406,1.3568470478057861,-1.6434500217437744
1750560786811304400,4.754304443359375,-1.2310819625854492,0.8424559831619263,-0.57743901014328
1750560786820909000,4.763908935546875,-0.41000300645828247,0.27452099323272705,0.4510369896888733
1750560786830513700,4.773513671875,0.44648200273513794,-0.22759099304676056,0.9762160181999207
1750560786840118500,4.783118408203125,0.7895039916038513,-0.4472540020942688,1.041638970375061
1750560786849723100,4.79272314453125,0.8818730115890503,-0.31026598811149597,0.4936769902706146
1750560786859328000,4.802327880859375,1.1138639450073242,-0.058313999325037,-0.0983090028166771
1750560786868932600,4.8119326171875,0.674780011177063,0.01716499961912632,-0.5032539963722229
1750560786878537500,4.821537353515625,0.28254398703575134,0.20943500101566315,-0.6295620203018188
1750560786888142300,4.831142333984375,0.6149299740791321,0.08540400117635727,-0.3403699994087219
1750560786897747000,4.840746826171875,1.2756500244140625,-0.31551098823547363,0.22861599922180176
1750560786907351800,4.850351806640625,1.7335519790649414,-0.6857849955558777,0.9446420073509216
1750560786916956400,4.859956298828125,1.729761004447937,-0.93026202917099,1.5082809925079346
1750560786926561000,4.86956103515625,1.18149995803833,-0.9306960105895996,1.6311290264129639
1750560786936165600,4.87916552734375,0.9851740002632141,-0.6867079734802246,1.2494629621505737
1750560786945770500,4.8887705078125,0.9090330004692078,-0.4989260137081146,0.9540619850158691
1750560786955375000,4.898375,0.5963640213012695,-0.5536460280418396,1.0741230249404907
1750560786964979700,4.907979736328125,0.3685370087623596,-0.5833320021629333,1.3586809635162354
1750560786974584600,4.91758447265625,0.33002200722694397,-0.5426309704780579,1.191540002822876
1750560786984189200,4.927189208984375,0.705269992351532,-0.4104189872741699,0.8563479781150818
1750560786993794000,4.9367939453125,0.7883960008621216,-0.4516420066356659,0.9615060091018677
1750560787003399000,4.94639892578125,0.4654049873352051,-0.4920569956302643,1.160838007926941
1750560787013003500,4.95600341796875,0.17701099812984467,-0.3425059914588928,1.1387410163879395
1750560787022608400,4.9656083984375,0.2052450031042099,-0.2740339934825897,1.120195984840393
1750560787032213000,4.975212890625,0.5617480278015137,-0.5123109817504883,1.325292944908142
1750560787041817600,4.984817626953125,0.6366739869117737,-0.5287690162658691,1.0915839672088623
1750560787051422500,4.99442236328125,0.4918299913406372,-0.2303130030632019,0.3830060064792633
1750560787061027000,5.004027099609375,0.25830599665641785,0.07925400137901306,-0.20974600315093994
1750560787070632000,5.0136318359375,-0.15648700296878815,0.13016299903392792,-0.22719000279903412
1750560787080236500,5.023236572265625,-0.4430299997329712,0.0402350015938282,0.25002598762512207
1750560787089841400,5.03284130859375,-0.5176330208778381,-0.21926599740982056,0.8197870254516602
1750560787099446000,5.042446044921875,-0.41321098804473877,-0.3287220001220703,1.1223419904708862
1750560787109051000,5.05205078125,-0.16968299448490143,-0.2470719963312149,1.057953953742981
1750560787118655500,5.061655517578125,0.18900300562381744,-0.07256200164556503,0.5189779996871948
1750560787128260000,5.071260009765625,0.5328249931335449,0.07047899812459946,0.009127999655902386
1750560787137864700,5.08086474609375,0.41025200486183167,0.049612998962402344,-0.17621099948883057
1750560787147469600,5.090469482421875,0.06414499878883362,-0.00025499999173916876,-0.07215800136327744
1750560787157074400,5.100074462890625,-0.2501470148563385,-0.10871700197458267,0.22171400487422943
1750560787166679000,5.109678955078125,-0.4434190094470978,-0.23123799264431,0.4227350056171417
1750560787176283600,5.11928369140625,-0.4041689932346344,-0.17918600142002106,0.3761790096759796
1750560787185888500,5.128888427734375,-0.13875499367713928,-0.11290799826383591,0.11715400218963623
1750560787195493000,5.1384931640625,0.016357000917196274,0.05447499826550484,-0.22762499749660492
1750560787205098000,5.148097900390625,0.20429199934005737,0.13999100029468536,-0.41611599922180176
1750560787214702600,5.15770263671875,0.35562199354171753,0.20689800381660461,-0.42034900188446045
1750560787224307500,5.167307373046875,0.30483800172805786,0.06521499902009964,-0.1367100030183792
1750560787243516700,5.1865166015625,0.2771170139312744,-0.1511410027742386,0.43433699011802673
1750560787253121500,5.19612158203125,0.17587800323963165,-0.2083600014448166,0.49059098958969116
1750560787262726100,5.20572607421875,-0.0003279999946244061,-0.1519940048456192,0.4484800100326538
1750560787272331000,5.2153310546875,-0.24318400025367737,-0.03645800054073334,0.21459700167179108
1750560787281935600,5.224935546875,-0.21532699465751648,-0.00582600012421608,0.07161899656057358
1750560787291540500,5.23454052734375,-0.17655600607395172,-0.07258199900388718,0.08573800325393677
1750560787301145300,5.244145263671875,-0.07428999990224838,-0.09061899781227112,0.07254000008106232
1750560787310750000,5.25375,0.17865599691867828,-0.0347759984433651,0.1000170037150383
1750560787320354600,5.2633544921875,0.27998799085617065,-0.019533000886440277,-0.013089999556541443
1750560787329959200,5.272959228515625,0.2641110122203827,0.13368700444698334,-0.19932399690151215
1750560787339564000,5.28256396484375,-0.06770800054073334,0.20802000164985657,-0.35189399123191833
1750560787349168600,5.292168701171875,-0.2792940139770508,0.23242799937725067,-0.3207769989967346
1750560787358773500,5.3017734375,-0.2843930125236511,0.0986810028553009,-0.21907900273799896
1750560787368378000,5.311378173828125,-0.1712380051612854,-0.0716089978814125,-0.012028999626636505
1750560787377983000,5.32098291015625,-0.009343000128865242,-0.13917000591754913,0.2626950144767761
1750560787387587800,5.330587890625,0.13138699531555176,-0.21170899271965027,0.3575040102005005
1750560787397192400,5.3401923828125,0.32305198907852173,-0.10887099802494049,0.1737390011548996
1750560787406797000,5.349797119140625,0.5147429704666138,0.08784899860620499,-0.18428899347782135
1750560787416402000,5.35940185546875,0.3985610008239746,0.09132000058889389,-0.4135670065879822
1750560787426006800,5.3690068359375,0.09498299658298492,0.15880799293518066,-0.35736900568008423
1750560787435611100,5.378611083984375,-0.12810899317264557,0.07602299749851227,-0.053739000111818314
1750560787445216000,5.388216064453125,-0.07004900276660919,-0.10725600272417068,0.1949629932641983
1750560787454820900,5.39782080078125,-0.025273000821471214,-0.17161600291728973,0.3064059913158417
1750560787464425500,5.407425537109375,-0.11850100010633469,-0.11960099637508392,0.22842499613761902
1750560787474030300,5.4170302734375,-0.20625199377536774,0.04349600151181221,0.053560998290777206
1750560787483635000,5.426635009765625,-0.3122430145740509,0.08558999747037888,-0.018285999074578285
1750560787493239800,5.43623974609375,-0.22290100157260895,0.030313000082969666,0.0416719987988472
1750560787502844400,5.445844482421875,-0.025475999340415,-0.04244399815797806,0.07885699719190598
1750560787512449300,5.45544921875,0.24222999811172485,-0.06452000141143799,-0.01220100000500679
1750560787522054000,5.465053955078125,0.27415400743484497,-0.021066000685095787,-0.08417599648237228
1750560787531658800,5.47465869140625,0.2001579999923706,0.04021099954843521,-0.07912100106477737
1750560787541263400,5.484263427734375,0.07880999892950058,0.053665999323129654,-0.028714999556541443
1750560787550868200,5.4938681640625,-0.11301899701356888,0.023453999310731888,0.058414001017808914
1750560787560473000,5.50347314453125,-0.36569100618362427,0.011776000261306763,0.1322070062160492
1750560787570077700,5.51307763671875,-0.43583500385284424,0.028491999953985214,0.14478899538516998
1750560787579682300,5.522682373046875,-0.32745400071144104,0.07599300146102905,-0.06753099709749222
1750560787589287200,5.532287109375,0.012128000147640705,0.13683700561523438,-0.27387499809265137
1750560787598891800,5.541891845703125,0.13330300152301788,0.10905200242996216,-0.3198069930076599
1750560787608496400,5.551496337890625,0.26233699917793274,0.0977569967508316,-0.24114200472831726
1750560787618101200,5.561101318359375,0.47588300704956055,0.035725001245737076,-0.09246800094842911
1750560787627706000,5.5707060546875,0.3215569853782654,-0.013931999914348125,0.08319400250911713
1750560787637310700,5.580310791015625,0.00661499984562397,-0.05672900006175041,0.263154000043869
1750560787646915600,5.58991552734375,-0.21563400328159332,-0.11207900196313858,0.35013601183891296
1750560787656520200,5.599520263671875,-0.3979499936103821,-0.14744199812412262,0.2886190116405487
1750560787666124800,5.609124755859375,-0.3706969916820526,-0.0009490000084042549,0.05723699927330017
1750560787675729700,5.618729736328125,-0.07601699978113174,-0.013504999689757824,-0.000022000000171829015
1750560787685334300,5.628334228515625,0.106904998421669,-0.09968499839305878,-0.014883999712765217
1750560787694939000,5.63793896484375,0.265049010515213,-0.060662999749183655,0.029215000569820404
1750560787704543700,5.647543701171875,0.35552000999450684,-0.06869799643754959,0.049584001302719116
1750560787714148400,5.6571484375,0.36169999837875366,-0.09758800268173218,0.0055160000920295715
1750560787723753000,5.6667529296875,0.33419400453567505,-0.09051500260829926,-0.12027499824762344
1750560787733357800,5.67635791015625,0.07395000010728836,-0.003470999887213111,-0.20605599880218506
1750560787742962400,5.68596240234375,-0.247406005859375,-0.009643999859690666,-0.05806500092148781
1750560787752567300,5.6955673828125,-0.3673189878463745,-0.22018200159072876,0.38342100381851196
1750560787762172200,5.705172119140625,-0.35624200105667114,-0.2544330060482025,0.5343779921531677
1750560787771776800,5.71477685546875,-0.12831200659275055,-0.14306199550628662,0.3991039991378784
1750560787781381600,5.724381591796875,0.23500500619411469,-0.09066099673509598,0.11957100033760071
1750560787790986200,5.733986328125,0.508554995059967,0.09430400282144547,-0.31591498851776123
1750560787800590800,5.7435908203125,0.4245150089263916,0.19597600400447845,-0.5158010125160217
1750560787810195700,5.75319580078125,0.31084999442100525,0.2301889955997467,-0.46597498655319214
1750560787819800300,5.76280029296875,0.07767599821090698,0.15825100243091583,-0.2385060042142868
1750560787829405200,5.7724052734375,-0.22176900506019592,0.058715999126434326,0.037167999893426895
1750560787839010000,5.782010009765625,-0.22171999514102936,-0.030691999942064285,0.19118699431419373
1750560787848614700,5.79161474609375,-0.04833799973130226,-0.09781599789857864,0.14713899791240692
1750560787858219300,5.80121923828125,0.035227999091148376,-0.08086799830198288,0.04339800029993057
1750560787867824000,5.81082421875,0.02850699983537197,-0.04594099894165993,-0.044036999344825745
1750560787877429000,5.820428955078125,0.013826999813318253,0.05627100169658661,-0.20295000076293945
1750560787887033600,5.83003369140625,0.10638599842786789,0.1822589933872223,-0.35805198550224304
1750560787896638200,5.83963818359375,0.13205699622631073,0.21735799312591553,-0.34295499324798584
1750560787906242800,5.849242919921875,0.053015999495983124,0.19527600705623627,-0.20135000348091125
1750560787915847700,5.85884765625,-0.1611189991235733,0.08677700161933899,-0.015709999948740005
1750560787925452300,5.868452392578125,-0.4670490026473999,0.08565700054168701,0.12001600116491318
1750560787935057200,5.87805712890625,-0.5703189969062805,0.05466800183057785,0.16671499609947205
1750560787944661800,5.887661865234375,-0.5328260064125061,0.13851800560951233,0.04580400139093399
1750560787954266600,5.8972666015625,-0.37423598766326904,0.20549100637435913,-0.07326000183820724
1750560787963871500,5.90687158203125,-0.04780999943614006,0.17990200221538544,-0.13282600045204163
1750560787973476000,5.91647607421875,0.3227989971637726,0.13497500121593475,-0.2665860056877136
1750560787983080700,5.926080810546875,0.6694269776344299,0.05577100068330765,-0.2644050121307373
1750560787992685600,5.935685546875,0.7722709774971008,-0.0714149996638298,-0.14897899329662323
1750560788002290200,5.945290283203125,0.595878005027771,-0.11473699659109116,-0.09603799879550934
1750560788011895000,5.95489501953125,0.3269580006599426,-0.033410001546144485,-0.10717999935150146
1750560788021499600,5.964499755859375,0.13258199393749237,0.08391500264406204,-0.1886560022830963
1750560788031104500,5.9741044921875,-0.056898001581430435,0.09644000232219696,-0.06807199865579605
1750560788040709400,5.98370947265625,-0.12301599979400635,0.019801000133156776,0.17114700376987457
1750560788050314000,5.99331396484375,-0.08389899879693985,-0.05892200022935867,0.29928699135780334
1750560788059918800,6.0029189453125,0.08139800280332565,-0.1805039942264557,0.3414910137653351
1750560788069523500,6.0125234375,0.09324300289154053,-0.1636119931936264,0.18334099650382996
1750560788079128000,6.022128173828125,0.12664900720119476,-0.010870000347495079,-0.0868849977850914
1750560788088733000,6.03173291015625,0.07340499758720398,0.1300950050354004,-0.2670150101184845
1750560788098337500,6.041337646484375,-0.016194000840187073,0.1858389973640442,-0.23114800453186035
1750560788107942400,6.0509423828125,-0.19960899651050568,0.164000004529953,-0.07592500001192093
1750560788117547000,6.060547119140625,-0.24659700691699982,0.04965699836611748,0.18547600507736206
1750560788127151900,6.07015185546875,-0.12844499945640564,-0.09075400233268738,0.4011789858341217
1750560788136756500,6.079756591796875,0.09184599667787552,-0.13529999554157257,0.38928699493408203
1750560788146361000,6.089361083984375,0.25811299681663513,-0.06256300210952759,0.13893799483776093
1750560788155966000,6.098966064453125,0.2861579954624176,0.09465999901294708,-0.14785799384117126
1750560788165570600,6.108570556640625,-0.003131000092253089,0.2417210042476654,-0.20918700098991394
1750560788175175400,6.118175537109375,-0.25668999552726746,0.28473100066185,-0.16213999688625336
1750560788184780000,6.127780029296875,-0.3147220015525818,0.30992698669433594,-0.14865900576114655
1750560788194385000,6.137385009765625,-0.07686799764633179,0.23014000058174133,-0.15717700123786926
1750560788203989500,6.146989501953125,0.17624899744987488,0.11264500021934509,-0.15521900355815887
1750560788213594400,6.156594482421875,0.3250750005245209,0.015343000181019306,-0.04405499994754791
1750560788223199200,6.16619921875,0.24489200115203857,-0.12783999741077423,0.11220599710941315
1750560788232803800,6.175803955078125,-0.00035200000274926424,-0.14346499741077423,0.1459680050611496
1750560788242408400,6.185408447265625,-0.032784998416900635,-0.01756099984049797,0.058876000344753265
1750560788252013300,6.195013427734375,0.12011799961328506,0.049359001219272614,-0.08221200108528137
1750560788261618000,6.204617919921875,0.4534029960632324,0.03584200143814087,-0.05927399918437004
1750560788271222800,6.214222900390625,0.5017920136451721,-0.08532000333070755,0.04781600087881088
1750560788280827600,6.22382763671875,0.2382189929485321,-0.13547399640083313,0.14905600249767303
1750560788290432500,6.2334326171875,-0.10082100331783295,-0.05189000070095062,0.1081480011343956
1750560788300037000,6.243037109375,-0.31084200739860535,0.015429000370204449,0.01560600008815527
1750560788309641700,6.252641845703125,-0.31215399503707886,0.02978299930691719,0.05156100168824196
1750560788319246300,6.262246337890625,-0.285643994808197,0.021310999989509583,0.15046000480651855
1750560788328851200,6.271851318359375,-0.1365160048007965,-0.021345999091863632,0.2260729968547821
1750560788338455800,6.281455810546875,-0.08072499930858612,-0.09554000198841095,0.20018500089645386
1750560788348060700,6.291060791015625,0.009630000218749046,-0.15933699905872345,0.18158599734306335
1750560788357665300,6.300665283203125,-0.07757700234651566,-0.12215500324964523,0.16948500275611877
1750560788367270000,6.310269775390625,-0.23405900597572327,-0.053915999829769135,0.06029900163412094
1750560788376874800,6.319874755859375,-0.19918300211429596,-0.050276000052690506,0.10153999924659729
1750560788386479400,6.329479248046875,-0.1759520024061203,0.005249000154435635,-0.03642300143837929
1750560788396084200,6.339084228515625,0.020911000669002533,0.07284100353717804,-0.20140700042247772
1750560788405689000,6.348689208984375,0.3262229859828949,0.18118299543857574,-0.6683409810066223
1750560788415293700,6.358293701171875,0.33215799927711487,0.306335985660553,-0.8681300282478333
1750560788424898300,6.367898193359375,-0.0713379979133606,0.2921519875526428,-0.7045009732246399
1750560788434503200,6.377503173828125,-0.3806700110435486,0.2599180042743683,-0.3797749876976013
1750560788444107800,6.387107666015625,-0.31158000230789185,0.29468199610710144,-0.5079820156097412
1750560788453712600,6.396712646484375,0.5610060095787048,0.7911620140075684,-1.4726699590682983
1750560788463317200,6.406317138671875,1.2008110284805298,1.1786439418792725,-2.6632308959960938
1750560788472922000,6.415922119140625,1.2204829454421997,2.125087022781372,-5.480792999267578
1750560788482526700,6.425526611328125,0.0866599977016449,3.6067121028900146,-8.58925724029541
1750560788492131600,6.435131591796875,-1.919985055923462,3.8231089115142822,-9.698195457458496
1750560788501736400,6.444736328125,-3.070065975189209,3.390700101852417,-9.77299690246582
1750560788511341000,6.454341064453125,-2.1754679679870605,2.257776975631714,-8.490936279296875
1750560788520945700,6.463945556640625,-1.1145470142364502,0.9886339902877808,-6.822608947753906
1750560788530550500,6.473550537109375,-0.42132100462913513,-0.7233679890632629,-4.118416786193848
1750560788540155100,6.483155029296875,-0.5934320092201233,-1.8504680395126343,-2.1355700492858887
1750560788549759700,6.492759765625,-1.191851019859314,-2.0339479446411133,-0.5581200122833252
1750560788559364600,6.502364501953125,-1.629480004310608,-2.4294240474700928,0.2222529947757721
1750560788568969200,6.51196923828125,-1.2386000156402588,-2.502012014389038,2.3077220916748047
1750560788578573800,6.52157373046875,-0.07081899791955948,-2.885565996170044,4.689111232757568
1750560788588179000,6.531178955078125,2.1672160625457764,-3.337846040725708,6.785178184509277
1750560788597783600,6.540783447265625,4.34549617767334,-3.8471949100494385,7.269476890563965
1750560788607388400,6.550388427734375,4.791135787963867,-3.7622249126434326,6.5769500732421875
1750560788616993000,6.559992919921875,3.313401937484741,-3.222269058227539,5.215126037597656
1750560788626598000,6.569597900390625,0.887785017490387,-2.4900119304656982,3.441725969314575
1750560788636202500,6.579202392578125,-0.24789300560951233,-1.8143119812011719,1.4567869901657104
1750560788645807000,6.58880712890625,-0.29831498861312866,-1.2820310592651367,0.27369800209999084
1750560788655412000,6.598411865234375,0.5630970001220703,-1.157701015472412,0.12043599784374237
1750560788665016600,6.6080166015625,1.46880304813385,-1.3886040449142456,0.9876980185508728
1750560788674621200,6.61762109375,1.728389024734497,-1.730666995048523,2.3562750816345215
1750560788684226000,6.62722607421875,1.8652139902114868,-2.17049503326416,3.7944509983062744
1750560788693831000,6.636830810546875,1.8003230094909668,-2.454817056655884,4.882037162780762
1750560788703435500,6.646435546875,1.4559910297393799,-2.563709020614624,5.386573791503906
1750560788713040400,6.656040283203125,0.9617030024528503,-2.638169050216675,5.701888084411621
1750560788722645200,6.665645263671875,0.4127509891986847,-2.634036064147949,5.640330791473389
1750560788732249900,6.675249755859375,0.4807310104370117,-2.3320529460906982,4.829217910766602
1750560788741854500,6.6848544921875,1.270246982574463,-2.7193078994750977,4.356630802154541
1750560788751459300,6.694459228515625,1.8707760572433472,-3.285011053085327,4.535159111022949
1750560788761064000,6.70406396484375,1.430145025253296,-3.1820309162139893,4.329471111297607
1750560788770668800,6.713668701171875,0.4893450140953064,-2.7538540363311768,2.890826940536499
1750560788780273400,6.7232734375,-0.38607698678970337,-2.509653091430664,1.258834958076477
1750560788789878300,6.732878173828125,-1.5447319746017456,-2.050539016723633,-1.9763699769973755
1750560788799483100,6.742483154296875,-2.480233907699585,0.2459149956703186,-5.4527411460876465
1750560788809087700,6.752087646484375,-1.8699289560317993,1.9035160541534424,-6.520932197570801
1750560788818692400,6.7616923828125,-0.1252959966659546,2.1618919372558594,-5.911965847015381
1750560788828297000,6.771296875,2.4201040267944336,1.393710970878601,-3.8649630546569824
1750560788837902000,6.780902099609375,3.672722101211548,0.20778100192546844,-1.443176031112671
1750560788847506700,6.790506591796875,3.476080894470215,-0.5987730026245117,0.7418509721755981
1750560788857111600,6.800111572265625,2.6181070804595947,-1.1753560304641724,2.004939079284668
1750560788866716200,6.809716064453125,2.0029170513153076,-1.204118013381958,1.1791690587997437
1750560788876320800,6.81932080078125,1.0097140073776245,-0.637162983417511,-1.2506450414657593
1750560788885925600,6.828925537109375,-0.7561249732971191,0.9898470044136047,-4.2508931159973145
1750560788895530200,6.8385302734375,-2.0017271041870117,2.6338279247283936,-5.8487420082092285
1750560788905135000,6.848135009765625,-2.242655038833618,2.8392319679260254,-5.2949042320251465
1750560788914739700,6.85773974609375,-1.232030987739563,1.9482539892196655,-3.422705888748169
1750560788924344300,6.86734423828125,-0.7823920249938965,0.978065013885498,-1.42991304397583
1750560788933949400,6.876949462890625,-0.5391479730606079,0.4494580030441284,-0.14153599739074707
1750560788943554000,6.886553955078125,-0.5075029730796814,0.12523800134658813,0.5536149740219116
1750560788953159000,6.896158935546875,-0.7914980053901672,-0.03674200177192688,0.6877260208129883
1750560788962763500,6.905763427734375,-0.8133299946784973,0.047586001455783844,0.5532900094985962
1750560788972368100,6.9153681640625,-0.31366100907325745,0.3427770137786865,-0.3936229944229126
1750560788981973000,6.924972900390625,0.5602110028266907,0.6858879923820496,-1.6580870151519775
1750560788991577600,6.93457763671875,0.4740450084209442,1.0538220405578613,-2.821476936340332
1750560789001182200,6.94418212890625,0.2595359981060028,1.1550229787826538,-2.609419107437134
1750560789010787000,6.953787109375,-0.23751699924468994,0.536628007888794,-1.2762540578842163
1750560789020391700,6.9633916015625,-0.8597829937934875,0.1524360030889511,-0.2151319980621338
1750560789029996500,6.97299658203125,-1.0321760177612305,-0.10303500294685364,0.4518109858036041
1750560789039601400,6.982601318359375,-0.7974780201911926,-0.1985750049352646,0.49220800399780273
1750560789049206000,6.9922060546875,-0.5907430052757263,0.020274000242352486,0.05241600051522255
1750560789058811000,7.001810791015625,-0.2853800058364868,0.06503599882125854,-0.42463698983192444
1750560789068415500,7.01141552734375,0.0693650022149086,0.17673799395561218,-0.8441359996795654
1750560789078020400,7.021020263671875,0.3464230000972748,0.21275299787521362,-0.8515070080757141
1750560789087625000,7.030625,0.42752400040626526,0.13111700117588043,-0.6051250100135803
1750560789097229800,7.040229736328125,0.17481599748134613,-0.12894800305366516,-0.11365900188684464
1750560789106834400,7.04983447265625,-0.16484899818897247,-0.09308700263500214,0.11829599738121033
1750560789116439300,7.059439208984375,-0.43774300813674927,-0.1424649953842163,0.27198898792266846
1750560789126044000,7.0690439453125,-0.583076000213623,-0.0865740031003952,0.18077899515628815
1750560789135648800,7.078648681640625,-0.2773520052433014,-0.17110399901866913,0.3075309991836548
1750560789145253400,7.08825341796875,0.2838050127029419,-0.3527030050754547,0.5724239945411682
1750560789154858200,7.097858154296875,0.41535601019859314,-0.39971399307250977,0.5644950270652771
1750560789164462800,7.107462890625,0.4556170105934143,-0.2354689985513687,0.20122699439525604
1750560789174067700,7.117067626953125,0.5026519894599915,0.022847000509500504,-0.2587069869041443
1750560789183672300,7.12667236328125,0.05256500095129013,0.02487199939787388,-0.20872800052165985
1750560789193277000,7.13627685546875,-0.3098280131816864,0.011704999953508377,0.09793800115585327
1750560789202881800,7.1458818359375,-0.14562100172042847,-0.18831700086593628,0.47524499893188477
1750560789212486400,7.155486328125,0.18743599951267242,-0.35661599040031433,0.7947090268135071
1750560789222091500,7.165091552734375,0.29357901215553284,-0.3432770073413849,0.8066869974136353
1750560789231696100,7.174696044921875,0.30638599395751953,-0.15032200515270233,0.4491730034351349
1750560789241300700,7.18430078125,0.31617701053619385,0.01421399973332882,0.07667099684476852
1750560789250905600,7.193905517578125,0.2109369933605194,0.07366999983787537,-0.0510299988090992
1750560789260510200,7.20351025390625,-0.0665540024638176,0.09039100259542465,-0.1576399952173233
1750560789270114800,7.21311474609375,0.12467899918556213,0.0692949965596199,-0.11486700177192688
1750560789279719700,7.2227197265625,0.4669150114059448,-0.16812999546527863,0.27417099475860596
1750560789289324500,7.232324462890625,0.2610270082950592,-0.33833399415016174,0.4527139961719513
1750560789298929400,7.241929443359375,0.08258199691772461,-0.15209899842739105,0.34929201006889343
1750560789308534000,7.251533935546875,-0.07680399715900421,0.058327000588178635,0.08914399892091751
1750560789318138600,7.261138671875,-0.2979300022125244,0.17753200232982635,0.0763619989156723
1750560789327743500,7.270743408203125,-0.41950100660324097,0.09733700007200241,0.39495399594306946
1750560789337348400,7.280348388671875,-0.1839749962091446,0.10978200286626816,0.3402230143547058
1750560789346953000,7.289952880859375,0.3096739947795868,0.02089099958539009,0.29241400957107544
1750560789356557600,7.2995576171875,0.38065001368522644,-0.1844799965620041,0.2588900029659271
1750560789366162200,7.309162109375,0.12612199783325195,-0.18130099773406982,0.17995800077915192
1750560789375767300,7.318767333984375,0.02782600000500679,-0.03730899840593338,0.03429900109767914
1750560789385372000,7.328371826171875,-0.23692700266838074,0.2233860045671463,-0.07683700323104858
1750560789394976500,7.3379765625,-0.48284101486206055,0.30300799012184143,-0.18687300384044647
1750560789404581400,7.347581298828125,-0.10693400353193283,0.23897400498390198,-0.1503240019083023
1750560789414186000,7.35718603515625,0.19136999547481537,-0.17197200655937195,0.12953899800777435
1750560789423790800,7.366790771484375,0.11058700084686279,-0.36834800243377686,0.4471589922904968
1750560789433395500,7.3763955078125,-0.04511300101876259,-0.35259199142456055,0.3961249887943268
1750560789443000000,7.386,0.09082700312137604,-0.14122700691223145,-0.01697699911892414
1750560789452605000,7.39560498046875,0.00878200028091669,-0.007329999934881926,-0.29175299406051636
1750560789462209800,7.405209716796875,-0.10228399932384491,0.12187100201845169,-0.3825010061264038
1750560789471814700,7.414814697265625,0.016488999128341675,-0.019308999180793762,-0.15903499722480774
1750560789481419300,7.424419189453125,0.22064000368118286,-0.1524920016527176,0.04837099835276604
1750560789491024000,7.43402392578125,0.30688101053237915,-0.18703199923038483,0.08613599836826324
1750560789500628700,7.443628662109375,0.2745630145072937,-0.07456199824810028,-0.11062200367450714
1750560789510233300,7.4532333984375,0.057808998972177505,0.09078700095415115,-0.26948198676109314
1750560789519838200,7.462838134765625,-0.20893900096416473,0.12244299799203873,-0.23625700175762177
1750560789529442800,7.47244287109375,-0.2061610072851181,0.22733399271965027,-0.21408900618553162
1750560789539047700,7.482047607421875,0.15167899429798126,0.20202399790287018,-0.12236200273036957
1750560789548652300,7.49165234375,0.5519279837608337,0.04281799867749214,-0.09376999735832214
1750560789558257400,7.50125732421875,0.7062479853630066,-0.043136999011039734,-0.14065900444984436
1750560789567861800,7.51086181640625,0.3267099857330322,-0.028063999488949776,-0.12622399628162384
1750560789577466600,7.520466552734375,-0.1775979995727539,-0.0023350000847131014,-0.009367999620735645
1750560789587071500,7.530071533203125,-0.37506699562072754,0.0115769999101758,0.10840599983930588
1750560789596676000,7.539676025390625,-0.4019399881362915,-0.01803000085055828,0.21026299893856049
1750560789606280700,7.54928076171875,-0.24960699677467346,-0.035482000559568405,0.2483379989862442
1750560789615885600,7.558885498046875,-0.05001100152730942,-0.0025730000343173742,0.1270820051431656
1750560789625490200,7.568490234375,0.053762998431921005,0.024858999997377396,-0.13598200678825378
1750560789635094800,7.5780947265625,-0.19179199635982513,0.09063900262117386,-0.24495099484920502
1750560789644699600,7.58769970703125,-0.6132649779319763,0.23517300188541412,-0.2451380044221878
1750560789654304500,7.597304443359375,-0.8143029808998108,0.29892900586128235,-0.21502499282360077
1750560789663909400,7.606909423828125,-0.5567799806594849,0.33238500356674194,-0.15813100337982178
1750560789673514000,7.616513916015625,0.020269999280571938,0.21978700160980225,-0.02512500062584877
1750560789683118600,7.62611865234375,0.6331549882888794,0.014821000397205353,0.12166599929332733
1750560789692723500,7.635723388671875,0.7486370205879211,-0.24602200090885162,0.20597200095653534
1750560789702328000,7.645328125,0.6360960006713867,-0.252018004655838,0.17355599999427795
1750560789711933000,7.654932861328125,0.36444801092147827,-0.18457099795341492,0.02354699932038784
1750560789721537500,7.66453759765625,0.1349170058965683,-0.07519599795341492,-0.12766499817371368
1750560789731142400,7.674142333984375,-0.056067001074552536,0.06057000160217285,-0.1384509950876236
1750560789740747300,7.683747314453125,-0.09043899923563004,0.07834099978208542,-0.010371999815106392
1750560789750352000,7.693351806640625,0.11669600009918213,-0.01635199971497059,0.08181600272655487
1750560789759956700,7.702956787109375,0.2691580057144165,-0.1165509968996048,0.09533700346946716
1750560789769561300,7.712561279296875,0.2659899890422821,-0.06352899968624115,0.028756000101566315
1750560789779166000,7.722166015625,0.1228019967675209,-0.033132001757621765,-0.061918001621961594
1750560789788770800,7.731770751953125,-0.16757699847221375,-0.01080000028014183,-0.05870300158858299
1750560789798375400,7.74137548828125,-0.24455000460147858,0.037905000150203705,0.00916799996048212
1750560789807980300,7.750980224609375,-0.14337599277496338,0.054471999406814575,0.019607000052928925
1750560789817585200,7.760585205078125,0.09452799707651138,-0.0038159999530762434,0.06441400200128555
1750560789827190000,7.77018994140625,0.1505260020494461,-0.07193800061941147,0.06685099750757217
1750560789836794400,7.77979443359375,0.027365000918507576,-0.0780939981341362,0.06435099989175797
1750560789846399200,7.789399169921875,-0.14572900533676147,-0.08436500281095505,0.06352800130844116
1750560789856004000,7.799004150390625,-0.33333900570869446,-0.06149600073695183,0.05168600007891655
1750560789865608700,7.808608642578125,-0.4416530132293701,0.009232999756932259,0.06801799684762955
1750560789875213300,7.81821337890625,-0.3915889859199524,0.07245899736881256,0.09862399846315384
1750560789884818200,7.827818115234375,-0.07728700339794159,0.048190999776124954,0.16077899932861328
1750560789894422800,7.8374228515625,0.3185720145702362,0.020510999485850334,0.0798339992761612
1750560789904027600,7.847027587890625,0.4996989965438843,0.032225001603364944,-0.06847299635410309
1750560789913632300,7.85663232421875,0.26302799582481384,0.10998699814081192,-0.22611400485038757
1750560789923237000,7.866237060546875,-0.13260899484157562,0.18455199897289276,-0.3130050003528595
1750560789932842000,7.875842041015625,-0.40539300441741943,0.3188900053501129,-0.3439269959926605
1750560789942446600,7.885446533203125,-0.3960169851779938,0.300601989030838,-0.2790600061416626
1750560789952051500,7.895051513671875,-0.14621500670909882,0.24497100710868835,-0.16676999628543854
1750560789961656000,7.904656005859375,0.22779600322246552,0.10978200286626816,-0.15275299549102783
1750560789971260700,7.9142607421875,0.5179629921913147,-0.05474400147795677,-0.1345839947462082
1750560789980865500,7.923865478515625,0.5567010045051575,-0.22647599875926971,-0.06563899666070938
1750560789990470400,7.933470458984375,0.42401599884033203,-0.15931400656700134,-0.0877939984202385
1750560790000075000,7.943074951171875,0.13599899411201477,-0.048757001757621765,-0.08834700286388397
1750560790009680000,7.952679931640625,-0.020989999175071716,-0.025753000751137733,0.029882999137043953
1750560790019284500,7.962284423828125,0.10748499631881714,-0.05839399993419647,0.18175800144672394
1750560790028889300,7.971889404296875,0.29388898611068726,-0.11085200309753418,0.16676999628543854
1750560790038494000,7.981493896484375,0.27761000394821167,-0.11146599799394608,0.10841900110244751
1750560790048098800,7.991098876953125,0.020932000130414963,-0.09160599857568741,0.151761993765831
1750560790057703400,8.000703369140625,-0.3004570007324219,-0.054377999156713486,0.20760299265384674
1750560790067308300,8.010308349609375,-0.5209550261497498,0.05717200040817261,0.1602330058813095
1750560790076913000,8.019912841796875,-0.5686650276184082,0.12062399834394455,0.11177200078964233
1750560790086517800,8.029517822265625,-0.4513300061225891,0.09311400353908539,0.15564599633216858
1750560790096122600,8.03912255859375,-0.1480329930782318,0.0058639999479055405,0.1746470034122467
1750560790105727200,8.048727294921875,0.10739800333976746,-0.07257699966430664,0.148840993642807
1750560790115332000,8.05833203125,0.2105029970407486,-0.07090499997138977,0.03382600098848343
1750560790124936700,8.067936767578125,0.11588399857282639,0.003978000022470951,-0.14334599673748016
1750560790134541300,8.077541259765624,-0.09918999671936035,0.10628899931907654,-0.2679379880428314
1750560790144146200,8.087146240234375,-0.23261800408363342,0.175136998295784,-0.2896200120449066
1750560790153750800,8.096750732421874,-0.15691499412059784,0.19771499931812286,-0.1766580045223236
1750560790163355400,8.10635546875,-0.018299000337719917,0.09015599638223648,-0.004075999837368727
1750560790172960500,8.11596044921875,0.22875599563121796,0.09644799679517746,0.0354899987578392
1750560790182565400,8.1255654296875,0.3270849883556366,0.10040900111198425,-0.08623500168323517
1750560790192170000,8.135169921875,0.3843129873275757,0.10480400174856186,-0.11043400317430496
1750560790201774600,8.144774658203126,0.2576810121536255,0.14495499432086945,-0.14969000220298767
1750560790211379500,8.15437939453125,0.1238119974732399,0.16633500158786774,-0.16766199469566345
1750560790220984000,8.163984130859374,0.0838100016117096,0.09627100080251694,-0.09400100260972977
1750560790230588700,8.173588623046875,-0.025614000856876373,0.13163399696350098,-0.0647829994559288
1750560790240193500,8.183193603515624,-0.054322000592947006,0.09346800297498703,-0.006211999803781509
1750560790249798400,8.19279833984375,0.07924400269985199,-0.01873300038278103,0.10633199661970139
1750560790259403000,8.202403076171874,0.08846300095319748,-0.07611099630594254,0.13476400077342987
1750560790269008000,8.2120078125,0.01845400035381317,-0.11157000064849854,0.22400900721549988
1750560790278612500,8.221612548828125,-0.1731799989938736,-0.03941499814391136,0.175245001912117
1750560790288217300,8.23121728515625,-0.24193300306797028,-0.0037879999727010727,0.09179200232028961
1750560790297822000,8.240822021484375,0.10133299976587296,0.0695049986243248,0.01181000005453825
1750560790307426800,8.2504267578125,0.43209901452064514,-0.012916999869048595,0.01947999931871891
1750560790317031400,8.260031494140625,0.4592460095882416,-0.10308100283145905,0.001446999958716333
1750560790326636000,8.269635986328124,0.27737098932266235,-0.0652879998087883,0.045201998203992844
1750560790336241000,8.279240966796875,-0.12155900150537491,-0.07562299817800522,0.10293299704790115
1750560790345845800,8.288845703125,-0.4611389935016632,-0.1303810030221939,0.24590499699115753
1750560790355450400,8.298450439453125,-0.49074599146842957,-0.08306100219488144,0.2936750054359436
1750560790365055200,8.30805517578125,-0.30719900131225586,-0.028877999633550644,0.26962199807167053
1750560790374659800,8.317659912109375,0.15512900054454803,-0.019773999229073524,0.1150360032916069
1750560790384264700,8.3272646484375,0.5292699933052063,-0.026122000068426132,-0.0033539999276399612
1750560790393869300,8.336869384765626,0.4153690040111542,-0.04229800030589104,-0.10660900175571442
1750560790403474200,8.34647412109375,0.25150200724601746,-0.039278000593185425,-0.1232680007815361
1750560790413078800,8.356078857421876,-0.12471099942922592,-0.10848899930715561,-0.12313900142908096
1750560790422683400,8.365683349609375,-0.41993600130081177,0.10100600123405457,-0.18877600133419037
1750560790432288300,8.375288330078124,-0.304282009601593,0.2061150074005127,-0.139382004737854
1750560790441893000,8.38489306640625,-0.1267700046300888,0.10786700248718262,0.060965001583099365
1750560790451498000,8.394498046875,0.11193600296974182,0.05116700008511543,0.2458840012550354
1750560790461102600,8.4041025390625,0.2751469910144806,0.048140998929739,0.1348540037870407
1750560790470707200,8.413707275390625,0.4125640094280243,0.12340900301933289,-0.10446400195360184
1750560790480312000,8.42331201171875,0.34513500332832336,0.13077500462532043,-0.16685399413108826
1750560790489916700,8.432916748046875,0.09447800368070602,0.12542200088500977,0.01593800075352192
1750560790499521500,8.442521484375,-0.11747000366449356,0.024150000885128975,0.21332299709320068
1750560790509126400,8.45212646484375,-0.010134999640285969,-0.10227199643850327,0.23469500243663788
1750560790518731000,8.46173095703125,0.13811400532722473,-0.06883099675178528,0.14874500036239624
1750560790528335600,8.471335693359375,0.23982299864292145,-0.06552600115537643,0.09431199729442596
1750560790537940500,8.4809404296875,0.3044640123844147,-0.037147000432014465,0.008248000405728817
1750560790547545300,8.49054541015625,0.2908320128917694,0.13169699907302856,-0.24489200115203857
1750560790557150000,8.50014990234375,0.546459972858429,0.44281500577926636,-0.7134940028190613
1750560790566754800,8.5097548828125,1.044145941734314,0.6971349716186523,-1.198009967803955
1750560790576359400,8.519359375,1.4041249752044678,0.7925930023193359,-1.7380039691925049
1750560790585964300,8.52896435546875,1.5987720489501953,1.2789549827575684,-2.6939609050750732
1750560790595569000,8.53856884765625,1.0973010063171387,1.449483036994934,-3.752859115600586
1750560790605173500,8.548173583984376,-0.3768160045146942,2.371035099029541,-6.371368885040283
1750560790614778600,8.557778564453125,-1.7574410438537598,3.3893771171569824,-8.195587158203125
1750560790624383200,8.56738330078125,-2.8981940746307373,3.421804904937744,-10.373981475830078
1750560790633987800,8.57698779296875,-2.4140501022338867,3.92472505569458,-12.110239028930664
1750560790643592700,8.5865927734375,-0.2920979857444763,2.1778221130371094,-10.036060333251953
1750560790653197300,8.596197265625,2.1167678833007812,-0.38088101148605347,-5.515642166137695
1750560790662802200,8.60580224609375,3.8768320083618164,-2.223242998123169,-0.8970419764518738
1750560790672406800,8.61540673828125,4.513588905334473,-3.409550905227661,2.4878640174865723
1750560790682011600,8.62501171875,3.22248911857605,-3.7775790691375732,5.152379035949707
1750560790691616500,8.634616455078126,0.11747799813747406,-3.836030960083008,7.215419769287109
1750560790701221000,8.64422119140625,-2.69519305229187,-3.697312116622925,7.200932025909424
1750560790710826000,8.653825927734376,-4.144877910614014,-2.608146905899048,4.805574893951416
1750560790720430600,8.6634306640625,-3.6821930408477783,-0.7142360210418701,2.8888258934020996
1750560790730035500,8.673035400390624,-2.211458921432495,-0.6806319952011108,2.0957999229431152
1750560790739640000,8.68264013671875,-0.9378520250320435,-1.450124979019165,2.162574052810669
1750560790749244700,8.69224462890625,0.4821780025959015,-1.9351129531860352,2.519273042678833
1750560790758849500,8.701849609375,1.709136962890625,-2.019735097885132,2.739758014678955
1750560790768454400,8.711454345703125,1.9100359678268433,-2.071964979171753,3.2509379386901855
1750560790778059000,8.72105908203125,1.502634048461914,-2.084481954574585,4.011175155639648
1750560790787664000,8.730663818359375,1.4534059762954712,-2.2187540531158447,4.594738006591797
1750560790797268700,8.740268798828126,0.9931790232658386,-2.5386979579925537,4.622859001159668
1750560790806873300,8.749873291015625,0.4130930006504059,-2.678175926208496,4.131820201873779
1750560790816478000,8.75947802734375,0.15564200282096863,-2.867711067199707,3.881753921508789
1750560790826082800,8.769082763671875,-0.06148099899291992,-2.626336097717285,3.6838090419769287
1750560790835687400,8.7786875,-0.44367000460624695,-2.1668639183044434,3.236259937286377
1750560790845292300,8.788292236328125,-0.7893750071525574,-2.4032928943634033,3.0972790718078613
1750560790854897000,8.79789697265625,-0.9950309991836548,-2.5334699153900146,1.770400047302246
1750560790864501800,8.807501708984375,-0.6769989728927612,-2.1045820713043213,-0.04641899839043617
1750560790874106600,8.817106689453125,0.2907019853591919,-2.1837849617004395,-2.2814059257507324
1750560790883711200,8.826711181640626,2.0975921154022217,-0.7951120138168335,-6.377669811248779
1750560790893315800,8.83631591796875,4.380281925201416,1.3506120443344116,-8.824101448059082
1750560790902920700,8.845920654296876,5.173276901245117,1.322659969329834,-7.639802932739258
1750560790912525300,8.855525390625,4.259710788726807,0.23386600613594055,-4.653363227844238
1750560790922130200,8.865130126953124,3.1278140544891357,-0.18973100185394287,-2.6020851135253906
1750560790931734800,8.87473486328125,2.6918349266052246,0.09212899953126907,-2.448296070098877
1750560790941339600,8.884339599609374,2.061811923980713,0.13058899343013763,-2.604896068572998
1750560790950944300,8.8939443359375,0.8369029760360718,-0.008861999958753586,-2.0373899936676025
1750560790960549400,8.90354931640625,-0.3674589991569519,0.14580899477005005,-2.1692850589752197
1750560790970154000,8.913154052734376,-1.3490229845046997,0.8413010239601135,-2.9282350540161133
1750560790979758600,8.922758544921875,-1.639454960823059,1.3921769857406616,-3.815462112426758
1750560790989363500,8.932363525390626,-0.4207780063152313,1.9391039609909058,-4.485998153686523
1750560790998968000,8.941968017578125,0.9680230021476746,1.515220046043396,-4.011735916137695
1750560791008572700,8.95157275390625,1.5379860401153564,0.973380982875824,-3.112844944000244
1750560791018177500,8.961177490234375,1.3939510583877563,0.573993980884552,-1.9876610040664673
1750560791027782100,8.9707822265625,0.8518120050430298,0.14057500660419464,-0.9967359900474548
1750560791037387000,8.980386962890625,0.3695879876613617,0.019101999700069427,-0.763496994972229
1750560791046992000,8.989991943359374,0.1464110016822815,0.012078999541699886,-0.8498610258102417
1750560791056596500,8.999596435546875,-0.10679800063371658,0.14629100263118744,-1.1650869846343994
1750560791066201300,9.009201416015625,-0.1850470006465912,0.39970600605010986,-1.672008991241455
1750560791075806200,9.01880615234375,-0.14383399486541748,0.5229809880256653,-2.180147886276245
1750560791085410800,9.028410888671875,-0.580249011516571,0.567933976650238,-2.231796979904175
1750560791095015400,9.038015380859376,-0.9610739946365356,0.5046690106391907,-1.892259955406189
1750560791104620000,9.0476201171875,-1.0555729866027832,0.30472201108932495,-1.3081159591674805
1750560791114225000,9.057224853515624,-0.8834490180015564,0.02781200036406517,-0.7581909894943237
1750560791123829800,9.066829833984375,-0.6170570254325867,-0.2381020039319992,-0.3348720073699951
1750560791133434400,9.076434326171874,-0.0701809972524643,-0.41129401326179504,-0.14271000027656555
1750560791143039200,9.086039306640625,0.6743810176849365,-0.5042489767074585,-0.28249800205230713
1750560791152644000,9.09564404296875,0.8711040019989014,-0.39114201068878174,-0.7133380174636841
1750560791162248700,9.105248779296875,0.7303150296211243,-0.09491699934005737,-1.1686639785766602
1750560791171853600,9.114853515625,0.25612500309944153,0.044773001223802567,-1.1744290590286255
1750560791181458200,9.124458251953126,-0.279556006193161,-0.08566399663686752,-0.8212000131607056
1750560791191062800,9.134062744140625,-0.5561010241508484,-0.2577979862689972,-0.3304080069065094
1750560791200667600,9.143667724609376,-0.7098420262336731,-0.46107199788093567,0.08734100311994553
1750560791210272500,9.1532724609375,-0.537647008895874,-0.5100470185279846,0.18952099978923798
1750560791219877400,9.16287744140625,-0.10123000293970108,-0.5171589851379395,0.09679999947547913
1750560791229482000,9.17248193359375,0.20919500291347504,-0.484048992395401,-0.024788999930024147
1750560791239086800,9.1820869140625,0.4049699902534485,-0.3584330081939697,-0.23654000461101532
1750560791248691500,9.19169140625,0.465595006942749,-0.13312900066375732,-0.4611560106277466
1750560791258296000,9.201296142578125,0.5411909818649292,-0.12593699991703033,-0.48308199644088745
1750560791267901000,9.21090087890625,0.6541410088539124,-0.23250900208950043,-0.2051820009946823
1750560791277505800,9.220505859375,0.5528860092163086,-0.29887300729751587,0.020072000101208687
1750560791287110400,9.2301103515625,0.28114399313926697,-0.30128300189971924,0.14592500030994415
1750560791296715300,9.23971533203125,0.04361199960112572,-0.16916699707508087,0.156823992729187
1750560791306320000,9.24931982421875,-0.1918250024318695,-0.01663699932396412,0.10981500148773193
1750560791315924700,9.2589248046875,-0.25943100452423096,0.04971799999475479,0.07427600026130676
1750560791325529300,9.268529296875,0.217616006731987,0.10405699908733368,-0.030414000153541565
1750560791335134200,9.27813427734375,0.7392330169677734,0.018624000251293182,-0.04605900123715401
1750560791344738800,9.28773876953125,0.7506570219993591,-0.04766000062227249,-0.04458700120449066
1750560791363948300,9.3069482421875,-0.013044999912381172,0.008684000000357628,0.16553999483585358
1750560791373553200,9.31655322265625,-0.17219899594783783,0.005801999941468239,0.2626650035381317
1750560791383158000,9.326157958984375,-0.041060999035835266,0.07165899872779846,0.34151598811149597
1750560791392762600,9.3357626953125,0.11673499643802643,0.03627999871969223,0.3787569999694824
1750560791402367500,9.345367431640625,0.31748199462890625,-0.04989999905228615,0.375232994556427
1750560791411972000,9.35497216796875,0.3492099940776825,-0.060826998203992844,0.14984500408172607
1750560791421577000,9.364576904296875,0.29704999923706055,0.01687600091099739,-0.04824100062251091
1750560791431181600,9.374181640625,0.20986300706863403,0.04356599971652031,-0.18506699800491333
1750560791440786200,9.3837861328125,0.10909900069236755,0.00025499999173916876,-0.11531899869441986
1750560791450391000,9.39339111328125,0.06094900146126747,-0.0356610007584095,-0.005878000054508448
1750560791459996000,9.402995849609376,0.30527999997138977,-0.029315000399947166,0.023051999509334564
1750560791469600500,9.4126005859375,0.42875099182128906,-0.08195000141859055,0.09352199733257294
1750560791479205400,9.422205322265626,0.41161900758743286,-0.07040999829769135,0.15215399861335754
1750560791488810200,9.431810302734375,0.2823610007762909,-0.07321500033140182,0.1675730049610138
1750560791498414800,9.441414794921876,0.12325000017881393,-0.08411400020122528,0.13904699683189392
1750560791508019500,9.45101953125,-0.09420700371265411,-0.10101500153541565,0.07639600336551666
1750560791517624300,9.460624267578124,-0.35863199830055237,-0.08249299973249435,0.04591599851846695
1750560791527229000,9.47022900390625,-0.4412499964237213,-0.04200800135731697,0.01448300015181303
1750560791536833800,9.479833740234374,-0.23511500656604767,-0.020222000777721405,-0.05969100072979927
1750560791546438700,9.489438720703125,0.1673399955034256,0.02691200003027916,-0.19037699699401855
1750560791556043500,9.49904345703125,0.3433249890804291,0.027140000835061073,-0.2829520106315613
1750560791565648100,9.508648193359376,0.3735649883747101,0.027195999398827553,-0.30460599064826965
1750560791575252700,9.518252685546875,0.22519299387931824,0.007499999832361937,-0.2614760100841522
1750560791584857600,9.527857666015626,-0.06497299671173096,-0.011122000403702259,-0.16652800142765045
1750560791594462200,9.537462158203125,-0.2538740038871765,-0.022835999727249146,-0.03781500086188316
1750560791604066800,9.54706689453125,-0.3222469985485077,0.03915800154209137,0.06716299802064896
1750560791613671700,9.556671630859375,-0.38298800587654114,0.050638001412153244,0.09163500368595123
1750560791623276500,9.566276611328124,-0.3620139956474304,-0.0027970001101493835,0.1671150028705597
1750560791632881200,9.575881103515625,-0.1128769963979721,0.03841099888086319,0.005789999850094318
1750560791642486000,9.585486083984375,0.140406996011734,0.05565100163221359,-0.10521700233221054
1750560791652091000,9.5950908203125,0.10263600200414658,0.014340999536216259,-0.24209800362586975
1750560791661695500,9.604695556640625,0.1985580027103424,0.07863999903202057,-0.3077319860458374
1750560791671300400,9.61430029296875,0.18682000041007996,0.0060640000738203526,-0.208064004778862
1750560791680905000,9.623905029296875,-0.02527100034058094,0.028714999556541443,-0.06351199746131897
1750560791690509600,9.633509521484376,-0.12494199723005295,0.04463500156998634,0.05148300155997276
1750560791700114700,9.64311474609375,0.0434579998254776,0.06046599894762039,0.1209539994597435
1750560791709719300,9.65271923828125,0.2017659991979599,0.02871900051832199,0.12089599668979645
1750560791719324200,9.66232421875,0.243477001786232,-0.0012969999806955457,0.006742000114172697
1750560791728928800,9.6719287109375,0.1033250018954277,0.03362499922513962,-0.17144599556922913
1750560791738533600,9.68153369140625,-0.07826899737119675,0.08420000225305557,-0.2504050135612488
1750560791748138200,9.69113818359375,-0.21702100336551666,0.09213099628686905,-0.22714099287986755
1750560791757743000,9.7007431640625,-0.19009700417518616,0.05127900093793869,-0.03401000052690506
1750560791767347700,9.71034765625,-0.07398500293493271,0.047499001026153564,0.13973399996757507
1750560791776952600,9.71995263671875,0.15975500643253326,-0.06267099827528,0.28088098764419556
1750560791786557200,9.72955712890625,0.386025995016098,-0.13230100274085999,0.345660001039505
1750560791796162000,9.739162109375,0.29682299494743347,-0.15906600654125214,0.30085501074790955
1750560791805767000,9.748766845703125,0.01221499964594841,-0.12853500247001648,0.09593100100755692
1750560791815371500,9.75837158203125,-0.18167699873447418,-0.008542999625205994,-0.07695099711418152
1750560791824976100,9.76797607421875,-0.3043000102043152,0.06201700121164322,-0.20833900570869446
1750560791834581000,9.7775810546875,-0.3755379915237427,0.146123006939888,-0.21059900522232056
1750560791844185600,9.787185546875,-0.24760699272155762,0.1650419980287552,-0.11028899997472763
1750560791853790500,9.79679052734375,0.08473700284957886,0.0673070028424263,-0.02837900072336197
1750560791863395300,9.806395263671876,0.367235004901886,0.01155799999833107,0.013852999545633793
1750560791873000000,9.816,0.4617860019207001,-0.05759600177407265,0.02921999990940094
1750560791882604800,9.825604736328126,0.290585994720459,-0.11699800193309784,0.06977300345897675
1750560791892209400,9.83520947265625,0.09429000318050385,-0.06708399951457977,0.04198800027370453
1750560791901814300,9.844814208984374,0.02007799968123436,0.019089000299572945,0.03647900000214577
1750560791911419000,9.8544189453125,0.06084299832582474,0.04536899924278259,0.07336399704217911
1750560791921023700,9.864023681640624,0.14455099403858185,0.023767000064253807,0.14947399497032166
1750560791930628600,9.873628662109375,0.12160900235176086,-0.05884300172328949,0.19599899649620056
1750560791940233500,9.8832333984375,-0.047770000994205475,-0.05936000123620033,0.1846809983253479
1750560791949838000,9.892838134765626,-0.27904000878334045,-0.04298999905586243,0.10523399710655212
1750560791959443000,9.90244287109375,-0.3508419990539551,-0.020795000717043877,0.021364999935030937
1750560791969047600,9.912047607421876,-0.3065600097179413,-0.04070400074124336,0.029441000893712044
1750560791978652200,9.921652099609375,-0.036152999848127365,-0.01677500084042549,0.05337899923324585
1750560791988257000,9.931257080078124,0.44764000177383423,-0.025234000757336617,0.04548000171780586
1750560791997861600,9.940861572265625,0.756646990776062,-0.0053530000150203705,-0.013233999721705914
1750560792007466500,9.950466552734374,0.6527959704399109,0.016054999083280563,-0.014905000105500221
1750560792017071400,9.9600712890625,0.22288499772548676,-0.021192999556660652,0.10182300209999084
1750560792026676000,9.969676025390624,-0.262935996055603,0.041471000760793686,0.06941399723291397
1750560792036280800,9.97928076171875,-0.5202779769897461,0.13243700563907623,-0.04104600101709366
1750560792045885700,9.9888857421875,-0.5156540274620056,0.07155799865722656,0.005133999977260828
1750560792055490300,9.998490234375,-0.2997959852218628,-0.00953999999910593,0.14098599553108215
1750560792065095000,10.008094970703125,-0.03096099942922592,0.057002998888492584,0.14935100078582764
1750560792074699500,10.017699462890626,0.2581210136413574,0.16518500447273254,-0.05805699899792671
1750560792084304400,10.027304443359375,0.38081100583076477,0.2505300045013428,-0.29442098736763
1750560792093909000,10.036908935546874,0.24643899500370026,0.31798499822616577,-0.4133340120315552
1750560792103513900,10.046513916015625,-0.060899000614881516,0.29078200459480286,-0.29398098587989807
1750560792113118700,10.05611865234375,-0.3546920120716095,0.18088200688362122,-0.1746249943971634
1750560792122723600,10.0657236328125,-0.33803799748420715,0.059585001319646835,-0.02934199944138527
1750560792132328200,10.075328125,-0.08851400017738342,-0.024901000782847404,0.1053059995174408
1750560792141933000,10.08493310546875,0.14012199640274048,-0.05306300148367882,0.08296199887990952
1750560792151537700,10.09453759765625,0.3323799967765808,-0.03065500035881996,0.030727000907063484
1750560792161142500,10.104142578125,0.37909799814224243,0.07291299849748611,-0.10442599654197693
1750560792170747100,10.1137470703125,0.40200701355934143,0.11673299968242645,-0.21859799325466156
1750560792180351700,10.123351806640626,0.26495200395584106,0.09086199849843979,-0.19690300524234772
1750560792189956600,10.13295654296875,0.10300999879837036,0.08050700277090073,-0.1475529968738556
1750560792199561500,10.1425615234375,0.061730001121759415,0.013938000425696373,0.02609499916434288
1750560792209166300,10.152166259765625,-0.04522800073027611,-0.020421000197529793,0.15237000584602356
1750560792218771000,10.16177099609375,-0.13566100597381592,-0.07830599695444107,0.22617100179195404
1750560792228375800,10.171375732421875,-0.19100700318813324,0.027955999597907066,0.1309410035610199
1750560792237980400,10.18098046875,-0.20523600280284882,0.12466499954462051,-0.08743999898433685
1750560792247585300,10.190585205078126,-0.13545000553131104,0.16144099831581116,-0.26447799801826477
1750560792257190000,10.20018994140625,-0.09197399765253067,0.09972400218248367,-0.1939689964056015
1750560792266794500,10.20979443359375,0.02810800075531006,-0.008299999870359898,-0.09619999676942825
1750560792276399400,10.2193994140625,0.16726399958133698,-0.09080100059509277,0.07797999680042267
1750560792286004500,10.22900439453125,0.28990399837493896,-0.1477780044078827,0.24627099931240082
1750560792295608800,10.23860888671875,0.32892999053001404,-0.1331530064344406,0.36101600527763367
1750560792305213700,10.248213623046874,0.06742200255393982,-0.06369200348854065,0.3298589885234833
1750560792314818300,10.257818359375,-0.22470900416374207,0.06620299816131592,0.2745949923992157
1750560792324423200,10.267423095703125,-0.21775400638580322,0.09365999698638916,0.16782400012016296
1750560792334027800,10.27702783203125,-0.1362060010433197,0.0726580023765564,0.017047999426722527
1750560792343632600,10.286632568359375,-0.016814999282360077,0.07581699639558792,-0.12183699756860733
1750560792353237500,10.296237548828126,0.06792999804019928,0.020016999915242195,-0.1295579969882965
1750560792362842400,10.30584228515625,0.18981200456619263,-0.035034000873565674,-0.029496999457478523
1750560792372447000,10.315447021484376,0.17936399579048157,-0.056143999099731445,0.0543689988553524
1750560792382051800,10.3250517578125,0.0735979974269867,-0.027209000661969185,0.020975999534130096
1750560792391656400,10.334656494140624,-0.030768999829888344,-0.013929000124335289,0.031192999333143234
1750560792401261000,10.344260986328125,-0.16189099848270416,-0.00007500000356230885,0.0264699999243021
1750560792410866000,10.353865966796874,-0.21458600461483002,0.021693000569939613,0.010890999808907509
1750560792420470500,10.363470458984375,-0.06722799688577652,0.02031799964606762,-0.017635999247431755
1750560792430075400,10.373075439453125,0.18001000583171844,0.007215999998152256,-0.05113599821925163
1750560792439680300,10.38268017578125,0.36090999841690063,0.005268000066280365,-0.013987000100314617
1750560792449285000,10.39228515625,0.3918370008468628,-0.004472999833524227,-0.01836100034415722
1750560792458889700,10.4018896484375,0.28675198554992676,-0.0023169999476522207,0.018612999469041824
1750560792468494300,10.411494384765625,-0.055984001606702805,0.0298289991915226,0.017942000180482864
1750560792478099200,10.42109912109375,-0.39205101132392883,0.06798399984836578,-0.05784599855542183
1750560792487704000,10.4307041015625,-0.45419999957084656,0.05724500119686127,-0.030634000897407532
1750560792497308700,10.44030859375,-0.32496699690818787,0.007602000143378973,0.09522300213575363
1750560792506913300,10.449913330078125,-0.05798700079321861,-0.04656200110912323,0.1829109936952591
1750560792516518100,10.45951806640625,0.36381199955940247,-0.1368360072374344,0.21895499527454376
1750560792526122800,10.469122802734375,0.5796059966087341,-0.0715470016002655,0.018533000722527504
1750560792535727900,10.478727783203125,0.4089590013027191,0.03863300010561943,-0.1411440074443817
1750560792545332500,10.48833251953125,0.07508999854326248,0.025590000674128532,-0.05494900047779083
1750560792554937000,10.49793701171875,-0.2917580008506775,-0.047256000339984894,0.10877399891614914
1750560792564542000,10.5075419921875,-0.4446580111980438,-0.0009389999904669821,0.12317699939012527
1750560792574146600,10.517146484375,-0.323743999004364,-0.013400999829173088,0.1052049994468689
1750560792583751400,10.52675146484375,-0.13611100614070892,0.026548000052571297,0.1323709934949875
1750560792593356000,10.53635595703125,0.060391999781131744,0.0020890000741928816,0.07225000113248825
1750560792602961000,10.5459609375,0.2617039978504181,0.03961100056767464,-0.040803998708724976
1750560792612565500,10.5555654296875,0.3445500135421753,0.1503479927778244,-0.3180049955844879
1750560792622170600,10.565170654296875,0.33872801065444946,0.2738089859485626,-0.5471850037574768
1750560792631775200,10.574775146484376,0.33857399225234985,0.34205400943756104,-0.6880530118942261
1750560792641379800,10.5843798828125,0.13495099544525146,0.5361080169677734,-1.1174910068511963
1750560792650984700,10.593984619140626,-0.031998999416828156,0.9768949747085571,-1.9113370180130005
1750560792660589300,10.60358935546875,0.21402500569820404,1.620162010192871,-3.39266300201416
1750560792670194000,10.61319384765625,0.13829399645328522,2.297624111175537,-4.619054794311523
1750560792679798800,10.622798828125,-0.618399977684021,2.509047031402588,-6.098010063171387
1750560792689404000,10.63240380859375,-1.7928669452667236,2.9372739791870117,-6.967554092407227
1750560792699008300,10.64200830078125,-2.6182029247283936,2.612186908721924,-7.304230213165283
1750560792708613000,10.651613037109374,-2.744218111038208,2.3280959129333496,-8.750726699829102
1750560792718218000,10.661218017578125,-2.1304659843444824,2.2411038875579834,-10.01309585571289
1750560792727822800,10.67082275390625,-0.7376459836959839,1.019866943359375,-8.851335525512695
1750560792737427500,10.680427490234376,1.084089994430542,-0.8334869742393494,-6.138539791107178
1750560792747032000,10.690031982421875,2.046950101852417,-1.895393967628479,-3.560839891433716
1750560792756637000,10.699636962890626,1.3318109512329102,-3.171583890914917,0.39758598804473877
1750560792766241800,10.70924169921875,0.4975399971008301,-4.336921215057373,5.135635852813721
1750560792775846700,10.7188466796875,-0.1585790067911148,-5.160016059875488,7.598334789276123
1750560792785451300,10.728451171875,-0.39027801156044006,-3.9242429733276367,6.877379894256592
1750560792795055900,10.738055908203124,0.4542180001735687,-1.813256025314331,5.780612945556641
1750560792804660700,10.74766064453125,1.1472389698028564,-1.6311500072479248,4.818583965301514
1750560792814265300,10.757265380859375,1.2602829933166504,-2.2170169353485107,4.3289690017700195
1750560792823870200,10.7668701171875,1.148095965385437,-2.370974063873291,4.514860153198242
1750560792833474800,10.776474853515625,0.8156059980392456,-2.620450973510742,5.159287929534912
1750560792843079700,10.78607958984375,0.9164689779281616,-2.8579769134521484,6.029850959777832
1750560792852684500,10.7956845703125,0.8060839772224426,-2.9222939014434814,6.571522235870361
1750560792862289200,10.8052890625,0.3186100125312805,-2.9664320945739746,6.6413421630859375
1750560792871894000,10.81489404296875,0.03683599829673767,-3.03151798248291,6.586609840393066
1750560792881498600,10.82449853515625,0.10907500237226486,-3.419745922088623,6.656233787536621
1750560792891103500,10.834103515625,0.3296639919281006,-3.797899007797241,6.7822771072387695
1750560792900708000,10.8437080078125,0.39379599690437317,-3.985429048538208,7.068830966949463
1750560792910313000,10.85331298828125,0.17670699954032898,-4.14425802230835,6.3399457931518555
1750560792919917600,10.86291748046875,-0.37578698992729187,-3.7573740482330322,2.918787956237793
1750560792929522400,10.8725224609375,-0.21826499700546265,-1.9660459756851196,-1.691061019897461
1750560792939127300,10.882127197265625,0.45660799741744995,0.012178000062704086,-4.734035968780518
1750560792948732200,10.891732177734376,1.4307010173797607,1.046766996383667,-5.847504138946533
1750560792958336800,10.901336669921875,2.2166988849639893,0.6581169962882996,-4.450730800628662
1750560792967941600,10.910941650390624,2.3693480491638184,0.05454999953508377,-2.574799060821533
1750560792977546200,10.920546142578125,2.6121599674224854,-0.16545100510120392,-1.3377649784088135
1750560792987151000,10.930151123046874,2.6015329360961914,-0.29306599497795105,-0.3328559994697571
1750560792996755700,10.939755615234375,2.405613899230957,-0.31904301047325134,-0.08106499910354614
1750560793006360300,10.9493603515625,2.337908983230591,-0.4931029975414276,-0.12338099628686905
1750560793015965200,10.958965087890626,1.2829619646072388,-0.3081890046596527,-0.7883780002593994
1750560793025570000,10.968570068359375,-0.20216700434684753,0.44301700592041016,-1.7596100568771362
1750560793035174700,10.978174560546876,-1.217371940612793,1.150352954864502,-2.3505630493164062
1750560793044779500,10.987779541015625,-1.0791629552841187,1.747344970703125,-3.0164709091186523
1750560793054384000,10.997384033203126,-0.24410100281238556,1.9913599491119385,-2.7766358852386475
1750560793063989000,11.006989013671875,0.5918070077896118,1.4898509979248047,-1.4542310237884521
1750560793073593600,11.016593505859374,1.0622090101242065,0.7283130288124084,0.2527509927749634
1750560793083198500,11.026198486328125,0.915369987487793,0.33050599694252014,1.327836036682129
1750560793092803300,11.03580322265625,0.781719982624054,0.330716997385025,1.5358309745788574
1750560793102408200,11.045408203125,0.6465489864349365,0.3723739981651306,1.105172038078308
1750560793112012800,11.0550126953125,-0.1272840052843094,0.5198670029640198,0.25770100951194763
1750560793121617700,11.06461767578125,-0.9190220236778259,0.8316059708595276,-0.594980001449585
1750560793131222300,11.07422216796875,-1.2454320192337036,0.990913987159729,-1.231834053993225
1750560793140827100,11.0838271484375,-1.418910026550293,0.947393000125885,-1.3775490522384644
1750560793150431700,11.093431640625,-1.3464419841766357,0.7796729803085327,-0.8242740035057068
1750560793169641500,11.112641357421875,-0.3785409927368164,0.3393169939517975,0.11117800325155258
1750560793179246000,11.12224609375,0.22829200327396393,0.36865898966789246,-0.032600998878479004
1750560793188851000,11.131850830078125,0.5423189997673035,0.3391439914703369,-0.1612289994955063
1750560793198455600,11.14145556640625,0.5921930074691772,0.21964000165462494,-0.20691800117492676
1750560793208060200,11.15106005859375,0.3142920136451721,0.07852300256490707,-0.08522599935531616
1750560793217665000,11.1606650390625,-0.141183003783226,0.007342000026255846,0.0029070000164210796
1750560793227270000,11.170269775390626,-0.5440329909324646,0.1110830008983612,-0.04753199964761734
1750560793236874500,11.17987451171875,-0.7135300040245056,0.0919170007109642,0.00005199999941396527
1750560793246479000,11.18947900390625,-0.7485929727554321,0.024894999340176582,0.14494100213050842
1750560793256084200,11.199084228515625,-0.3063719868659973,-0.007116999942809343,0.16057899594306946
1750560793265688800,11.208688720703124,0.4299840033054352,-0.11138500273227692,0.20059700310230255
1750560793275293700,11.218293701171875,0.6900150179862976,-0.3169899880886078,0.2640100121498108
1750560793284898300,11.227898193359374,0.4932819902896881,-0.24285699427127838,0.3679969906806946
1750560793294503000,11.2375029296875,-0.0047439998015761375,-0.13025900721549988,0.31960898637771606
1750560793304107800,11.247107666015625,-0.5337129831314087,0.03550000116229057,0.204585999250412
1750560793313712600,11.256712646484376,-0.8965049982070923,0.03803599998354912,0.15780499577522278
1750560793323317200,11.266317138671875,-0.8222929835319519,0.12807799875736237,0.048392001539468765
1750560793332922000,11.275922119140626,-0.47393599152565,0.06327900290489197,0.06269899755716324
1750560793342526700,11.285526611328125,0.06257899850606918,-0.1667270064353943,0.2776789963245392
1750560793352131600,11.295131591796874,0.4340890049934387,-0.35454198718070984,0.49603599309921265
1750560793361736400,11.304736328125,0.4419350028038025,-0.36777999997138977,0.6150680184364319
1750560793371341300,11.31434130859375,0.27865201234817505,-0.20696799457073212,0.5404459834098816
1750560793380946000,11.32394580078125,-0.03196299821138382,-0.1760610044002533,0.4185580015182495
1750560793390550800,11.33355078125,-0.17358100414276123,-0.1321679949760437,0.1901959925889969
1750560793400155100,11.343155029296875,-0.34136098623275757,-0.11958499997854233,0.05585499852895737
1750560793409760300,11.35276025390625,-0.46578899025917053,-0.07842600345611572,0.02322000078856945
1750560793419364900,11.36236474609375,-0.11520099639892578,-0.1390029937028885,0.2115429937839508
1750560793428969500,11.371969482421875,0.04364199936389923,-0.26165199279785156,0.4228529930114746
1750560793438574600,11.38157470703125,0.07217299938201904,-0.28485700488090515,0.5563669800758362
1750560793448179200,11.39117919921875,0.28560298681259155,-0.16758300364017487,0.5384809970855713
1750560793457784000,11.4007841796875,0.6843810081481934,-0.12404199689626694,0.3002830147743225
1750560793467388700,11.410388671875,0.7281990051269531,-0.09454099833965302,0.09951599687337875
1750560793476993300,11.4199931640625,0.4557729959487915,-0.09798400104045868,0.006256000138819218
1750560793486598100,11.42959814453125,0.11144399642944336,-0.165134996175766,0.11942700296640396
1750560793496202800,11.43920263671875,-0.1959020048379898,-0.12254100292921066,0.19802500307559967
1750560793505808000,11.448807861328126,-0.32049500942230225,-0.12090899795293808,0.3305779993534088
1750560793515412500,11.45841259765625,-0.1899390071630478,-0.044429998844861984,0.23889900743961334
1750560793525017300,11.468017333984376,0.16347700357437134,0.09305399656295776,0.13394400477409363
1750560793534622000,11.4776220703125,0.4704059958457947,0.11345499753952026,0.031084999442100525
1750560793544226600,11.4872265625,0.436286985874176,-0.008584000170230865,0.09556800127029419
1750560793553831400,11.49683154296875,0.3041360080242157,-0.09417799860239029,0.1760309934616089
1750560793563436000,11.50643603515625,0.20488299429416656,-0.08737999945878983,0.2489739954471588
1750560793573041000,11.516041015625,-0.08187700062990189,-0.0863099992275238,0.2747710049152374
1750560793582645800,11.525645751953125,-0.2318519949913025,-0.011099999770522118,0.23661500215530396
1750560793592250600,11.535250732421876,-0.243476003408432,0.05934099853038788,0.10996200144290924
1750560793601855200,11.544855224609375,-0.20158100128173828,0.15175899863243103,-0.06112699955701828
1750560793611460000,11.554460205078126,0.23843100666999817,0.15629200637340546,-0.12791800498962402
1750560793621064700,11.564064697265625,0.4841659963130951,0.005259000230580568,-0.11326500028371811
1750560793630669600,11.573669677734374,0.46446600556373596,-0.042872000485658646,-0.032683998346328735
1750560793640274200,11.583274169921875,0.22941100597381592,-0.13332200050354004,0.16687600314617157
1750560793649878800,11.592878662109374,0.03975500166416168,-0.137022003531456,0.22438499331474304
1750560793659483600,11.602483642578125,0.002328000031411648,-0.07055699825286865,0.042132001370191574
1750560793669088500,11.612088623046875,0.04932599887251854,0.056807998567819595,-0.16428899765014648
1750560793678693400,11.621693359375,-0.02949099987745285,0.1779100000858307,-0.3282630145549774
1750560793688298000,11.631298095703125,-0.15510399639606476,0.22867700457572937,-0.27007201313972473
1750560793697902800,11.64090283203125,-0.29179298877716064,0.1523589938879013,-0.0389069989323616
1750560793707507500,11.650507568359375,-0.3167789876461029,0.0298289991915226,0.24816299974918365
1750560793717112300,11.6601123046875,-0.17020200192928314,-0.1322219967842102,0.43128401041030884
1750560793726717000,11.669717041015625,-0.20782500505447388,-0.13872399926185608,0.4342629909515381
1750560793736321800,11.67932177734375,-0.23295900225639343,-0.045788999646902084,0.24890199303627014
1750560793745926700,11.6889267578125,-0.042511001229286194,0.07231499999761581,0.009983000345528126
1750560793755531500,11.698531494140624,0.2483700066804886,0.12736499309539795,-0.19896100461483002
1750560793765136100,11.70813623046875,0.3979809880256653,0.08895500004291534,-0.2459380030632019
1750560793774740700,11.71774072265625,0.3425529897212982,-0.021914999932050705,-0.24556699395179749
1750560793784345600,11.727345703125,0.15598900616168976,-0.03238200023770332,-0.1979209929704666
1750560793793950200,11.7369501953125,-0.16591599583625793,-0.11481499671936035,0.05081000179052353
1750560793803555000,11.74655517578125,-0.39860600233078003,-0.08228100091218948,0.12837600708007812
1750560793813160000,11.756159912109375,-0.3180829882621765,0.07477600127458572,0.039115000516176224
1750560793822764800,11.765764892578124,-0.03690800070762634,0.1766510009765625,-0.00522099994122982
1750560793832369400,11.775369384765625,0.32531100511550903,0.09916900098323822,0.11166500300168991
1750560793841974300,11.784974365234374,0.6006699800491333,-0.008918999694287777,0.11796300113201141
1750560793851579000,11.794578857421875,0.8019409775733948,0.006878000218421221,-0.07484599947929382
1750560793861183700,11.804183837890625,0.5312479734420776,0.02323099970817566,-0.10817699879407883
1750560793870788400,11.813788330078125,-0.08736500144004822,0.04827599972486496,-0.06665199995040894
1750560793880393000,11.82339306640625,-0.4986099898815155,0.11789000034332275,-0.00954199954867363
1750560793889998000,11.832998046875,-0.5577639937400818,0.16611599922180176,0.035735998302698135
1750560793899602700,11.842602783203125,-0.458638995885849,0.06557200103998184,0.08542600274085999
1750560793909207600,11.85220751953125,-0.24640299379825592,0.026427000761032104,0.1213349997997284
1750560793918812200,11.861812255859375,-0.07929600030183792,-0.039802998304367065,0.1330530047416687
1750560793928417000,11.8714169921875,0.07768499851226807,-0.060502998530864716,0.055590998381376266
1750560793938021600,11.881021728515625,0.26978498697280884,0.005475999787449837,-0.022288000211119652
1750560793947626500,11.89062646484375,0.30056700110435486,0.06035799905657768,-0.16883400082588196
1750560793957231400,11.9002314453125,0.29071998596191406,0.12251099944114685,-0.180744007229805
1750560793966836000,11.9098359375,0.055886998772621155,0.020524999126791954,0.03168199956417084
1750560793976440800,11.91944091796875,-0.3640410006046295,-0.08709999918937683,0.1566839963197708
1750560793986045700,11.929045654296875,-0.5769960284233093,-0.059443000704050064,0.1088860034942627
