time,seconds_elapsed,z,y,x
1750560782133819400,0.0768193359375,6.300000190734863,6.5400004386901855,0.5230500102043152
1750560782143424000,0.086424072265625,6.643050193786621,6.157050132751465,0.7279500365257263
1750560782153028600,0.096028564453125,6.517950534820557,5.6449503898620605,0.5010000467300415
1750560782162633500,0.105633544921875,6.517950534820557,5.047950267791748,0.5419500470161438
1750560782172238000,0.115238037109375,6.889050483703613,6.451050281524658,-0.23295001685619354
1750560782181842700,0.1248427734375,7.426050186157227,6.657000541687012,-0.5370000004768372
1750560782191447300,0.134447265625,8.506050109863281,5.914950370788574,0.11295000463724136
1750560782201052000,0.144052001953125,9.054000854492188,5.251950263977051,0.703950047492981
1750560782210656500,0.153656494140625,8.908050537109375,5.130000114440918,0.9970500469207764
1750560782220261000,0.16326123046875,8.599050521850586,5.194050312042236,0.9079500436782837
1750560782229865700,0.17286572265625,8.26395034790039,5.4340500831604,0.6589500308036804
1750560782239470600,0.182470703125,7.921050548553467,5.74500036239624,0.46695002913475037
1750560782249075200,0.1920751953125,7.489950180053711,6.091950416564941,0.4549500346183777
1750560782258679800,0.2016796875,6.958950519561768,6.492000102996826,0.5269500017166138
1750560782268284400,0.211284423828125,6.640050411224365,6.802950382232666,0.4050000309944153
1750560782277889000,0.220888916015625,6.6160502433776855,7.006950378417969,0.2850000262260437
1750560782287494100,0.230494140625,6.51300048828125,7.033050537109375,0.2850000262260437
1750560782297098800,0.2400986328125,6.274050235748291,7.084050178527832,0.3910500109195709
1750560782306703400,0.249703369140625,5.958000183105469,7.210050106048584,0.5899500250816345
1750560782316308000,0.259307861328125,5.75700044631958,7.218000411987305,0.8790000677108765
1750560782325912600,0.26891259765625,5.746950149536133,7.311000347137451,1.1329500675201416
1750560782335517200,0.27851708984375,5.677950382232666,7.383000373840332,1.0780500173568726
1750560782345121800,0.288121826171875,5.625000476837158,7.512000560760498,0.7999500632286072
1750560782354726400,0.297726318359375,5.734950065612793,7.701000213623047,0.4549500346183777
1750560782364331000,0.3073310546875,6.034950256347656,7.888050556182861,0.06000000238418579
1750560782373935900,0.316935791015625,6.472950458526611,7.809000492095947,-0.08700000494718552
1750560782383540500,0.32654052734375,7.027950286865234,7.44795036315918,0.17805001139640808
1750560782393145000,0.33614501953125,7.213050365447998,7.183950424194336,0.48705002665519714
1750560782402749700,0.345749755859375,7.074000358581543,7.153050422668457,0.597000002861023
1750560782412354300,0.355354248046875,6.700050354003906,7.242000579833984,0.5419500470161438
1750560782421959200,0.364959228515625,6.31695032119751,7.285050392150879,0.36900001764297485
1750560782431563800,0.374563720703125,6.063000202178955,7.297050476074219,0.22095000743865967
1750560782441168600,0.384168701171875,5.953050136566162,7.194000244140625,0.25200000405311584
1750560782450773200,0.393773193359375,5.9509501457214355,7.06695032119751,0.43605002760887146
1750560782460377900,0.4033779296875,5.850000381469727,7.0600504875183105,0.6060000061988831
1750560782469982500,0.412982421875,5.917050361633301,6.9970502853393555,0.7330500483512878
1750560782479587000,0.422587158203125,5.850000381469727,7.182000160217285,0.5419500470161438
1750560782489192000,0.43219189453125,5.659050464630127,7.471050262451172,0.08895000070333481
1750560782498796300,0.44179638671875,5.605950355529785,7.701000213623047,-0.20400001108646393
1750560782508401200,0.451401123046875,5.698950290679932,7.8070502281188965,-0.3769500255584717
1750560782518005800,0.461005859375,5.94795036315918,7.809000492095947,-0.36195001006126404
1750560782527610400,0.4706103515625,6.384000301361084,7.591050148010254,0.0010500000789761543
1750560782537215000,0.480215087890625,6.849000453948975,7.378050327301025,0.36900001764297485
1750560782546819600,0.489819580078125,6.999000549316406,7.312950134277344,0.5389500260353088
1750560782556424400,0.499424560546875,7.04295015335083,7.380000114440918,0.5029500126838684
1750560782566029000,0.509029052734375,6.994950294494629,7.402050495147705,0.43905001878738403
1750560782575633700,0.518633544921875,7.047000408172607,7.4239501953125,0.3859500288963318
1750560782585238300,0.52823828125,7.06695032119751,7.555050373077393,0.31200000643730164
1750560782594843100,0.537843017578125,7.07895040512085,7.681950569152832,0.2179500162601471
1750560782604447700,0.54744775390625,7.045050144195557,7.8259501457214355,0.14400000870227814
1750560782614052400,0.55705224609375,6.95205020904541,7.8670501708984375,0.18000000715255737
1750560782623657000,0.566656982421875,6.7699503898620605,7.8160505294799805,0.3450000286102295
1750560782633261600,0.576261474609375,6.505950450897217,7.693950176239014,0.48900002241134644
1750560782642866200,0.5858662109375,6.315000534057617,7.573950290679932,0.6210000514984131
1750560782652470800,0.595470703125,6.355050086975098,7.380000114440918,0.7950000166893005
1750560782662075600,0.60507568359375,6.549000263214111,7.3660502433776855,0.7450500130653381
1750560782671680300,0.61468017578125,6.7669501304626465,7.452000141143799,0.47895002365112305
1750560782681284900,0.624284912109375,6.906000137329102,7.564950466156006,0.25394999980926514
1750560782690889500,0.633889404296875,6.973050117492676,7.591050148010254,0.20595000684261322
1750560782700494300,0.643494384765625,7.014000415802002,7.567050457000732,0.20205001533031464
1750560782710099000,0.653098876953125,6.873000144958496,7.464000225067139,0.283050000667572
1750560782719703600,0.66270361328125,6.790950298309326,7.452000141143799,0.3430500030517578
1750560782729308400,0.672308349609375,6.801000118255615,7.4239501953125,0.3720000088214874
1750560782738913000,0.6819130859375,6.778950214385986,7.35705041885376,0.4549500346183777
1750560782748517600,0.691517578125,6.750000476837158,7.34505033493042,0.6040500402450562
1750560782758122200,0.701122314453125,6.721950531005859,7.279950141906738,0.7860000133514404
1750560782767726800,0.710726806640625,6.865050315856934,7.171950340270996,0.9079500436782837
1750560782777331700,0.720331787109375,7.018950462341309,7.146000385284424,0.8820000290870667
1750560782786936300,0.729936279296875,7.027950286865234,7.147950172424316,0.6690000295639038
1750560782796541000,0.739541015625,7.011000156402588,7.297050476074219,0.41700002551078796
1750560782806145500,0.7491455078125,6.916050434112549,7.387950420379639,0.3450000286102295
1750560782815750100,0.758750244140625,6.772050380706787,7.4160003662109375,0.5130000114440918
1750560782825355000,0.76835498046875,6.561000347137451,7.351950168609619,0.7380000352859497
1750560782834959600,0.777959716796875,6.327000141143799,7.336950302124023,0.9030000567436218
1750560782844564000,0.78756396484375,6.29295015335083,7.231950283050537,0.9649500250816345
1750560782854168800,0.7971689453125,6.259950160980225,7.182000160217285,0.906000018119812
1750560782863773400,0.8067734375,6.1810503005981445,7.278000354766846,0.6400500535964966
1750560782873378300,0.81637841796875,6.229050159454346,7.3969502449035645,0.4339500069618225
1750560782882983000,0.82598291015625,6.445950508117676,7.431000232696533,0.34995001554489136
1750560782892587500,0.83558740234375,6.633000373840332,7.488000392913818,0.35295000672340393
1750560782902192400,0.8451923828125,6.790950298309326,7.479000568389893,0.4339500069618225
1750560782911797000,0.854796875,6.753000259399414,7.3690505027771,0.5659500360488892
1750560782921401600,0.864401611328125,6.667050361633301,7.335000514984131,0.6400500535964966
1750560782931006200,0.874006103515625,6.475050449371338,7.323000431060791,0.6139500141143799
1750560782940611000,0.883611083984375,6.334050178527832,7.3399505615234375,0.62295001745224
1750560782950215700,0.893215576171875,6.250050067901611,7.273050308227539,0.7140000462532043
1750560782959820500,0.902820556640625,6.1210503578186035,7.215000152587891,0.8359500169754028
1750560782969425000,0.9124248046875,6.139950275421143,7.129050254821777,1.0110000371932983
1750560782979029800,0.92202978515625,6.2310004234313965,7.096050262451172,0.9390000700950623
1750560782988634600,0.931634521484375,6.38700008392334,7.1670002937316895,0.6540000438690186
1750560782998239200,0.9412392578125,6.7669501304626465,7.25100040435791,0.5029500126838684
1750560783007843800,0.95084375,7.047000408172607,7.194000244140625,0.5029500126838684
1750560783017448400,0.960448486328125,7.198050498962402,7.045050144195557,0.6490500569343567
1750560783027053000,0.970052978515625,7.201050281524658,6.928050518035889,0.8839500546455383
1750560783036658000,0.979657958984375,6.978000164031982,6.95205020904541,0.987000048160553
1750560783046262500,0.989262451171875,6.664050102233887,7.024050235748291,0.9750000238418579
1750560783055867100,0.9988671875,6.496950149536133,7.213050365447998,0.7399500608444214
1750560783065471700,1.0084716796875,6.601950168609619,7.315950393676758,0.45795002579689026
1750560783075076400,1.018076416015625,6.6160502433776855,7.351950168609619,0.5230500102043152
1750560783084681000,1.027680908203125,6.58305025100708,7.348950386047363,0.5850000381469727
1750560783094285800,1.037285888671875,6.481950283050537,7.486050128936768,0.4909500181674957
1750560783103890200,1.04689013671875,6.415050506591797,7.428000450134277,0.43605002760887146
1750560783113495000,1.0564951171875,6.529950141906738,7.515000343322754,0.4030500054359436
1750560783123099600,1.066099609375,6.4800004959106445,7.570050239562988,0.36000001430511475
1750560783132704300,1.075704345703125,6.312000274658203,7.549950122833252,0.37905001640319824
1750560783142309000,1.08530908203125,6.034950256347656,7.519050121307373,0.47700002789497375
1750560783151914000,1.0949140625,5.809950351715088,7.488000392913818,0.5080500245094299
1750560783161518600,1.1045185546875,5.85705041885376,7.534050464630127,0.5419500470161438
1750560783171123200,1.114123291015625,6.556950092315674,7.495050430297852,0.5680500268936157
1750560783180727800,1.123727783203125,6.856050491333008,7.432950496673584,0.4939500093460083
1750560783190332700,1.133332763671875,6.934950351715088,7.452000141143799,0.6180000305175781
1750560783199937000,1.14293701171875,7.033050537109375,7.323000431060791,0.7159500122070312
1750560783209542000,1.1525419921875,6.96405029296875,7.2870001792907715,0.661050021648407
1750560783219146500,1.162146484375,6.589950084686279,7.288950443267822,0.48900002241134644
1750560783228751000,1.171751220703125,6.133050441741943,7.35705041885376,0.4410000145435333
1750560783238356000,1.18135595703125,5.778000354766846,7.464000225067139,0.46995002031326294
1750560783247960600,1.190960693359375,5.569950103759766,7.546050548553467,0.5250000357627869
1750560783257565200,1.200565185546875,5.568000316619873,7.564950466156006,0.6019500494003296
1750560783267170000,1.210170166015625,5.752050399780273,7.561950206756592,0.6400500535964966
1750560783276774700,1.219774658203125,6.055950164794922,7.467000484466553,0.6520500183105469
1750560783286379300,1.229379150390625,6.39900016784668,7.426050186157227,0.5580000281333923
1750560783295984000,1.238984130859375,6.657000541687012,7.297050476074219,0.5940000414848328
1750560783305588700,1.248588623046875,6.739050388336182,7.1670002937316895,0.703950047492981
1750560783315193300,1.258193359375,7.027950286865234,7.191000461578369,0.8509500622749329
1750560783324798000,1.2677978515625,7.059000492095947,7.219950199127197,0.9390000700950623
1750560783334402600,1.277402587890625,6.877050399780273,7.179000377655029,0.8029500246047974
1750560783344007200,1.287007080078125,6.718950271606445,7.300950527191162,0.6330000162124634
1750560783353612000,1.296612060546875,6.547050476074219,7.300950527191162,0.5130000114440918
1750560783363216600,1.306216552734375,6.409950256347656,7.285050392150879,0.48900002241134644
1750560783372821500,1.315821533203125,6.379050254821777,7.3399505615234375,0.5080500245094299
1750560783382426000,1.325426025390625,6.456000328063965,7.3660502433776855,0.6469500064849854
1750560783392030700,1.33503076171875,6.643050193786621,7.303950309753418,0.7930500507354736
1750560783401635600,1.344635498046875,6.931950092315674,7.249050140380859,0.8410500288009644
1750560783411240200,1.354240234375,7.003950119018555,7.282050132751465,0.7210500240325928
1750560783420844800,1.3638447265625,6.820050239562988,7.3399505615234375,0.5250000357627869
1750560783430449400,1.373449462890625,6.631050109863281,7.395000457763672,0.3330000042915344
1750560783440054300,1.38305419921875,6.379050254821777,7.43595027923584,0.26205000281333923
1750560783449659000,1.392658935546875,6.2410502433776855,7.452000141143799,0.24195000529289246
1750560783459263500,1.402263427734375,6.22605037689209,7.44795036315918,0.453000009059906
1750560783468868000,1.4118681640625,6.163950443267822,7.431000232696533,0.5560500025749207
1750560783478473000,1.421472900390625,6.157050132751465,7.468950271606445,0.44805002212524414
1750560783488077600,1.43107763671875,6.207000255584717,7.588950157165527,0.24705001711845398
1750560783497682200,1.44068212890625,6.348000526428223,7.567050457000732,0.14400000870227814
1750560783507287000,1.450287109375,6.4270501136779785,7.488000392913818,0.16305001080036163
1750560783516891600,1.4598916015625,6.382050514221191,7.3690505027771,0.25905001163482666
1750560783526496300,1.469496337890625,6.552000522613525,7.282050132751465,0.4990500211715698
1750560783536101000,1.47910107421875,6.721950531005859,7.242000579833984,0.673050045967102
1750560783545705700,1.488705810546875,6.69795036315918,7.354050159454346,0.7000500559806824
1750560783555310300,1.498310302734375,6.51300048828125,7.500000476837158,0.6040500402450562
1750560783564915000,1.5079150390625,6.375000476837158,7.570050239562988,0.43605002760887146
1750560783574519600,1.51751953125,6.355050086975098,7.512000560760498,0.2880000174045563
1750560783584124200,1.527124267578125,6.348000526428223,7.444950580596924,0.23805001378059387
1750560783593729000,1.53672900390625,6.283950328826904,7.428000450134277,0.2880000174045563
1750560783603333600,1.546333740234375,6.336000442504883,7.483050346374512,0.3840000033378601
1750560783612938200,1.555938232421875,6.624000549316406,7.428000450134277,0.5130000114440918
1750560783622542800,1.56554296875,6.730950355529785,7.360950469970703,0.5700000524520874
1750560783632147700,1.575147705078125,6.633000373840332,7.408950328826904,0.5299500226974487
1750560783641752300,1.58475244140625,6.396000385284424,7.479000568389893,0.42900002002716064
1750560783651357200,1.594357177734375,6.039000511169434,7.53795051574707,0.3360000252723694
1750560783660961800,1.6039619140625,5.7330002784729,7.555050373077393,0.31905001401901245
1750560783670566400,1.61356640625,5.659050464630127,7.627050399780273,0.40800002217292786
1750560783680171300,1.623171142578125,5.640000343322754,7.656000137329102,0.5940000414848328
1750560783689775900,1.63277587890625,5.7210001945495605,7.527000427246094,0.8029500246047974
1750560783699380700,1.642380615234375,5.848050117492676,7.440000534057617,0.8220000267028809
1750560783708985300,1.6519853515625,5.94795036315918,7.432950496673584,0.6180000305175781
1750560783718590000,1.66158984375,6.109050273895264,7.312950134277344,0.46695002913475037
1750560783728194600,1.671194580078125,6.208950519561768,7.372950553894043,0.48405003547668457
1750560783737799200,1.680799072265625,6.3409504890441895,7.504950523376465,0.4410000145435333
1750560783747404000,1.690404052734375,6.739050388336182,7.6459503173828125,0.4440000355243683
1750560783757008600,1.700008544921875,7.318050384521484,7.558050155639648,0.4819500148296356
1750560783766613200,1.70961328125,7.840050220489502,7.297050476074219,0.5490000247955322
1750560783776217900,1.7192177734375,8.086950302124023,7.096050262451172,0.5629500150680542
1750560783785822500,1.728822509765625,8.058000564575195,7.051950454711914,0.5059500336647034
1750560783795427000,1.738427001953125,7.942950248718262,7.131000518798828,0.3139500021934509
1750560783805032000,1.748031982421875,7.794000148773193,7.147950172424316,0.14205001294612885
1750560783814636800,1.75763671875,7.63200044631958,7.222050189971924,0.05100000277161598
1750560783824241400,1.767241455078125,7.725000381469727,7.203000545501709,0.022050000727176666
1750560783833846000,1.776845947265625,7.651050567626953,7.179000377655029,0.28095000982284546
1750560783843451000,1.786450927734375,7.1260504722595215,7.189050197601318,0.46995002031326294
1750560783853055500,1.796055419921875,6.573000431060791,7.218000411987305,0.6109500527381897
1750560783862660000,1.80566015625,6.025050163269043,7.291950225830078,0.6180000305175781
1750560783872264700,1.8152646484375,5.407050132751465,7.404000282287598,0.5700000524520874
1750560783881869600,1.82486962890625,5.041050434112549,7.564950466156006,0.5130000114440918
1750560783891474200,1.83447412109375,5.127000331878662,7.759050369262695,0.34995001554489136
1750560783901078800,1.844078857421875,5.496000289916992,7.933950424194336,0.1870500147342682
1750560783910683600,1.85368359375,5.731050491333008,7.857000350952148,0.1270500123500824
1750560783920288500,1.86328857421875,5.797950267791748,7.624950408935547,0.24495001137256622
1750560783929893000,1.87289306640625,5.698950290679932,7.527000427246094,0.42000001668930054
1750560783939497700,1.882497802734375,5.563050270080566,7.44795036315918,0.5029500126838684
1750560783949102300,1.892102294921875,5.5320000648498535,7.480950355529785,0.40005001425743103
1750560783958707200,1.901707275390625,5.652000427246094,7.540950298309326,0.31200000643730164
1750560783968311800,1.911311767578125,6.235950469970703,7.402050495147705,0.31905001401901245
1750560783977916400,1.92091650390625,6.796050548553467,7.438050270080566,0.6109500527381897
1750560783987521000,1.93052099609375,6.7669501304626465,7.414050579071045,0.49605002999305725
1750560783997126000,1.9401259765625,6.838950157165527,7.297050476074219,0.3139500021934509
1750560784006730500,1.94973046875,6.970950126647949,7.198950290679932,0.25905001163482666
1750560784016335400,1.95933544921875,6.724050521850586,7.159950256347656,0.22305001318454742
1750560784025940000,1.96893994140625,6.505950450897217,7.330050468444824,0.17505000531673431
1750560784035544600,1.978544677734375,6.643050193786621,7.450050354003906,0.32895001769065857
1750560784045149200,1.988149169921875,6.439050197601318,7.392000198364258,0.3570000231266022
1750560784054754000,1.997754150390625,6.058950424194336,7.431000232696533,0.32895001769065857
1750560784064358700,2.007358642578125,5.953050136566162,7.495050430297852,0.20400001108646393
1750560784073963300,2.01696337890625,6.091950416564941,7.540950298309326,0.027000000700354576
1750560784083567900,2.02656787109375,6.163950443267822,7.660950183868408,-0.08205000311136246
1750560784093172700,2.0361728515625,6.087000370025635,7.713000297546387,-0.022050000727176666
1750560784102777300,2.04577734375,6.066000461578369,7.656000137329102,0.10605000704526901
1750560784112382200,2.05538232421875,6.163950443267822,7.584000587463379,0.22995001077651978
1750560784121986800,2.06498681640625,6.391050338745117,7.483050346374512,0.30195000767707825
1750560784131591400,2.07459130859375,6.679050445556641,7.26300048828125,0.4050000309944153
1750560784141196300,2.0841962890625,6.837000370025635,7.033050537109375,0.7450500130653381
1750560784150801000,2.09380078125,6.576000213623047,7.3060503005981445,0.5800500512123108
1750560784160405800,2.10340576171875,6.372000217437744,7.359000205993652,0.42195001244544983
1750560784170010400,2.11301025390625,6.421950340270996,7.503000259399414,0.23805001378059387
1750560784179615000,2.122614990234375,6.50100040435791,7.603050231933594,0.13905000686645508
1750560784189219600,2.132219482421875,6.4270501136779785,7.5360002517700195,0.30195000767707825
1750560784198824200,2.14182421875,6.38700008392334,7.428000450134277,0.5560500025749207
1750560784208429000,2.151428955078125,6.32895040512085,7.303950309753418,0.6949500441551208
1750560784218033700,2.16103369140625,6.255000114440918,7.342050552368164,0.7549500465393066
1750560784227638300,2.17063818359375,6.259950160980225,7.428000450134277,0.7690500617027283
1750560784237243100,2.1802431640625,6.436950206756592,7.462050437927246,0.673050045967102
1750560784246847700,2.18984765625,6.585000514984131,7.3969502449035645,0.6520500183105469
1750560784256452400,2.199452392578125,6.5590500831604,7.303950309753418,0.690000057220459
1750560784266057200,2.20905712890625,6.577950477600098,7.315950393676758,0.6330000162124634
1750560784275662000,2.218662109375,6.667050361633301,7.3470001220703125,0.36705002188682556
1750560784285266700,2.2282666015625,6.733950138092041,7.371000289916992,0.24495001137256622
1750560784294871300,2.237871337890625,6.59505033493042,7.414050579071045,0.28095000982284546
1750560784304476000,2.247475830078125,6.4800004959106445,7.420950412750244,0.453000009059906
1750560784314080500,2.25708056640625,6.496950149536133,7.359000205993652,0.6349500417709351
1750560784323685400,2.266685302734375,6.523050308227539,7.267950534820557,0.7189500331878662
1750560784333290000,2.2762900390625,6.573000431060791,7.186950206756592,0.7309500575065613
1750560784342894600,2.28589453125,6.601950168609619,7.189050197601318,0.661050021648407
1750560784352499200,2.295499267578125,6.604050159454346,7.206000328063965,0.6450000405311584
1750560784362104000,2.30510400390625,6.66195011138916,7.267950534820557,0.6160500049591064
1750560784371709000,2.314708984375,6.612000465393066,7.395000457763672,0.5460000038146973
1750560784381313500,2.3243134765625,6.5370001792907715,7.515000343322754,0.4549500346183777
1750560784390918100,2.333918212890625,6.490050315856934,7.543050289154053,0.43605002760887146
1750560784400523000,2.34352294921875,6.556950092315674,7.488000392913818,0.3720000088214874
1750560784410127600,2.353127685546875,6.624000549316406,7.443000316619873,0.40995001792907715
1750560784419732200,2.362732177734375,6.589950084686279,7.443000316619873,0.4050000309944153
1750560784429336800,2.3723369140625,6.564000129699707,7.4760003089904785,0.5179499983787537
1750560784438941700,2.381941650390625,6.552000522613525,7.4160003662109375,0.6180000305175781
1750560784448546300,2.39154638671875,6.657000541687012,7.3660502433776855,0.6109500527381897
1750560784458151000,2.40115087890625,6.727050304412842,7.33305025100708,0.5440500378608704
1750560784467755800,2.410755859375,6.694950103759766,7.278000354766846,0.5179499983787537
1750560784477360400,2.4203603515625,6.637950420379639,7.351950168609619,0.5130000114440918
1750560784486965000,2.429965087890625,6.621000289916992,7.375950336456299,0.5820000171661377
1750560784496569600,2.439569580078125,6.58305025100708,7.380000114440918,0.703950047492981
1750560784506174500,2.449174560546875,6.50100040435791,7.43595027923584,0.6780000329017639
1750560784515779300,2.458779296875,6.364950180053711,7.500000476837158,0.6160500049591064
1750560784525383700,2.4683837890625,6.247950077056885,7.510050296783447,0.5299500226974487
1750560784534988500,2.477988525390625,6.205050468444824,7.438050270080566,0.5730000138282776
1750560784544593400,2.487593505859375,6.097050189971924,7.395000457763672,0.6520500183105469
1750560784554198000,2.497197998046875,6.172950267791748,7.4239501953125,0.4819500148296356
1750560784563802600,2.506802734375,6.379050254821777,7.498050212860107,0.25394999980926514
1750560784573407200,2.5164072265625,6.59505033493042,7.498050212860107,0.16305001080036163
1750560784583012000,2.52601220703125,6.729000091552734,7.375950336456299,0.2569500207901001
1750560784592616700,2.53561669921875,6.700050354003906,7.297050476074219,0.3840000033378601
1750560784602221300,2.54522119140625,6.681000232696533,7.282050132751465,0.42705002427101135
1750560784611826000,2.554825927734375,6.660000324249268,7.249050140380859,0.3430500030517578
1750560784621430800,2.5644306640625,6.532950401306152,7.266000270843506,0.33105000853538513
1750560784631035400,2.574035400390625,6.418050289154053,7.278000354766846,0.3570000231266022
1750560784640640000,2.583639892578125,6.3409504890441895,7.324950218200684,0.40800002217292786
1750560784650244900,2.593244873046875,6.3510003089904785,7.34505033493042,0.41700002551078796
1750560784659849500,2.602849365234375,6.41295051574707,7.3660502433776855,0.36000001430511475
1750560784669454000,2.6124541015625,6.535050392150879,7.285050392150879,0.3960000276565552
1750560784679059000,2.622058837890625,6.637950420379639,7.171950340270996,0.5010000467300415
1750560784688663800,2.631663818359375,6.565950393676758,7.203000545501709,0.46695002913475037
1750560784698268400,2.641268310546875,6.490050315856934,7.312950134277344,0.40800002217292786
1750560784707873000,2.650873046875,6.384000301361084,7.35705041885376,0.34995001554489136
1750560784717477600,2.6604775390625,6.343050479888916,7.360950469970703,0.364950031042099
1750560784727082500,2.67008251953125,6.39900016784668,7.387950420379639,0.30900001525878906
1750560784736687000,2.67968701171875,6.576000213623047,7.327950477600098,0.2639999985694885
1750560784746291700,2.689291748046875,6.705000400543213,7.270050525665283,0.325950026512146
1750560784755896600,2.698896484375,6.676050186157227,7.279950141906738,0.3379500210285187
1750560784765501200,2.708501220703125,6.669000148773193,7.384950160980225,0.3049500286579132
1750560784775105800,2.718105712890625,6.693000316619873,7.404000282287598,0.2569500207901001
1750560784784710700,2.727710693359375,6.681000232696533,7.318050384521484,0.3240000009536743
1750560784794315300,2.737315185546875,6.693000316619873,7.2460503578186035,0.4600500166416168
1750560784803920100,2.746920166015625,6.765000343322754,7.299000263214111,0.32100000977516174
1750560784813524700,2.756524658203125,6.813000202178955,7.3999505043029785,0.0990000069141388
1750560784823129300,2.76612939453125,6.523050308227539,7.495050430297852,-0.025050001218914986
1750560784832734200,2.775734130859375,6.187950134277344,7.567050457000732,-0.00795000046491623
1750560784842338800,2.7853388671875,5.962950229644775,7.522050380706787,0.10605000704526901
1750560784851943400,2.794943359375,5.905050277709961,7.498050212860107,0.24495001137256622
1750560784861548000,2.804548095703125,6.207000255584717,7.407000541687012,0.42705002427101135
1750560784871153000,2.81415283203125,6.637950420379639,7.294050216674805,0.4720500111579895
1750560784880757500,2.823757568359375,6.925050258636475,7.249050140380859,0.36900001764297485
1750560784890362400,2.8333623046875,6.978000164031982,7.27500057220459,0.2689500153064728
1750560784899967000,2.842967041015625,6.877050399780273,7.336950302124023,0.23805001378059387
1750560784909571800,2.85257177734375,6.715050220489502,7.395000457763672,0.25005000829696655
1750560784919176400,2.862176513671875,6.604050159454346,7.3999505043029785,0.32100000977516174
1750560784928781000,2.871781005859375,6.523050308227539,7.327950477600098,0.43905001878738403
1750560784938386000,2.881385986328125,6.466050148010254,7.25100040435791,0.5509500503540039
1750560784947990500,2.890990478515625,6.478050231933594,7.278000354766846,0.5179499983787537
1750560784957595100,2.90059521484375,6.375000476837158,7.380000114440918,0.283050000667572
1750560784967200000,2.910199951171875,6.451050281524658,7.488000392913818,0.08700000494718552
1750560784976804400,2.919804443359375,6.631050109863281,7.576950550079346,0.027000000700354576
1750560784986409200,2.9294091796875,6.679050445556641,7.531050205230713,0.14205001294612885
1750560784996014300,2.939014404296875,6.753000259399414,7.351950168609619,0.34095001220703125
1750560785005619000,2.948618896484375,6.838950157165527,7.231950283050537,0.5010000467300415
1750560785015223600,2.9582236328125,6.724050521850586,7.102950572967529,0.5610000491142273
1750560785024828200,2.967828125,6.561000347137451,7.111950397491455,0.46995002031326294
1750560785034433000,2.97743310546875,6.336000442504883,7.222050189971924,0.36705002188682556
1750560785044037400,2.987037353515625,6.130050182342529,7.258050441741943,0.36000001430511475
1750560785053642200,2.996642333984375,6.075000286102295,7.371000289916992,0.47700002789497375
1750560785063246800,3.006246826171875,6.193050384521484,7.309050559997559,0.46995002031326294
1750560785072851500,3.0158515625,6.364950180053711,7.2300004959106445,0.41700002551078796
1750560785082456300,3.025456298828125,6.298050403594971,7.099950313568115,0.3169500231742859
1750560785092061200,3.035061279296875,6.1180500984191895,7.074000358581543,0.1680000126361847
1750560785101665800,3.044665771484375,6.046950340270996,7.179000377655029,-0.07005000114440918
1750560785111270400,3.0542705078125,6.564000129699707,7.363950252532959,0.15105000138282776
1750560785120875300,3.063875244140625,6.838950157165527,7.375950336456299,0.22305001318454742
1750560785130479900,3.07347998046875,6.813000202178955,7.309050559997559,0.0580500029027462
1750560785140084700,3.083084716796875,6.8680500984191895,7.32105016708374,0.08400000631809235
1750560785149689300,3.092689453125,6.796050548553467,7.131000518798828,0.15405000746250153
1750560785159294000,3.1022939453125,6.736050128936768,7.122000217437744,0.22800001502037048
1750560785168898600,3.111898681640625,6.657000541687012,7.266000270843506,0.33105000853538513
1750560785178503200,3.121503173828125,6.565950393676758,7.35705041885376,0.3960000276565552
1750560785188108300,3.1311083984375,6.442050457000732,7.311000347137451,0.2689500153064728
1750560785197713000,3.140712890625,6.388950347900391,7.351950168609619,0.13199999928474426
1750560785207317500,3.1503173828125,6.505950450897217,7.4569501876831055,-0.00795000046491623
1750560785216922400,3.15992236328125,6.664050102233887,7.438050270080566,-0.09195000678300858
1750560785226527000,3.16952685546875,6.826950550079346,7.407000541687012,-0.1489500105381012
1750560785236131600,3.179131591796875,7.038000106811523,7.438050270080566,-0.06795000284910202
1750560785245736400,3.188736328125,7.059000492095947,7.3999505043029785,0.1270500123500824
1750560785255341000,3.198341064453125,7.009050369262695,7.335000514984131,0.2639999985694885
1750560785264945700,3.207945556640625,6.973050117492676,7.254000186920166,0.3379500210285187
1750560785274550300,3.21755029296875,6.892050266265869,7.191000461578369,0.3450000286102295
1750560785284155100,3.227155029296875,6.850950241088867,7.189050197601318,0.23295001685619354
1750560785293760000,3.236760009765625,6.748050212860107,7.242000579833984,0.07200000435113907
1750560785303364600,3.246364501953125,6.676050186157227,7.411950588226318,-0.18495000898838043
1750560785312969200,3.25596923828125,6.640050411224365,7.561950206756592,-0.2740500271320343
1750560785322573800,3.26557373046875,6.528000354766846,7.567050457000732,-0.20400001108646393
1750560785332178700,3.2751787109375,6.303000450134277,7.584000587463379,-0.04200000315904617
1750560785341783600,3.284783447265625,6.211950302124023,7.464000225067139,0.1660500019788742
1750560785351388200,3.29438818359375,6.109050273895264,7.342050552368164,0.32895001769065857
1750560785360992800,3.30399267578125,6.007950305938721,7.237050533294678,0.4339500069618225
1750560785370597600,3.31359765625,6.0010504722595215,7.2460503578186035,0.4050000309944153
1750560785380202200,3.3232021484375,6.037050247192383,7.2870001792907715,0.3739500045776367
1750560785389807000,3.33280712890625,6.2910003662109375,7.330050468444824,0.3430500030517578
1750560785399411500,3.342411376953125,6.532950401306152,7.35705041885376,0.22095000743865967
1750560785409016300,3.352016357421875,6.573000431060791,7.351950168609619,0.12000000476837158
1750560785418621000,3.361620849609375,6.592050075531006,7.324950218200684,0.12300000339746475
1750560785428225800,3.371225830078125,6.487050533294678,7.267950534820557,0.17505000531673431
1750560785437830400,3.380830322265625,6.4009504318237305,7.234050273895264,0.19905000925064087
1750560785447435000,3.39043505859375,6.375000476837158,7.261050224304199,0.283050000667572
1750560785457040000,3.400039794921875,6.51300048828125,7.327950477600098,0.2760000228881836
1750560785466644700,3.409644775390625,6.5590500831604,7.33305025100708,0.2569500207901001
1750560785476249300,3.419249267578125,6.727050304412842,7.354050159454346,0.23295001685619354
1750560785485854000,3.42885400390625,6.892050266265869,7.360950469970703,0.15105000138282776
1750560785495458600,3.43845849609375,6.979950428009033,7.2460503578186035,0.1870500147342682
1750560785505063200,3.448063232421875,6.862950325012207,7.1770501136779785,0.25394999980926514
1750560785514668000,3.45766796875,6.757950305938721,7.134000301361084,0.3720000088214874
1750560785524272600,3.467272705078125,6.552000522613525,7.1170501708984375,0.4939500093460083
1750560785533877200,3.476877197265625,6.409950256347656,7.165050506591797,0.5010000467300415
1750560785543482000,3.486482177734375,6.300000190734863,7.279950141906738,0.3450000286102295
1750560785553087000,3.4960869140625,6.276000499725342,7.392000198364258,0.13500000536441803
1750560785562691600,3.505691650390625,6.432000160217285,7.483050346374512,0.016950000077486038
1750560785572296400,3.51529638671875,6.577950477600098,7.420950412750244,0.00795000046491623
1750560785581901000,3.524901123046875,6.6910505294799805,7.360950469970703,0.06300000101327896
1750560785591505700,3.534505615234375,6.721950531005859,7.288950443267822,0.24495001137256622
1750560785601110500,3.544110595703125,6.604050159454346,7.234050273895264,0.36705002188682556
1750560785610715100,3.553715087890625,6.547050476074219,7.318050384521484,0.3550500273704529
1750560785620319700,3.56331982421875,6.552000522613525,7.387950420379639,0.25005000829696655
1750560785629924400,3.57292431640625,6.600000381469727,7.359000205993652,0.12495000660419464
1750560785639529500,3.582529541015625,6.568950176239014,7.324950218200684,0.09600000083446503
1750560785649134000,3.592134033203125,6.493950366973877,7.273050308227539,0.12300000339746475
1750560785658738700,3.60173876953125,6.528000354766846,7.189050197601318,0.18300001323223114
1750560785668343600,3.611343505859375,6.556950092315674,7.210050106048584,0.2179500162601471
1750560785677948200,3.6209482421875,6.547050476074219,7.327950477600098,0.14400000870227814
1750560785687552800,3.630552734375,6.624000549316406,7.390050411224365,0.08205000311136246
1750560785697157600,3.64015771484375,6.712050437927246,7.371000289916992,0.043950002640485764
1750560785706762200,3.64976220703125,6.6910505294799805,7.380000114440918,0.06300000101327896
1750560785716366800,3.659366943359375,6.657000541687012,7.327950477600098,0.11805000901222229
1750560785725971700,3.6689716796875,6.660000324249268,7.291950225830078,0.12000000476837158
1750560785735576300,3.678576416015625,6.636000156402588,7.323000431060791,0.028950002044439316
1750560785745181000,3.688180908203125,6.652050495147705,7.335000514984131,0.05595000088214874
1750560785754785500,3.69778564453125,6.676050186157227,7.354050159454346,0.10605000704526901
1750560785764390400,3.707390380859375,6.6910505294799805,7.266000270843506,0.26205000281333923
1750560785773995300,3.716995361328125,6.694950103759766,7.203000545501709,0.33105000853538513
1750560785783599900,3.726599853515625,6.7669501304626465,7.243950366973877,0.22095000743865967
1750560785793204700,3.736204833984375,6.856050491333008,7.285050392150879,0.04605000093579292
1750560785802809300,3.745809326171875,6.901050090789795,7.2870001792907715,-0.04200000315904617
1750560785812414000,3.7554140625,6.8610005378723145,7.198950290679932,0.11505000293254852
1750560785822018600,3.7650185546875,6.805950164794922,7.183950424194336,0.3240000009536743
1750560785831623400,3.77462353515625,6.718950271606445,7.2300004959106445,0.30705001950263977
1750560785841228000,3.78422802734375,6.772050380706787,7.330050468444824,0.24000000953674316
1750560785850832600,3.79383251953125,6.865050315856934,7.395000457763672,0.25005000829696655
1750560785860437500,3.8034375,6.729000091552734,7.33305025100708,0.33105000853538513
1750560785870042000,3.8130419921875,6.517950534820557,7.255950450897217,0.40995001792907715
1750560785879647000,3.82264697265625,6.444000244140625,7.294050216674805,0.3240000009536743
1750560785889251800,3.832251953125,6.481950283050537,7.2870001792907715,0.2160000056028366
1750560785898856400,3.8418564453125,6.492000102996826,7.402050495147705,0.016950000077486038
1750560785908461000,3.8514609375,6.421950340270996,7.455000400543213,-0.09195000678300858
1750560785918066000,3.86106591796875,6.487050533294678,7.4239501953125,-0.018000001087784767
1750560785927670500,3.87067041015625,6.51300048828125,7.303950309753418,0.0580500029027462
1750560785937275100,3.880275146484375,6.516000270843506,7.255950450897217,0.043950002640485764
1750560785946880000,3.8898798828125,6.556950092315674,7.213050365447998,0.06300000101327896
1750560785956484600,3.899484619140625,6.525000095367432,7.198950290679932,0.07005000114440918
1750560785966089500,3.90908935546875,6.57105016708374,7.189050197601318,0.11805000901222229
1750560785975694300,3.9186943359375,6.7669501304626465,7.191000461578369,0.15105000138282776
1750560785985299000,3.928298828125,6.928050518035889,7.242000579833984,0.1660500019788742
1750560785994903600,3.937903564453125,6.9559502601623535,7.285050392150879,0.11100000888109207
1750560786004508200,3.947508056640625,6.798000335693359,7.254000186920166,0.11805000901222229
1750560786014113000,3.957113037109375,6.436950206756592,7.278000354766846,0.0580500029027462
1750560786023717600,3.966717529296875,6.244950294494629,7.32105016708374,-0.006000000052154064
1750560786033322200,3.976322265625,6.23805046081543,7.354050159454346,0.019950000569224358
1750560786042927000,3.985927001953125,6.23805046081543,7.392000198364258,0.05295000225305557
1750560786052532000,3.995531982421875,6.339000225067139,7.407000541687012,0.12495000660419464
1750560786062136600,4.005136474609375,6.532950401306152,7.323000431060791,0.19500000774860382
1750560786071741400,4.014741455078125,6.6499505043029785,7.3060503005981445,0.208950012922287
1750560786081346000,4.024345947265625,6.703050136566162,7.267950534820557,0.15600000321865082
1750560786090950700,4.03395068359375,6.7699503898620605,7.2270002365112305,0.07500000298023224
1750560786100555500,4.043555419921875,6.79395055770874,7.210050106048584,0.027000000700354576
1750560786110160100,4.05316015625,6.844050407409668,7.194000244140625,0.0799500048160553
1750560786119765000,4.062764892578125,6.943950176239014,7.1670002937316895,0.14400000870227814
1750560786129369600,4.07236962890625,6.942000389099121,7.23900032043457,0.003000000026077032
1750560786138974500,4.081974365234375,7.006950378417969,7.348950386047363,-0.14400000870227814
1750560786148579000,4.0915791015625,6.808050155639648,7.299000263214111,-0.19200000166893005
1750560786158184000,4.101183837890625,6.492000102996826,7.32105016708374,-0.07304999977350235
1750560786167788300,4.110788330078125,6.336000442504883,7.266000270843506,0.06495000422000885
1750560786177393200,4.12039306640625,6.355050086975098,7.261050224304199,0.1680000126361847
1750560786186998000,4.129998046875,6.384000301361084,7.279950141906738,0.21105000376701355
1750560786196602600,4.1396025390625,6.6160502433776855,7.32105016708374,0.2350500077009201
1750560786206207200,4.149207275390625,6.829050540924072,7.311000347137451,0.11295000463724136
1750560786215812000,4.15881201171875,6.87000036239624,7.351950168609619,-0.06495000422000885
1750560786225416700,4.168416748046875,6.7860002517700195,7.297050476074219,-0.0010500000789761543
1750560786235021300,4.178021240234375,6.444000244140625,7.218000411987305,0.15405000746250153
1750560786244626000,4.1876259765625,6.229050159454346,7.237050533294678,0.26205000281333923
1750560786254230800,4.197230712890625,6.193050384521484,7.267950534820557,0.2740500271320343
1750560786263835400,4.20683544921875,6.247950077056885,7.324950218200684,0.24195000529289246
1750560786273440000,4.21643994140625,6.424950122833252,7.288950443267822,0.2760000228881836
1750560786283044900,4.226044921875,6.408000469207764,7.23900032043457,0.29295000433921814
1750560786292649500,4.2356494140625,6.343050479888916,7.303950309753418,0.06795000284910202
1750560786302254300,4.24525439453125,6.433950424194336,7.468950271606445,-0.17595000565052032
1750560786311859200,4.254859130859375,6.576000213623047,7.419000148773193,-0.19200000166893005
1750560786321463800,4.2644638671875,6.643050193786621,7.3399505615234375,-0.10095000267028809
1750560786331068400,4.274068359375,6.841050148010254,7.3399505615234375,0.06000000238418579
1750560786340673300,4.28367333984375,6.970950126647949,7.282050132751465,0.2350500077009201
1750560786350278000,4.29327783203125,6.801000118255615,7.243950366973877,0.36000001430511475
1750560786359882500,4.302882568359375,6.669000148773193,7.1670002937316895,0.3720000088214874
1750560786369487400,4.3124873046875,6.541950225830078,7.1770501136779785,0.3240000009536743
1750560786379092000,4.322092041015625,6.267000198364258,7.480950355529785,-0.6520500183105469
1750560786388697000,4.331697021484375,6.415050506591797,8.544000625610352,-2.5890002250671387
1750560786398301700,4.3413017578125,6.693000316619873,9.255000114440918,-4.23900032043457
1750560786407906300,4.35090625,6.504000186920166,10.033050537109375,-5.824050426483154
1750560786417511200,4.36051123046875,6.0199503898620605,10.381050109863281,-6.346050262451172
1750560786427115800,4.37011572265625,5.002950191497803,9.724050521850586,-6.01800012588501
1750560786436720400,4.379720458984375,4.258049964904785,9.805950164794922,-6.60705041885376
1750560786446325000,4.389324951171875,3.375000238418579,9.025050163269043,-5.806950092315674
1750560786455929900,4.398929931640625,2.259000062942505,7.312950134277344,-4.617000102996826
1750560786465534500,4.408534423828125,1.9690500497817993,6.823050498962402,-4.4160003662109375
1750560786475139300,4.418139404296875,2.6490001678466797,6.850950241088867,-5.716050148010254
1750560786484744000,4.427743896484375,3.6910502910614014,6.174000263214111,-5.316000461578369
1750560786494348800,4.437348876953125,4.660050392150879,4.6870503425598145,-3.384000062942505
1750560786503953400,4.446953369140625,5.344950199127197,3.444000244140625,-0.1969500035047531
1750560786513558000,4.45655810546875,6.76200008392334,1.9410001039505005,5.425950050354004
1750560786523163000,4.466162841796875,8.709000587463379,0.934950053691864,10.131000518798828
1750560786532767500,4.475767578125,11.143950462341309,0.4540500342845917,12.259050369262695
1750560786542372000,4.4853720703125,12.894001007080078,0.2569500207901001,12.123000144958496
1750560786551977000,4.49497705078125,13.219950675964355,0.7320000529289246,10.489950180053711
1750560786561581600,4.50458154296875,11.926950454711914,1.5859500169754028,9.304950714111328
1750560786571186400,4.5141865234375,10.6360502243042,1.6960500478744507,8.551050186157227
1750560786580791300,4.523791259765625,11.185050964355469,1.0090500116348267,8.20305061340332
1750560786590396000,4.53339599609375,12.15000057220459,0.5899500250816345,8.011950492858887
1750560786600000500,4.54300048828125,12.445950508117676,0.5640000104904175,7.9830002784729
1750560786609605400,4.55260546875,12.958950996398926,0.2740500271320343,8.598000526428223
1750560786619210000,4.5622099609375,13.327950477600098,-0.4330500066280365,9.49905014038086
1750560786628814600,4.571814697265625,12.813000679016113,-1.144950032234192,10.84005069732666
1750560786638419500,4.58141943359375,11.38800048828125,-1.0270500183105469,10.605000495910645
1750560786648024000,4.591024169921875,9.568950653076172,-0.22800001502037048,7.618950366973877
1750560786657629000,4.60062890625,8.8410005569458,0.921000063419342,3.2500500679016113
1750560786667233800,4.61023388671875,8.338050842285156,2.4529500007629395,-1.0969500541687012
1750560786676838400,4.61983837890625,7.9960503578186035,5.125050067901611,-5.794950485229492
1750560786686443000,4.629443115234375,7.180950164794922,8.07194995880127,-7.4569501876831055
1750560786696047900,4.6390478515625,5.695050239562988,8.688000679016113,-5.16795015335083
1750560786705652500,4.648652587890625,5.244000434875488,8.032050132751465,-1.7770501375198364
1750560786715257000,4.658257080078125,5.517000198364258,7.146000385284424,0.37905001640319824
1750560786724862000,4.667862060546875,5.742000102996826,7.266000270843506,0.13500000536441803
1750560786734466600,4.677466552734375,5.93595027923584,7.776000499725342,-0.7140000462532043
1750560786744071400,4.687071533203125,5.455050468444824,8.259000778198242,-1.300950050354004
1750560786753676000,4.696676025390625,4.768050193786621,8.479050636291504,-1.4970000982284546
1750560786763280600,4.70628076171875,4.110000133514404,8.593950271606445,-1.6530001163482666
1750560786772885500,4.715885498046875,3.492000102996826,8.593950271606445,-1.842000126838684
1750560786782490400,4.725490478515625,3.6120002269744873,9.09000015258789,-2.565000057220459
1750560786792095000,4.735094970703125,4.138050079345703,9.42300033569336,-3.0490500926971436
1750560786801699800,4.744699951171875,4.3660502433776855,9.169050216674805,-2.6580002307891846
1750560786811304400,4.754304443359375,4.521000385284424,8.709000587463379,-1.662000060081482
1750560786820909000,4.763908935546875,5.308950424194336,8.166000366210938,-0.6330000162124634
1750560786830513700,4.773513671875,6.195000171661377,7.648950576782227,-0.06105000153183937
1750560786840118500,4.783118408203125,6.601950168609619,7.390050411224365,0.06795000284910202
1750560786849723100,4.79272314453125,6.760050296783447,7.483050346374512,-0.4339500069618225
1750560786859328000,4.802327880859375,7.05495023727417,7.689000129699707,-1.0140000581741333
1750560786868932600,4.8119326171875,6.660000324249268,7.729950428009033,-1.4250000715255737
1750560786878537500,4.821537353515625,6.283950328826904,7.9069504737854,-1.5709500312805176
1750560786888142300,4.831142333984375,6.633000373840332,7.768050193786621,-1.2940500974655151
1750560786897747000,4.840746826171875,7.336950302124023,7.335000514984131,-0.7120500206947327
1750560786907351800,4.850351806640625,7.864050388336182,6.916050434112549,0.05595000088214874
1750560786916956400,4.859956298828125,7.942950248718262,6.613950252532959,0.7120500206947327
1750560786926561000,4.86956103515625,7.471050262451172,6.5620503425598145,0.9510000348091125
1750560786936165600,4.87916552734375,7.342050552368164,6.757950305938721,0.6780000329017639
1750560786945770500,4.8887705078125,7.327950477600098,6.898950099945068,0.47700002789497375
1750560786955375000,4.898375,7.071000099182129,6.801000118255615,0.7000500559806824
1750560786964979700,4.907979736328125,6.89400053024292,6.732000350952148,1.1040000915527344
1750560786974584600,4.91758447265625,6.898950099945068,6.736050128936768,1.0440000295639038
1750560786984189200,4.927189208984375,7.315950393676758,6.832050323486328,0.7810500264167786
1750560786993794000,4.9367939453125,7.438050270080566,6.756000518798828,0.9490500688552856
1750560787003399000,4.94639892578125,7.14300012588501,6.688950538635254,1.2190500497817993
1750560787013003500,4.95600341796875,6.8680500984191895,6.825000286102295,1.26705002784729
1750560787022608400,4.9656083984375,6.904050350189209,6.885000228881836,1.3129500150680542
1750560787032213000,4.975212890625,7.282050132751465,6.624000549316406,1.588050127029419
1750560787041817600,4.984817626953125,7.384950160980225,6.577950477600098,1.4160000085830688
1750560787051422500,4.99442236328125,7.255950450897217,6.8610005378723145,0.7309500575065613
1750560787061027000,5.004027099609375,7.021050453186035,7.171950340270996,0.12495000660419464
1750560787070632000,5.0136318359375,6.589950084686279,7.23900032043457,0.09195000678300858
1750560787080236500,5.023236572265625,6.28095006942749,7.1700005531311035,0.5820000171661377
1750560787089841400,5.03284130859375,6.19005012512207,6.922950267791748,1.2030000686645508
1750560787099446000,5.042446044921875,6.288000106811523,6.814950466156006,1.576050043106079
1750560787109051000,5.05205078125,6.532950401306152,6.892050266265869,1.576050043106079
1750560787118655500,5.061655517578125,6.897000312805176,7.0600504875183105,1.0639500617980957
1750560787128260000,5.071260009765625,7.248000144958496,7.195950508117676,0.5389500260353088
1750560787137864700,5.08086474609375,7.129050254821777,7.174950122833252,0.325950026512146
1750560787147469600,5.090469482421875,6.77400016784668,7.134000301361084,0.40995001792907715
1750560787157074400,5.100074462890625,6.444000244140625,7.039950370788574,0.703950047492981
1750560787166679000,5.109678955078125,6.235950469970703,6.930000305175781,0.9300000667572021
1750560787176283600,5.11928369140625,6.264000415802002,6.990000247955322,0.9100500345230103
1750560787185888500,5.128888427734375,6.529950141906738,7.05495023727417,0.6690000295639038
1750560787195493000,5.1384931640625,6.6910505294799805,7.218000411987305,0.31905001401901245
1750560787205098000,5.148097900390625,6.885000228881836,7.299000263214111,0.11100000888109207
1750560787214702600,5.15770263671875,7.04295015335083,7.360950469970703,0.08400000631809235
1750560787224307500,5.167307373046875,6.9970502853393555,7.215000152587891,0.36000001430511475
1750560787243516700,5.1865166015625,6.979950428009033,6.985050201416016,0.9750000238418579
1750560787253121500,5.19612158203125,6.88200044631958,6.922950267791748,1.059000015258789
1750560787262726100,5.20572607421875,6.703050136566162,6.9810004234313965,1.0420500040054321
1750560787272331000,5.2153310546875,6.445950508117676,7.108050346374512,0.8220000267028809
1750560787281935600,5.224935546875,6.4609503746032715,7.1509504318237305,0.6810000538825989
1750560787291540500,5.23454052734375,6.492000102996826,7.0909504890441895,0.6970500349998474
1750560787301145300,5.244145263671875,6.592050075531006,7.074000358581543,0.6880500316619873
1750560787310750000,5.25375,6.850950241088867,7.123950481414795,0.7189500331878662
1750560787320354600,5.2633544921875,6.961050510406494,7.131000518798828,0.6040500402450562
1750560787329959200,5.272959228515625,6.949050426483154,7.282050132751465,0.4030500054359436
1750560787339564000,5.28256396484375,6.609000205993652,7.3660502433776855,0.22800001502037048
1750560787349168600,5.292168701171875,6.382050514221191,7.407000541687012,0.24000000953674316
1750560787358773500,5.3017734375,6.364950180053711,7.285050392150879,0.33105000853538513
1750560787368378000,5.311378173828125,6.478050231933594,7.114950180053711,0.5419500470161438
1750560787377983000,5.32098291015625,6.648000240325928,7.038000106811523,0.8359500169754028
1750560787387587800,5.330587890625,6.801000118255615,6.95205020904541,0.9559500217437744
1750560787397192400,5.3401923828125,7.006950378417969,7.039950370788574,0.7840500473976135
1750560787406797000,5.349797119140625,7.210050106048584,7.2270002365112305,0.4120500087738037
1750560787416402000,5.35940185546875,7.099950313568115,7.2270002365112305,0.15600000321865082
1750560787426006800,5.3690068359375,6.790950298309326,7.300950527191162,0.19005000591278076
1750560787435611100,5.378611083984375,6.556950092315674,7.2300004959106445,0.4909500181674957
1750560787445216000,5.388216064453125,6.609000205993652,7.050000190734863,0.7570500373840332
1750560787454820900,5.39782080078125,6.655050277709961,6.982950210571289,0.8940000534057617
1750560787464425500,5.407425537109375,6.5590500831604,7.036050319671631,0.8359500169754028
1750560787474030300,5.4170302734375,6.4609503746032715,7.207950115203857,0.6660000085830688
1750560787483635000,5.426635009765625,6.339000225067139,7.266000270843506,0.5899500250816345
1750560787493239800,5.43623974609375,6.415050506591797,7.222050189971924,0.6450000405311584
1750560787502844400,5.445844482421875,6.609000205993652,7.153050422668457,0.6810000538825989
1750560787512449300,5.45544921875,6.885000228881836,7.123950481414795,0.5850000381469727
1750560787522054000,5.465053955078125,6.925050258636475,7.159950256347656,0.5059500336647034
1750560787531658800,5.47465869140625,6.856050491333008,7.218000411987305,0.5059500336647034
1750560787541263400,5.484263427734375,6.733950138092041,7.231950283050537,0.5539500117301941
1750560787550868200,5.4938681640625,6.535050392150879,7.207950115203857,0.6420000195503235
1750560787560473000,5.50347314453125,6.267000198364258,7.210050106048584,0.7189500331878662
1750560787570077700,5.51307763671875,6.178050518035889,7.243950366973877,0.7330500483512878
1750560787579682300,5.522682373046875,6.2719502449035645,7.3060503005981445,0.5080500245094299
1750560787589287200,5.532287109375,6.60705041885376,7.372950553894043,0.2740500271320343
1750560787598891800,5.541891845703125,6.730950355529785,7.34505033493042,0.19905000925064087
1750560787608496400,5.551496337890625,6.8680500984191895,7.327950477600098,0.25905001163482666
1750560787618101200,5.561101318359375,7.098000526428223,7.25100040435791,0.4030500054359436
1750560787627706000,5.5707060546875,6.958950519561768,7.186950206756592,0.5899500250816345
1750560787637310700,5.580310791015625,6.6499505043029785,7.135950565338135,0.7950000166893005
1750560787646915600,5.58991552734375,6.4270501136779785,7.07895040512085,0.9150000214576721
1750560787656520200,5.599520263671875,6.2410502433776855,7.045050144195557,0.8820000290870667
1750560787666124800,5.609124755859375,6.259950160980225,7.198950290679932,0.6589500308036804
1750560787675729700,5.618729736328125,6.553950309753418,7.186950206756592,0.597000002861023
1750560787685334300,5.628334228515625,6.745950222015381,7.093050479888916,0.5730000138282776
1750560787694939000,5.63793896484375,6.916050434112549,7.122000217437744,0.609000027179718
1750560787704543700,5.647543701171875,7.021050453186035,7.099950313568115,0.6250500082969666
1750560787714148400,5.6571484375,7.04295015335083,7.0570502281188965,0.5800500512123108
1750560787723753000,5.6667529296875,7.030950546264648,7.050000190734863,0.4510500133037567
1750560787733357800,5.67635791015625,6.777000427246094,7.131000518798828,0.36000001430511475
1750560787742962400,5.68596240234375,6.451050281524658,7.129050254821777,0.5110500454902649
1750560787752567300,5.6955673828125,6.327000141143799,6.9210004806518555,0.9769500494003296
1750560787762172200,5.705172119140625,6.336000442504883,6.885000228881836,1.1640000343322754
1750560787771776800,5.71477685546875,6.565950393676758,6.993000507354736,1.0489500761032104
1750560787781381600,5.724381591796875,6.94005012512207,7.036050319671631,0.7669500112533569
1750560787790986200,5.733986328125,7.2270002365112305,7.210050106048584,0.30000001192092896
1750560787800590800,5.7435908203125,7.150050163269043,7.309050559997559,0.0580500029027462
1750560787810195700,5.75319580078125,7.038000106811523,7.34505033493042,0.07200000435113907
1750560787819800300,5.76280029296875,6.801000118255615,7.278000354766846,0.283050000667572
1750560787829405200,5.7724052734375,6.492000102996826,7.186950206756592,0.5629500150680542
1750560787839010000,5.782010009765625,6.484950542449951,7.102950572967529,0.7330500483512878
1750560787848614700,5.79161474609375,6.660000324249268,7.033050537109375,0.7020000219345093
1750560787858219300,5.80121923828125,6.748050212860107,7.045050144195557,0.6019500494003296
1750560787867824000,5.81082421875,6.745950222015381,7.0759501457214355,0.5110500454902649
1750560787877429000,5.820428955078125,6.730950355529785,7.179000377655029,0.3379500210285187
1750560787887033600,5.83003369140625,6.822000503540039,7.309050559997559,0.15900000929832458
1750560787896638200,5.83963818359375,6.8460001945495605,7.3470001220703125,0.15105000138282776
1750560787906242800,5.849242919921875,6.76200008392334,7.330050468444824,0.28095000982284546
1750560787915847700,5.85884765625,6.5400004386901855,7.2300004959106445,0.46695002913475037
1750560787925452300,5.868452392578125,6.217050075531006,7.243950366973877,0.6139500141143799
1750560787935057200,5.87805712890625,6.091950416564941,7.231950283050537,0.6709500551223755
1750560787944661800,5.887661865234375,6.109050273895264,7.335000514984131,0.5509500503540039
1750560787954266600,5.8972666015625,6.250050067901611,7.419000148773193,0.42000001668930054
1750560787963871500,5.90687158203125,6.57105016708374,7.3999505043029785,0.34095001220703125
1750560787973476000,5.91647607421875,6.949050426483154,7.348950386047363,0.18000000715255737
1750560787983080700,5.926080810546875,7.315950393676758,7.254000186920166,0.15600000321865082
1750560787992685600,5.935685546875,7.444950580596924,7.102950572967529,0.2569500207901001
1750560788002290200,5.945290283203125,7.291950225830078,7.038000106811523,0.3049500286579132
1750560788011895000,5.95489501953125,7.035000324249268,7.108050346374512,0.29295000433921814
1750560788021499600,5.964499755859375,6.844050407409668,7.222050189971924,0.20595000684261322
1750560788031104500,5.9741044921875,6.6499505043029785,7.23900032043457,0.325950026512146
1750560788040709400,5.98370947265625,6.577950477600098,7.1670002937316895,0.5749500393867493
1750560788050314000,5.99331396484375,6.613950252532959,7.0909504890441895,0.7189500331878662
1750560788059918800,6.0029189453125,6.784050464630127,6.96405029296875,0.775950014591217
1750560788069523500,6.0125234375,6.802950382232666,6.973050117492676,0.6250500082969666
1750560788079128000,6.022128173828125,6.841050148010254,7.122000217437744,0.34995001554489136
1750560788088733000,6.03173291015625,6.789000511169434,7.26300048828125,0.15600000321865082
1750560788098337500,6.041337646484375,6.694950103759766,7.323000431060791,0.18300001323223114
1750560788107942100,6.050942138671875,6.504000186920166,7.309050559997559,0.34095001220703125
1750560788117547000,6.060547119140625,6.448950290679932,7.201050281524658,0.6180000305175781
1750560788127151900,6.07015185546875,6.565950393676758,7.0600504875183105,0.859950065612793
1750560788136756500,6.079756591796875,6.79395055770874,7.006950378417969,0.8700000643730164
1750560788146361000,6.089361083984375,6.967950344085693,7.07205057144165,0.6210000514984131
1750560788155966000,6.098966064453125,6.999000549316406,7.2270002365112305,0.3139500021934509
1750560788165570600,6.108570556640625,6.700050354003906,7.384950160980225,0.22800001502037048
1750560788175175400,6.118175537109375,6.4270501136779785,7.44795036315918,0.2569500207901001
1750560788184780000,6.127780029296875,6.348000526428223,7.492950439453125,0.2569500207901001
1750560788194385000,6.137385009765625,6.576000213623047,7.4239501953125,0.2350500077009201
1750560788203989500,6.146989501953125,6.832050323486328,7.303950309753418,0.22605000436306
1750560788213594400,6.156594482421875,6.991950511932373,7.195950508117676,0.33105000853538513
1750560788223199200,6.16619921875,6.925050258636475,7.039950370788574,0.4909500181674957
1750560788232803800,6.175803955078125,6.68595027923584,7.018950462341309,0.534000039100647
1750560788242408400,6.185408447265625,6.655050277709961,7.14300012588501,0.4510500133037567
1750560788252013300,6.195013427734375,6.810000419616699,7.207950115203857,0.3049500286579132
1750560788261618000,6.204617919921875,7.15500020980835,7.183950424194336,0.32100000977516174
1750560788271222800,6.214222900390625,7.219950199127197,7.048050403594971,0.42900002002716064
1750560788280827600,6.22382763671875,6.966000556945801,6.98805046081543,0.5389500260353088
1750560788290432500,6.2334326171875,6.624000549316406,7.074000358581543,0.5080500245094299
1750560788300037000,6.243037109375,6.4009504318237305,7.153050422668457,0.42000001668930054
1750560788309641700,6.252641845703125,6.38700008392334,7.179000377655029,0.4600500166416168
1750560788319246300,6.262246337890625,6.403050422668457,7.179000377655029,0.5700000524520874
1750560788328851200,6.271851318359375,6.549000263214111,7.138950347900391,0.661050021648407
1750560788338455800,6.281455810546875,6.60705041885376,7.062000274658203,0.6490500569343567
1750560788348060700,6.291060791015625,6.703050136566162,6.993000507354736,0.6400500535964966
1750560788357665300,6.300665283203125,6.6190505027771,7.026000499725342,0.6349500417709351
1750560788367270000,6.310269775390625,6.457950115203857,7.098000526428223,0.5269500017166138
1750560788376874800,6.319874755859375,6.490050315856934,7.105050563812256,0.5680500268936157
1750560788386479400,6.329479248046875,6.508950233459473,7.165050506591797,0.42195001244544983
1750560788396084200,6.339084228515625,6.703050136566162,7.237050533294678,0.23295001685619354
1750560788405689000,6.348689208984375,7.009050369262695,7.3470001220703125,-0.283050000667572
1750560788415293700,6.358293701171875,7.011000156402588,7.479000568389893,-0.5490000247955322
1750560788424898300,6.367898193359375,6.592050075531006,7.480950355529785,-0.43905001878738403
1750560788434503200,6.377503173828125,6.259950160980225,7.471050262451172,-0.14205001294612885
1750560788444107800,6.387107666015625,6.3100504875183105,7.52400016784668,-0.29100000858306885
1750560788453712600,6.396712646484375,7.180950164794922,8.022000312805176,-1.2750000953674316
1750560788463317200,6.406317138671875,7.8259501457214355,8.404950141906738,-2.448000192642212
1750560788472922000,6.415922119140625,7.842000484466553,9.352950096130371,-5.235000133514404
1750560788482526700,6.425526611328125,6.694950103759766,10.845000267028809,-8.292000770568848
1750560788492131600,6.435131591796875,4.666950225830078,11.07705020904541,-9.324000358581543
1750560788501736400,6.444736328125,3.4990501403808594,10.656000137329102,-9.303000450134277
1750560788511341000,6.454341064453125,4.387050151824951,9.520950317382812,-7.914000511169434
1750560788520945700,6.463945556640625,5.455050468444824,8.235000610351562,-6.127950191497803
1750560788530550500,6.473550537109375,6.169050216674805,6.516000270843506,-3.553950071334839
1750560788540155100,6.483155029296875,6.027000427246094,5.347950458526611,-1.423050045967102
1750560788549759700,6.492759765625,5.473950386047363,5.1060004234313965,0.30195000767707825
1750560788559364600,6.502364501953125,5.095950126647949,4.6369500160217285,1.2190500497817993
1750560788568969200,6.51196923828125,5.557950496673584,4.479000091552734,3.4170000553131104
1750560788578573800,6.52157373046875,6.834000110626221,3.9469501972198486,6.027000427246094
1750560788588179000,6.531178955078125,9.159000396728516,3.394050121307373,8.182050704956055
1750560788597783600,6.540783447265625,11.422050476074219,2.785950183868408,8.713050842285156
1750560788607388400,6.550388427734375,11.934000968933105,2.785950183868408,8.079000473022461
1750560788616993000,6.559992919921875,10.500000953674316,3.2599501609802246,6.793050289154053
1750560788626598000,6.569597900390625,8.134050369262695,3.8779501914978027,5.2009501457214355
1750560788636202500,6.579202392578125,7.062000274658203,4.420950412750244,3.4170000553131104
1750560788645807000,6.58880712890625,7.062000274658203,4.861950397491455,2.3329501152038574
1750560788655412000,6.598411865234375,7.9860005378723145,4.8949503898620605,2.221950054168701
1750560788665016600,6.6080166015625,8.968050003051758,4.549950122833252,3.1440000534057617
1750560788674621200,6.61762109375,9.235950469970703,4.194000244140625,4.522950172424316
1750560788684226000,6.62722607421875,9.372000694274902,3.753000259399414,5.965050220489502
1750560788693831000,6.636830810546875,9.298050880432129,3.4830002784729004,7.047000408172607
1750560788703435500,6.646435546875,8.93595027923584,3.4009501934051514,7.534950256347656
1750560788713040400,6.656040283203125,8.419050216674805,3.364950180053711,7.82295036315918
1750560788722645200,6.665645263671875,7.845000267028809,3.415950059890747,7.72005033493042
1750560788732249900,6.675249755859375,7.888050556182861,3.7669501304626465,6.850950241088867
1750560788741854500,6.6848544921875,8.653950691223145,3.4300501346588135,6.312000274658203
1750560788751459300,6.694459228515625,9.229050636291504,2.9130001068115234,6.433950424194336
1750560788761064000,6.70406396484375,8.758950233459473,3.0610501766204834,6.19005012512207
1750560788770668800,6.713668701171875,7.857000350952148,3.3919501304626465,4.918050289154053
1750560788780273400,6.7232734375,6.982950210571289,3.616950273513794,3.3379502296447754
1750560788789878300,6.732878173828125,5.809950351715088,4.105050086975098,0.06795000284910202
1750560788799483100,6.742483154296875,4.861050128936768,6.487050533294678,-3.6349501609802246
1750560788809087700,6.752087646484375,5.467050075531006,8.223000526428223,-4.975950241088867
1750560788818692400,6.7616923828125,7.234050273895264,8.487000465393066,-4.5
1750560788828297000,6.771296875,9.793950080871582,7.73205041885376,-2.5960500240325928
1750560788837902000,6.780902099609375,11.043000221252441,6.574050426483154,-0.30000001192092896
1750560788847506700,6.790506591796875,10.82805061340332,5.805000305175781,1.7890501022338867
1750560788857111600,6.800111572265625,9.942000389099121,5.271000385284424,2.983950138092041
1750560788866716200,6.809716064453125,9.295950889587402,5.284950256347656,2.104950189590454
1750560788876320800,6.81932080078125,8.326050758361816,5.836050510406494,-0.39795002341270447
1750560788885925600,6.828925537109375,6.516000270843506,7.53795051574707,-3.6259500980377197
1750560788895530200,6.8385302734375,5.236950397491455,9.222000122070312,-5.254050254821777
1750560788905135000,6.848135009765625,4.962000370025635,9.468000411987305,-4.741950035095215
1750560788914739700,6.85773974609375,5.93595027923584,8.620950698852539,-2.9239501953125
1750560788924344300,6.86734423828125,6.295950412750244,7.7560505867004395,-1.0930500030517578
1750560788933949400,6.876949462890625,6.472950458526611,7.299000263214111,0.1270500123500824
1750560788943554000,6.886553955078125,6.463050365447998,7.017000198364258,0.8290500640869141
1750560788953159000,6.896158935546875,6.151950359344482,6.880050182342529,1.0090500116348267
1750560788962763500,6.905763427734375,6.111000061035156,6.9810004234313965,0.9270000457763672
1750560788972368100,6.9153681640625,6.601950168609619,7.285050392150879,-0.019950000569224358
1750560788981973000,6.924972900390625,7.480950355529785,7.627050399780273,-1.3699500560760498
1750560788991577600,6.93457763671875,7.390050411224365,8.00100040435791,-2.5530002117156982
1750560789001182200,6.94418212890625,7.15500020980835,8.122950553894043,-2.365950107574463
1750560789010787000,6.953787109375,6.604050159454346,7.560000419616699,-1.1500500440597534
1750560789020391700,6.9633916015625,5.917050361633301,7.23900032043457,-0.1399500072002411
1750560789029996500,6.97299658203125,5.685000419616699,7.039950370788574,0.5269500017166138
1750560789039601400,6.982601318359375,5.881050109863281,6.9810004234313965,0.5850000381469727
1750560789049206000,6.9922060546875,6.063000202178955,7.222050189971924,0.14400000870227814
1750560789058811000,7.001810791015625,6.358050346374512,7.278000354766846,-0.35805001854896545
1750560789068415500,7.01141552734375,6.715050220489502,7.387950420379639,-0.8239500522613525
1750560789078020400,7.021020263671875,6.999000549316406,7.4160003662109375,-0.8800500631332397
1750560789087625000,7.030625,7.090050220489502,7.324950218200684,-0.6660000085830688
1750560789097229800,7.040229736328125,6.844050407409668,7.0600504875183105,-0.18000000715255737
1750560789106834400,7.04983447265625,6.499050140380859,7.099950313568115,0.06300000101327896
1750560789116439300,7.059439208984375,6.211950302124023,7.063950538635254,0.23805001378059387
1750560789126044000,7.0690439453125,6.046950340270996,7.138950347900391,0.15900000929832458
1750560789135648800,7.078648681640625,6.3409504890441895,7.063950538635254,0.2950500249862671
1750560789145253400,7.08825341796875,6.916050434112549,6.87000036239624,0.5800500512123108
1750560789154858200,7.097858154296875,7.069050312042236,6.802950382232666,0.5940000414848328
1750560789164462800,7.107462890625,7.129050254821777,6.949950218200684,0.24000000953674316
1750560789174067700,7.117067626953125,7.191000461578369,7.194000244140625,-0.23295001685619354
1750560789183672300,7.12667236328125,6.745950222015381,7.191000461578369,-0.1879500150680542
1750560789193277000,7.13627685546875,6.379050254821777,7.182000160217285,0.13695000112056732
1750560789202881800,7.1458818359375,6.547050476074219,6.978000164031982,0.5539500117301941
1750560789212486400,7.155486328125,6.898950099945068,6.790950298309326,0.9250500202178955
1750560789222091500,7.165091552734375,7.026000499725342,6.784050464630127,0.9820500612258911
1750560789231696100,7.174696044921875,7.050000190734863,6.966000556945801,0.6420000195503235
1750560789241300700,7.18430078125,7.062000274658203,7.129050254821777,0.2569500207901001
1750560789250905600,7.193905517578125,6.95205020904541,7.194000244140625,0.10605000704526901
1750560789260510200,7.20351025390625,6.66195011138916,7.222050189971924,-0.022050000727176666
1750560789270114800,7.21311474609375,6.8460001945495605,7.207950115203857,0.004950000438839197
1750560789279719700,7.2227197265625,7.203000545501709,6.957000255584717,0.40995001792907715
1750560789289324500,7.232324462890625,7.018950462341309,6.765000343322754,0.6300000548362732
1750560789298929400,7.241929443359375,6.853050231933594,6.937950134277344,0.5700000524520874
1750560789308534000,7.251533935546875,6.69795036315918,7.14300012588501,0.3379500210285187
1750560789318138600,7.261138671875,6.468000411987305,7.270050525665283,0.3430500030517578
1750560789327743500,7.270743408203125,6.331050395965576,7.203000545501709,0.6880500316619873
1750560789337348400,7.280348388671875,6.553950309753418,7.2270002365112305,0.6490500569343567
1750560789346953000,7.289952880859375,7.047000408172607,7.138950347900391,0.6040500402450562
1750560789356557600,7.2995576171875,7.1260504722595215,6.925950527191162,0.5730000138282776
1750560789366162200,7.309162109375,6.874950408935547,6.925950527191162,0.4990500211715698
1750560789375767300,7.318767333984375,6.77400016784668,7.07205057144165,0.3550500273704529
1750560789385372000,7.328371826171875,6.496950149536133,7.34505033493042,0.24495001137256622
1750560789394976500,7.3379765625,6.22605037689209,7.44795036315918,0.13199999928474426
1750560789404581400,7.347581298828125,6.589950084686279,7.395000457763672,0.1660500019788742
1750560789414186000,7.35718603515625,6.898950099945068,6.973050117492676,0.45795002579689026
1750560789423790800,7.366790771484375,6.837000370025635,6.757950305938721,0.8100000619888306
1750560789433395500,7.3763955078125,6.694950103759766,6.757950305938721,0.7980000376701355
1750560789443000000,7.386,6.844050407409668,6.957000255584717,0.39795002341270447
1750560789452605000,7.39560498046875,6.7699503898620605,7.084050178527832,0.11505000293254852
1750560789462209800,7.405209716796875,6.657000541687012,7.215000152587891,0.004950000438839197
1750560789471814700,7.414814697265625,6.777000427246094,7.074000358581543,0.21405000984668732
1750560789481419300,7.424419189453125,6.990000247955322,6.933000564575195,0.4120500087738037
1750560789491024000,7.43402392578125,7.087950229644775,6.886950492858887,0.4410000145435333
1750560789500628700,7.443628662109375,7.063950538635254,6.993000507354736,0.22605000436306
1750560789510233300,7.4532333984375,6.8460001945495605,7.159950256347656,0.040950000286102295
1750560789519838200,7.462838134765625,6.57105016708374,7.201050281524658,0.05595000088214874
1750560789529442800,7.47244287109375,6.564000129699707,7.315950393676758,0.06495000422000885
1750560789539047700,7.482047607421875,6.922950267791748,7.288950443267822,0.15105000138282776
1750560789548652300,7.49165234375,7.33905029296875,7.114950180053711,0.17805001139640808
1750560789558257400,7.50125732421875,7.5169501304626465,7.006950378417969,0.12495000660419464
1750560789567861800,7.51086181640625,7.147950172424316,7.012050151824951,0.13500000536441803
1750560789577466600,7.520466552734375,6.636000156402588,7.045050144195557,0.25200000405311584
1750560789587071500,7.530071533203125,6.420000076293945,7.0759501457214355,0.3739500045776367
1750560789596676000,7.539676025390625,6.375000476837158,7.063950538635254,0.4819500148296356
1750560789606280700,7.54928076171875,6.51300048828125,7.0600504875183105,0.5250000357627869
1750560789615885600,7.558885498046875,6.705000400543213,7.099950313568115,0.40005001425743103
1750560789625490200,7.568490234375,6.805950164794922,7.131000518798828,0.12000000476837158
1750560789635094800,7.5780947265625,6.552000522613525,7.206000328063965,-0.006000000052154064
1750560789644699600,7.58769970703125,6.109050273895264,7.371000289916992,-0.018000001087784767
1750560789654304500,7.597304443359375,5.878950119018555,7.462050437927246,0.004950000438839197
1750560789663909400,7.606909423828125,6.115950107574463,7.515000343322754,0.0580500029027462
1750560789673514000,7.616513916015625,6.693000316619873,7.402050495147705,0.19005000591278076
1750560789683118600,7.62611865234375,7.330050468444824,7.174950122833252,0.34095001220703125
1750560789692723500,7.635723388671875,7.477950572967529,6.88200044631958,0.4339500069618225
1750560789702328000,7.645328125,7.395000457763672,6.849000453948975,0.40995001792907715
1750560789711933000,7.654932861328125,7.141050338745117,6.898950099945068,0.2639999985694885
1750560789721537500,7.66453759765625,6.918000221252441,7.002000331878662,0.1080000028014183
1750560789731142400,7.674142333984375,6.724050521850586,7.141050338745117,0.08895000070333481
1750560789740747300,7.683747314453125,6.682950496673584,7.165050506591797,0.21405000984668732
1750560789750352000,7.693351806640625,6.892050266265869,7.069050312042236,0.3049500286579132
1750560789759956700,7.702956787109375,7.05495023727417,6.958950519561768,0.31905001401901245
1750560789769561300,7.712561279296875,7.062000274658203,7.002000331878662,0.25200000405311584
1750560789779166000,7.722166015625,6.925050258636475,7.026000499725342,0.16095000505447388
1750560789788770800,7.731770751953125,6.633000373840332,7.050000190734863,0.1660500019788742
1750560789798375400,7.74137548828125,6.549000263214111,7.105050563812256,0.24000000953674316
1750560789807980300,7.750980224609375,6.645000457763672,7.126950263977051,0.2569500207901001
1750560789817585200,7.760585205078125,6.885000228881836,7.06695032119751,0.3049500286579132
1750560789827190000,7.77018994140625,6.943950176239014,6.994950294494629,0.30705001950263977
1750560789836794400,7.77979443359375,6.820050239562988,6.990000247955322,0.30195000767707825
1750560789846399200,7.789399169921875,6.640050411224365,6.990000247955322,0.30000001192092896
1750560789856004000,7.799004150390625,6.442050457000732,7.024050235748291,0.2880000174045563
1750560789865608700,7.808608642578125,6.319950103759766,7.108050346374512,0.30705001950263977
1750560789875213300,7.81821337890625,6.358050346374512,7.182000160217285,0.3430500030517578
1750560789884818200,7.827818115234375,6.669000148773193,7.159950256347656,0.40995001792907715
1750560789894422800,7.8374228515625,7.074000358581543,7.123950481414795,0.325950026512146
1750560789904027600,7.847027587890625,7.267950534820557,7.123950481414795,0.16305001080036163
1750560789913632300,7.85663232421875,7.035000324249268,7.198950290679932,-0.015000000596046448
1750560789923237000,7.866237060546875,6.631050109863281,7.282050132751465,-0.12495000660419464
1750560789932842000,7.875842041015625,6.339000225067139,7.43595027923584,-0.17805001139640808
1750560789942446600,7.885446533203125,6.32895040512085,7.43595027923584,-0.13005000352859497
1750560789952051500,7.895051513671875,6.57105016708374,7.387950420379639,-0.030000001192092896
1750560789961656000,7.904656005859375,6.95205020904541,7.2460503578186035,-0.027000000700354576
1750560789971260700,7.9142607421875,7.260000228881836,7.063950538635254,-0.022050000727176666
1750560789980865500,7.923865478515625,7.323000431060791,6.87000036239624,0.036000002175569534
1750560789990470400,7.933470458984375,7.207950115203857,6.9210004806518555,0.00795000046491623
1750560790000075000,7.943074951171875,6.925050258636475,7.026000499725342,0.003000000026077032
1750560790009680000,7.952679931640625,6.7669501304626465,7.050000190734863,0.12495000660419464
1750560790019284500,7.962284423828125,6.898950099945068,7.014000415802002,0.28995001316070557
1750560790028889300,7.971889404296875,7.095000267028809,6.95205020904541,0.28995001316070557
1750560790038494000,7.981493896484375,7.087950229644775,6.942000389099121,0.24195000529289246
1750560790048098800,7.991098876953125,6.832050323486328,6.961050510406494,0.2970000207424164
1750560790057703400,8.000703369140625,6.499050140380859,7.009050369262695,0.36900001764297485
1750560790067308300,8.010308349609375,6.256950378417969,7.141050338745117,0.3360000252723694
1750560790076913000,8.019912841796875,6.184950351715088,7.2270002365112305,0.2970000207424164
1750560790086517800,8.029517822265625,6.283950328826904,7.218000411987305,0.34995001554489136
1750560790096122600,8.03912255859375,6.580050468444824,7.135950565338135,0.37605002522468567
1750560790105727200,8.048727294921875,6.841050148010254,7.051950454711914,0.3550500273704529
1750560790115332000,8.05833203125,6.954000473022461,7.045050144195557,0.23805001378059387
1750560790124936700,8.067936767578125,6.865050315856934,7.114950180053711,0.05100000277161598
1750560790134541300,8.077541259765624,6.648000240325928,7.219950199127197,-0.08700000494718552
1750560790144146200,8.087146240234375,6.505950450897217,7.297050476074219,-0.12300000339746475
1750560790153750800,8.096750732421874,6.576000213623047,7.324950218200684,-0.019950000569224358
1750560790163355400,8.10635546875,6.715050220489502,7.218000411987305,0.1489500105381012
1750560790172960500,8.11596044921875,6.967950344085693,7.218000411987305,0.18495000898838043
1750560790182565400,8.1255654296875,7.074000358581543,7.215000152587891,0.04800000041723251
1750560790192170000,8.135169921875,7.135950565338135,7.215000152587891,0.003000000026077032
1750560790201774600,8.144774658203126,7.009050369262695,7.255950450897217,-0.05595000088214874
1750560790211379500,8.15437939453125,6.87000036239624,7.282050132751465,-0.09195000678300858
1750560790220984000,8.163984130859374,6.826950550079346,7.215000152587891,-0.027000000700354576
1750560790230588700,8.173588623046875,6.715050220489502,7.254000186920166,0.0010500000789761543
1750560790240193500,8.183193603515624,6.682950496673584,7.218000411987305,0.06300000101327896
1750560790249798400,8.19279833984375,6.822000503540039,7.099950313568115,0.18495000898838043
1750560790259403000,8.202403076171874,6.838950157165527,7.036050319671631,0.22305001318454742
1750560790269008000,8.2120078125,6.77400016784668,6.994950294494629,0.3240000009536743
1750560790278612500,8.221612548828125,6.580050468444824,7.069050312042236,0.283050000667572
1750560790288217300,8.23121728515625,6.504000186920166,7.111950397491455,0.19905000925064087
1750560790297822000,8.240822021484375,6.8460001945495605,7.186950206756592,0.11295000463724136
1750560790307426800,8.2504267578125,7.189050197601318,7.093050479888916,0.11505000293254852
1750560790317031400,8.260031494140625,7.231950283050537,6.98805046081543,0.09600000083446503
1750560790326636000,8.269635986328124,7.062000274658203,7.014000415802002,0.1469999998807907
1750560790336241000,8.279240966796875,6.664050102233887,7.002000331878662,0.2179500162601471
1750560790345845800,8.288845703125,6.31695032119751,6.954000473022461,0.3840000033378601
1750560790355450400,8.298450439453125,6.276000499725342,7.012050151824951,0.453000009059906
1750560790365055200,8.30805517578125,6.451050281524658,7.074000358581543,0.4410000145435333
1750560790374659800,8.317659912109375,6.916050434112549,7.081050395965576,0.28095000982284546
1750560790384264700,8.3272646484375,7.300950527191162,7.063950538635254,0.14400000870227814
1750560790393869300,8.336869384765626,7.195950508117676,7.039950370788574,0.019950000569224358
1750560790403474200,8.34647412109375,7.035000324249268,7.039950370788574,-0.013050000183284283
1750560790413078800,8.356078857421876,6.660000324249268,6.970950126647949,-0.018000001087784767
1750560790422683400,8.365683349609375,6.352950096130371,7.191000461578369,-0.08505000174045563
1750560790432288300,8.375288330078124,6.457950115203857,7.3060503005981445,-0.034050002694129944
1750560790441893000,8.38489306640625,6.633000373840332,7.210050106048584,0.17295001447200775
1750560790451498000,8.394498046875,6.874950408935547,7.1509504318237305,0.36900001764297485
1750560790461102600,8.4041025390625,7.04295015335083,7.14300012588501,0.2569500207901001
1750560790470707200,8.413707275390625,7.180950164794922,7.218000411987305,-0.003000000026077032
1750560790480312000,8.42331201171875,7.111950397491455,7.2270002365112305,-0.08895000070333481
1750560790489916700,8.432916748046875,6.856050491333008,7.2270002365112305,0.08400000631809235
1750560790499521500,8.442521484375,6.637950420379639,7.131000518798828,0.2950500249862671
1750560790509126400,8.45212646484375,6.750000476837158,7.0000505447387695,0.34095001220703125
1750560790518731000,8.46173095703125,6.913050174713135,7.018950462341309,0.2779500186443329
1750560790528335600,8.471335693359375,7.033050537109375,7.005000114440918,0.24495001137256622
1750560790537940500,8.4809404296875,7.114050388336182,7.017000198364258,0.17100000381469727
1750560790547545300,8.49054541015625,7.110000133514404,7.1770501136779785,-0.08700000494718552
1750560790557150000,8.50014990234375,7.3660502433776855,7.488000392913818,-0.5899500250816345
1750560790566754800,8.5097548828125,7.857000350952148,7.749000549316406,-1.075950026512146
1750560790576359400,8.519359375,8.203949928283691,7.857000350952148,-1.6120500564575195
1750560790585964300,8.52896435546875,8.379000663757324,8.36205005645752,-2.556000232696533
1750560790595569000,8.53856884765625,7.849050521850586,8.557950019836426,-3.5869500637054443
1750560790605173500,8.548173583984376,6.3409504890441895,9.5110502243042,-6.166050434112549
1750560790614778600,8.557778564453125,4.924050331115723,10.56195068359375,-7.938000202178955
1750560790624383200,8.56738330078125,3.7480502128601074,10.624950408935547,-10.05405044555664
1750560790633987800,8.57698779296875,4.203000068664551,11.1510009765625,-11.728050231933594
1750560790643592700,8.5865927734375,6.303000450134277,9.420000076293945,-9.577950477600098
1750560790653197300,8.596197265625,8.697000503540039,6.8680500984191895,-4.959000110626221
1750560790662802200,8.60580224609375,10.447050094604492,5.023950099945068,-0.22095000743865967
1750560790672406800,8.61540673828125,11.074950218200684,3.832050085067749,3.30495023727417
1750560790682011600,8.62501171875,9.772050857543945,3.454050064086914,6.135000228881836
1750560790691616500,8.634616455078126,6.657000541687012,3.376950263977051,8.380949974060059
1750560790701221000,8.64422119140625,3.8370001316070557,3.4489500522613525,8.755949974060059
1750560790710826000,8.653825927734376,2.376000165939331,4.4670000076293945,6.697050094604492
1750560790720430600,8.6634306640625,2.8810501098632812,6.303000450134277,4.846950054168701
1750560790730035500,8.673035400390624,4.40595006942749,6.279000282287598,4.0759501457214355
1750560790739640000,8.68264013671875,5.734950065612793,5.436000347137451,4.212000370025635
1750560790749244700,8.69224462890625,7.25100040435791,4.819050312042236,4.693050384521484
1750560790758849500,8.701849609375,8.563050270080566,4.6369500160217285,4.947000026702881
1750560790768454400,8.711454345703125,8.802000045776367,4.552950382232666,5.433000087738037
1750560790778059000,8.72105908203125,8.419050216674805,4.5169501304626465,6.1870503425598145
1750560790787664000,8.730663818359375,8.383049964904785,4.3660502433776855,6.778950214385986
1750560790797268700,8.740268798828126,7.926000595092773,4.036050319671631,6.829050540924072
1750560790806873300,8.749873291015625,7.36305046081543,3.825000286102295,6.48900032043457
1750560790816478000,8.75947802734375,7.134000301361084,3.4990501403808594,6.51300048828125
1750560790826082800,8.769082763671875,6.922950267791748,3.6120002269744873,6.592050075531006
1750560790835687400,8.7786875,6.517950534820557,3.970950126647949,6.400050163269043
1750560790845292300,8.788292236328125,6.135000228881836,3.6450002193450928,6.505950450897217
1750560790854897000,8.79789697265625,5.902950286865234,3.484950065612793,5.284950256347656
1750560790864501800,8.807501708984375,6.211950302124023,3.9400501251220703,3.44100022315979
1750560790874106600,8.817106689453125,7.191000461578369,3.882000207901001,1.144950032234192
1750560790883711200,8.826711181640626,9.10200023651123,5.263950347900391,-3.15405011177063
1750560790893315800,8.83631591796875,11.416950225830078,7.4239501953125,-5.698950290679932
1750560790902920700,8.845920654296876,12.22605037689209,7.420950412750244,-4.603050231933594
1750560790912525300,8.855525390625,11.304000854492188,6.382050514221191,-1.6980000734329224
1750560790922130200,8.865130126953124,10.146000862121582,6.034950256347656,0.25394999980926514
1750560790931734800,8.87473486328125,9.672000885009766,6.4110002517700195,0.29295000433921814
1750560790941339600,8.884339599609374,8.994000434875488,6.547050476074219,0.027000000700354576
1750560790950944300,8.8939443359375,7.768050193786621,6.492000102996826,0.38100001215934753
1750560790960549400,8.90354931640625,6.529950141906738,6.745950222015381,0.07005000114440918
1750560790970154000,8.913154052734376,5.48205041885376,7.573950290679932,-0.8869500160217285
1750560790979758600,8.922758544921875,5.11305046081543,8.269050598144531,-2.0050501823425293
1750560790989363500,8.932363525390626,6.30495023727417,8.87700080871582,-2.817000150680542
1750560790998968000,8.941968017578125,7.699050426483154,8.452950477600098,-2.3620500564575195
1750560791008572700,8.95157275390625,8.266050338745117,7.9170002937316895,-1.4760000705718994
1750560791018177500,8.961177490234375,8.107950210571289,7.534050464630127,-0.36195001006126404
1750560791027782100,8.9707822265625,7.572000503540039,7.114950180053711,0.5389500260353088
1750560791037387000,8.980386962890625,7.07895040512085,7.018950462341309,0.7020000219345093
1750560791046992000,8.989991943359374,6.837000370025635,7.045050144195557,0.5389500260353088
1750560791056596700,8.9995966796875,6.556950092315674,7.222050189971924,0.13199999928474426
1750560791066201300,9.009201416015625,6.444000244140625,7.528950214385986,-0.4939500093460083
1750560791075806200,9.01880615234375,6.451050281524658,7.7059502601623535,-1.1479500532150269
1750560791085410800,9.028410888671875,5.970000267028809,7.81095027923584,-1.3459500074386597
1750560791095015400,9.038015380859376,5.5320000648498535,7.813950538635254,-1.1329500675201416
1750560791104620000,9.0476201171875,5.380950450897217,7.672950267791748,-0.6420000195503235
1750560791114225000,9.057224853515624,5.509950160980225,7.438050270080566,-0.15195000171661377
1750560791123829800,9.066829833984375,5.754000186920166,7.194000244140625,0.23805001378059387
1750560791133434400,9.076434326171874,6.30495023727417,7.018950462341309,0.40800002217292786
1750560791143039200,9.086039306640625,7.083000183105469,6.898950099945068,0.23805001378059387
1750560791152644000,9.09564404296875,7.320000171661377,6.9810004234313965,-0.24300001561641693
1750560791162248700,9.105248779296875,7.204950332641602,7.258050441741943,-0.7690500617027283
1750560791171853600,9.114853515625,6.736050128936768,7.3969502449035645,-0.8460000157356262
1750560791181458200,9.124458251953126,6.187950134277344,7.279950141906738,-0.5419500470161438
1750560791191062800,9.134062744140625,5.893050193786621,7.123950481414795,-0.07304999977350235
1750560791200667600,9.143667724609376,5.722950458526611,6.934950351715088,0.3450000286102295
1750560791210272500,9.1532724609375,5.889000415802002,6.892050266265869,0.453000009059906
1750560791219877400,9.16287744140625,6.336000442504883,6.874950408935547,0.3550500273704529
1750560791229482000,9.17248193359375,6.670950412750244,6.886950492858887,0.2179500162601471
1750560791239086800,9.1820869140625,6.897000312805176,6.98805046081543,-0.015000000596046448
1750560791248691500,9.19169140625,6.982950210571289,7.191000461578369,-0.27105000615119934
1750560791258296000,9.201296142578125,7.083000183105469,7.1770501136779785,-0.3240000009536743
1750560791267901000,9.21090087890625,7.225050449371338,7.045050144195557,-0.06300000101327896
1750560791277505800,9.220505859375,7.147950172424316,6.957000255584717,0.15600000321865082
1750560791287110400,9.2301103515625,6.889050483703613,6.942000389099121,0.28095000982284546
1750560791296715300,9.23971533203125,6.652050495147705,7.074000358581543,0.28995001316070557
1750560791306320000,9.24931982421875,6.406050205230713,7.237050533294678,0.23805001378059387
1750560791315924700,9.2589248046875,6.324000358581543,7.315950393676758,0.19500000774860382
1750560791325529300,9.268529296875,6.801000118255615,7.371000289916992,0.07695000618696213
1750560791335134200,9.27813427734375,7.342050552368164,7.267950534820557,0.04800000041723251
1750560791344738800,9.28773876953125,7.378050327301025,7.179000377655029,0.043950002640485764
1750560791363948300,9.3069482421875,6.631050109863281,7.219950199127197,0.2760000228881836
1750560791373553200,9.31655322265625,6.466050148010254,7.222050189971924,0.3910500109195709
1750560791383158000,9.326157958984375,6.592050075531006,7.291950225830078,0.48705002665519714
1750560791392762600,9.3357626953125,6.750000476837158,7.255950450897217,0.5389500260353088
1750560791402367500,9.345367431640625,6.958950519561768,7.16295051574707,0.5460000038146973
1750560791411972000,9.35497216796875,6.999000549316406,7.14300012588501,0.31905001401901245
1750560791421577000,9.364576904296875,6.954000473022461,7.215000152587891,0.1080000028014183
1750560791431181600,9.374181640625,6.87000036239624,7.23900032043457,-0.04605000093579292
1750560791440786200,9.3837861328125,6.772050380706787,7.194000244140625,0.010050000622868538
1750560791450391000,9.39339111328125,6.727050304412842,7.15500020980835,0.11505000293254852
1750560791459996000,9.402995849609376,6.979950428009033,7.153050422668457,0.14205001294612885
1750560791469600500,9.4126005859375,7.119000434875488,7.086000442504883,0.2160000056028366
1750560791479205400,9.422205322265626,7.1170501708984375,7.084050178527832,0.283050000667572
1750560791488810200,9.431810302734375,6.9970502853393555,7.07205057144165,0.30900001525878906
1750560791498414800,9.441414794921876,6.841050148010254,7.0570502281188965,0.28995001316070557
1750560791508019500,9.45101953125,6.621000289916992,7.04295015335083,0.23295001685619354
1750560791517624300,9.460624267578124,6.346050262451172,7.07205057144165,0.20400001108646393
1750560791527229000,9.47022900390625,6.247950077056885,7.126950263977051,0.17100000381469727
1750560791536833800,9.479833740234374,6.444000244140625,7.158000469207764,0.08700000494718552
1750560791546438700,9.489438720703125,6.849000453948975,7.203000545501709,-0.06300000101327896
1750560791556043500,9.49904345703125,7.033050537109375,7.195950508117676,-0.18000000715255737
1750560791565648100,9.508648193359376,7.071000099182129,7.189050197601318,-0.22605000436306
1750560791575252700,9.518252685546875,6.928050518035889,7.165050506591797,-0.19995000958442688
1750560791584857600,9.527857666015626,6.636000156402588,7.147950172424316,-0.11100000888109207
1750560791594462200,9.537462158203125,6.439050197601318,7.14300012588501,0.019950000569224358
1750560791604066800,9.54706689453125,6.360000133514404,7.215000152587891,0.13500000536441803
1750560791613671700,9.556671630859375,6.286050319671631,7.23900032043457,0.1660500019788742
1750560791623276500,9.566276611328124,6.29295015335083,7.198950290679932,0.24495001137256622
1750560791632881200,9.575881103515625,6.532950401306152,7.249050140380859,0.07200000435113907
1750560791642486000,9.585486083984375,6.784050464630127,7.267950534820557,-0.06105000153183937
1750560791652091000,9.5950908203125,6.745950222015381,7.2270002365112305,-0.22305001318454742
1750560791661695500,9.604695556640625,6.844050407409668,7.288950443267822,-0.3139500021934509
1750560791671300400,9.61430029296875,6.838950157165527,7.210050106048584,-0.22800001502037048
1750560791680905000,9.623905029296875,6.631050109863281,7.2300004959106445,-0.08205000311136246
1750560791690509600,9.633509521484376,6.529950141906738,7.2460503578186035,0.040950000286102295
1750560791700114700,9.64311474609375,6.700050354003906,7.261050224304199,0.12000000476837158
1750560791709719300,9.65271923828125,6.862950325012207,7.225050449371338,0.12300000339746475
1750560791719324200,9.66232421875,6.909000396728516,7.191000461578369,0.0010500000789761543
1750560791728928800,9.6719287109375,6.7669501304626465,7.2270002365112305,-0.19500000774860382
1750560791738533600,9.68153369140625,6.577950477600098,7.285050392150879,-0.2950500249862671
1750560791748138200,9.69113818359375,6.430050373077393,7.300950527191162,-0.2880000174045563
1750560791757743000,9.7007431640625,6.451050281524658,7.266000270843506,-0.0970500037074089
1750560791767347700,9.71034765625,6.568950176239014,7.261050224304199,0.08895000070333481
1750560791776952600,9.71995263671875,6.813000202178955,7.141050338745117,0.25200000405311584
1750560791786557200,9.72955712890625,7.0570502281188965,7.05495023727417,0.3379500210285187
1750560791796162000,9.739162109375,6.982950210571289,7.014000415802002,0.31200000643730164
1750560791805767000,9.748766845703125,6.703050136566162,7.039950370788574,0.11505000293254852
1750560791815371500,9.75837158203125,6.504000186920166,7.165050506591797,-0.0580500029027462
1750560791824976100,9.76797607421875,6.372000217437744,7.243950366973877,-0.1969500035047531
1750560791834581000,9.7775810546875,6.288000106811523,7.3399505615234375,-0.208950012922287
1750560791844185600,9.787185546875,6.406050205230713,7.3690505027771,-0.11595000326633453
1750560791853790500,9.79679052734375,6.739050388336182,7.270050525665283,-0.039000000804662704
1750560791863395300,9.806395263671876,7.030950546264648,7.206000328063965,-0.003000000026077032
1750560791873000000,9.816,7.138050556182861,7.123950481414795,0.00795000046491623
1750560791882604800,9.825604736328126,6.978000164031982,7.05495023727417,0.05100000277161598
1750560791892209400,9.83520947265625,6.7860002517700195,7.099950313568115,0.028950002044439316
1750560791901814300,9.844814208984374,6.712050437927246,7.186950206756592,0.031950000673532486
1750560791911419000,9.8544189453125,6.753000259399414,7.213050365447998,0.07695000618696213
1750560791921023700,9.864023681640624,6.838950157165527,7.189050197601318,0.1660500019788742
1750560791930628600,9.873628662109375,6.820050239562988,7.102950572967529,0.22605000436306
1750560791940233500,9.8832333984375,6.6499505043029785,7.102950572967529,0.22605000436306
1750560791949838000,9.892838134765626,6.409950256347656,7.126950263977051,0.15405000746250153
1750560791959443000,9.90244287109375,6.32895040512085,7.158000469207764,0.07200000435113907
1750560791969047600,9.912047607421876,6.3670501708984375,7.14300012588501,0.08205000311136246
1750560791978652200,9.921652099609375,6.640050411224365,7.165050506591797,0.1080000028014183
1750560791988257000,9.931257080078124,7.141050338745117,7.141050338745117,0.10095000267028809
1750560791997861600,9.940861572265625,7.474050521850586,7.138950347900391,0.039000000804662704
1750560792007466500,9.950466552734374,7.387050151824951,7.14300012588501,0.034050002694129944
1750560792017071400,9.9600712890625,6.96405029296875,7.099950313568115,0.15900000929832458
1750560792026676000,9.969676025390624,6.468000411987305,7.171950340270996,0.13695000112056732
1750560792036280800,9.97928076171875,6.19005012512207,7.282050132751465,0.028950002044439316
1750560792045885700,9.9888857421875,6.175950527191162,7.23900032043457,0.07500000298023224
1750560792055490300,9.998490234375,6.382050514221191,7.1670002937316895,0.21105000376701355
1750560792065095000,10.008094970703125,6.648000240325928,7.237050533294678,0.2160000056028366
1750560792074699500,10.017699462890626,6.9370503425598145,7.34505033493042,-0.00795000046491623
1750560792084304400,10.027304443359375,7.062000274658203,7.428000450134277,-0.2740500271320343
1750560792093909000,10.036908935546874,6.925050258636475,7.498050212860107,-0.42195001244544983
1750560792103513900,10.046513916015625,6.609000205993652,7.479000568389893,-0.31905001401901245
1750560792113118700,10.05611865234375,6.303000450134277,7.380000114440918,-0.20205001533031464
1750560792122723600,10.0657236328125,6.3100504875183105,7.267950534820557,-0.05100000277161598
1750560792132328200,10.075328125,6.561000347137451,7.182000160217285,0.09195000678300858
1750560792141933000,10.08493310546875,6.798000335693359,7.146000385284424,0.07200000435113907
1750560792151537700,10.09453759765625,7.002000331878662,7.158000469207764,0.015000000596046448
1750560792161142500,10.104142578125,7.0570502281188965,7.254000186920166,-0.13305000960826874
1750560792170747100,10.1137470703125,7.086000442504883,7.291950225830078,-0.2639999985694885
1750560792180351700,10.123351806640626,6.95205020904541,7.26300048828125,-0.2550000250339508
1750560792189956600,10.13295654296875,6.789000511169434,7.254000186920166,-0.208950012922287
1750560792199561500,10.1425615234375,6.748050212860107,7.186950206756592,-0.027000000700354576
1750560792209166300,10.152166259765625,6.640050411224365,7.153050422668457,0.11505000293254852
1750560792218771000,10.16177099609375,6.547050476074219,7.098000526428223,0.208950012922287
1750560792228375800,10.171375732421875,6.481950283050537,7.213050365447998,0.12300000339746475
1750560792237980400,10.18098046875,6.454050540924072,7.323000431060791,-0.10395000129938126
1750560792247585300,10.190585205078126,6.508950233459473,7.372950553894043,-0.30300000309944153
1750560792257190000,10.20018994140625,6.541950225830078,7.32105016708374,-0.25005000829696655
1750560792266794500,10.20979443359375,6.66195011138916,7.213050365447998,-0.15900000929832458
1750560792276399400,10.2193994140625,6.810000419616699,7.122000217437744,0.022050000727176666
1750560792286004500,10.22900439453125,6.949050426483154,7.050000190734863,0.21105000376701355
1750560792295608800,10.23860888671875,7.006950378417969,7.048050403594971,0.3550500273704529
1750560792305213700,10.248213623046874,6.753000259399414,7.110000133514404,0.34995001554489136
1750560792314818300,10.257818359375,6.454050540924072,7.2460503578186035,0.3139500021934509
1750560792324423200,10.267423095703125,6.448950290679932,7.285050392150879,0.2160000056028366
1750560792334027800,10.27702783203125,6.5209503173828125,7.273050308227539,0.06000000238418579
1750560792343632600,10.286632568359375,6.633000373840332,7.282050132751465,-0.09405000507831573
1750560792353237500,10.296237548828126,6.715050220489502,7.2300004959106445,-0.12105000764131546
1750560792362842400,10.30584228515625,6.838950157165527,7.171950340270996,-0.031950000673532486
1750560792372447000,10.315447021484376,6.834000110626221,7.146000385284424,0.04800000041723251
1750560792382051800,10.3250517578125,6.730950355529785,7.171950340270996,0.016950000077486038
1750560792391656400,10.334656494140624,6.628050327301025,7.183950424194336,0.034050002694129944
1750560792401261000,10.344260986328125,6.496950149536133,7.198950290679932,0.039000000804662704
1750560792410866000,10.353865966796874,6.442050457000732,7.222050189971924,0.031950000673532486
1750560792420470500,10.363470458984375,6.589950084686279,7.219950199127197,0.00795000046491623
1750560792430075400,10.373075439453125,6.844050407409668,7.201050281524658,-0.030000001192092896
1750560792439680300,10.38268017578125,7.033050537109375,7.191000461578369,-0.0010500000789761543
1750560792449285000,10.39228515625,7.069050312042236,7.1770501136779785,-0.018000001087784767
1750560792458889700,10.4018896484375,6.96405029296875,7.179000377655029,0.00795000046491623
1750560792468494300,10.411494384765625,6.612000465393066,7.219950199127197,0.003000000026077032
1750560792478099200,10.42109912109375,6.256950378417969,7.27500057220459,-0.07304999977350235
1750560792487704000,10.4307041015625,6.178050518035889,7.279950141906738,-0.04200000315904617
1750560792497308700,10.44030859375,6.300000190734863,7.237050533294678,0.09600000083446503
1750560792506913300,10.449913330078125,6.57105016708374,7.179000377655029,0.19905000925064087
1750560792516518100,10.45951806640625,7.009050369262695,7.074000358581543,0.24705001711845398
1750560792526122800,10.469122802734375,7.243950366973877,7.122000217437744,0.043950002640485764
1750560792535727900,10.478727783203125,7.081050395965576,7.225050449371338,-0.13005000352859497
1750560792545332500,10.48833251953125,6.742950439453125,7.215000152587891,-0.05400000140070915
1750560792554937000,10.49793701171875,6.364950180053711,7.153050422668457,0.11505000293254852
1750560792564542000,10.5075419921875,6.196950435638428,7.213050365447998,0.14205001294612885
1750560792574146600,10.517146484375,6.3100504875183105,7.207950115203857,0.13500000536441803
1750560792583751400,10.52675146484375,6.496950149536133,7.249050140380859,0.17295001447200775
1750560792593356000,10.53635595703125,6.69795036315918,7.219950199127197,0.11805000901222229
1750560792602961000,10.5459609375,6.906000137329102,7.25100040435791,-0.0010500000789761543
1750560792612565500,10.5555654296875,6.991950511932373,7.359000205993652,-0.30300000309944153
1750560792622170600,10.565170654296875,6.982950210571289,7.486050128936768,-0.5710500478744507
1750560792631775200,10.574775146484376,6.973050117492676,7.561950206756592,-0.7570500373840332
1750560792641379800,10.5843798828125,6.750000476837158,7.773000240325928,-1.2460500001907349
1750560792650984700,10.593984619140626,6.544950485229492,8.247000694274902,-2.1289501190185547
1750560792660589300,10.60358935546875,6.777000427246094,8.902950286865234,-3.598950147628784
1750560792670194000,10.61319384765625,6.68595027923584,9.595050811767578,-4.797000408172607
1750560792679798800,10.622798828125,5.91195011138916,9.823050498962402,-6.220950126647949
1750560792689404000,10.63240380859375,4.723050117492676,10.266000747680664,-7.011000156402588
1750560792699008300,10.64200830078125,3.8869502544403076,9.949950218200684,-7.248000144958496
1750560792708613000,10.651613037109374,3.7600502967834473,9.664950370788574,-8.587050437927246
1750560792718218000,10.661218017578125,4.383000373840332,9.565950393676758,-9.736050605773926
1750560792727822800,10.67082275390625,5.793000221252441,8.32395076751709,-8.447999954223633
1750560792737427500,10.680427490234376,7.639050483703613,6.439950466156006,-5.593950271606445
1750560792747032000,10.690031982421875,8.689949989318848,5.293050289154053,-2.9599502086639404
1750560792756637000,10.699636962890626,8.143950462341309,3.844050168991089,1.1260499954223633
1750560792766241800,10.70924169921875,7.474050521850586,2.4600000381469727,6.271050453186035
1750560792775846700,10.7188466796875,6.865050315856934,1.5649501085281372,8.862000465393066
1750560792785451300,10.728451171875,6.6910505294799805,2.7240002155303955,8.22705078125
1750560792795055900,10.738055908203124,7.597950458526611,4.756050109863281,7.180950164794922
1750560792804660700,10.74766064453125,8.35200023651123,4.864050388336182,6.252000331878662
1750560792814265300,10.757265380859375,8.520000457763672,4.210050106048584,5.791950225830078
1750560792823870200,10.7668701171875,8.455050468444824,3.994950294494629,6.010050296783447
1750560792833474800,10.776474853515625,8.163000106811523,3.6910502910614014,6.688050270080566
1750560792843079700,10.78607958984375,8.296950340270996,3.4080002307891846,7.582950592041016
1750560792852684500,10.7956845703125,8.211000442504883,3.3130502700805664,8.136000633239746
1750560792862289200,10.8052890625,7.738950252532959,3.2500500679016113,8.20305061340332
1750560792871894000,10.81489404296875,7.468950271606445,3.175950050354004,8.131950378417969
1750560792881498600,10.82449853515625,7.549950122833252,2.7829501628875732,8.175000190734863
1750560792891103500,10.834103515625,7.780050277709961,2.4000000953674316,8.275050163269043
1750560792900708000,10.8437080078125,7.857000350952148,2.202000141143799,8.545949935913086
1750560792910313000,10.85331298828125,7.657950401306152,2.0220000743865967,7.81095027923584
1750560792919917600,10.86291748046875,7.1670002937316895,2.2950000762939453,4.540050029754639
1750560792929522400,10.8725224609375,7.360950469970703,4.039950370788574,-0.06795000284910202
1750560792939127300,10.882127197265625,8.134050369262695,5.949000358581543,-3.331050157546997
1750560792948732200,10.891732177734376,9.16200065612793,6.909000396728516,-4.423050403594971
1750560792958336800,10.901336669921875,9.99000072479248,6.459000110626221,-3.00600004196167
1750560792967941600,10.910941650390624,10.167000770568848,5.821950435638428,-1.1290500164031982
1750560792977546200,10.920546142578125,10.416000366210938,5.602050304412842,0.07500000298023224
1750560792987151000,10.930151123046874,10.395000457763672,5.503050327301025,1.0180500745773315
1750560792996755700,10.939755615234375,10.174050331115723,5.527050495147705,1.1929500102996826
1750560793006360300,10.9493603515625,10.074000358581543,5.4120001792907715,1.075950026512146
1750560793015965200,10.958965087890626,9.001049995422363,5.635050296783447,0.3360000252723694
1750560793025570000,10.968570068359375,7.488000392913818,6.442050457000732,-0.7429500222206116
1750560793035174700,10.978174560546876,6.409950256347656,7.249050140380859,-1.4659500122070312
1750560793044779500,10.987779541015625,6.4800004959106445,7.953000545501709,-2.3020501136779785
1750560793054384000,10.997384033203126,7.311000347137451,8.203949928283691,-2.0809500217437744
1750560793063989000,11.006989013671875,8.13705062866211,7.717950344085693,-0.7909500598907471
1750560793073593600,11.016593505859374,8.587050437927246,6.985050201416016,0.8719500303268433
1750560793083198500,11.026198486328125,8.410050392150879,6.628950119018555,1.897050142288208
1750560793092803300,11.03580322265625,8.239950180053711,6.676950454711914,2.0500500202178955
1750560793102408200,11.045408203125,8.070000648498535,6.757950305938721,1.6309500932693481
1750560793112012800,11.0550126953125,7.2460503578186035,6.96405029296875,0.7720500230789185
1750560793121617700,11.06461767578125,6.382050514221191,7.360950469970703,-0.1279500126838684
1750560793131222300,11.07422216796875,5.971950054168701,7.618050575256348,-0.8460000157356262
1750560793140827100,11.0838271484375,5.716050148010254,7.668000221252441,-1.0879501104354858
1750560793150431700,11.093431640625,5.7109503746032715,7.584000587463379,-0.6109500527381897
1750560793160036600,11.10303662109375,6.11400032043457,7.402050495147705,0.07695000618696213
1750560793169641500,11.112641357421875,6.580050468444824,7.2460503578186035,0.25394999980926514
1750560793179246000,11.12224609375,7.1670002937316895,7.297050476074219,0.07695000618696213
1750560793188851000,11.131850830078125,7.474050521850586,7.27500057220459,-0.0799500048160553
1750560793198455600,11.14145556640625,7.52400016784668,7.15500020980835,-0.14400000870227814
1750560793208060200,11.15106005859375,7.2460503578186035,7.014000415802002,-0.025050001218914986
1750560793217665000,11.1606650390625,6.7819504737854,6.95205020904541,0.07005000114440918
1750560793227270000,11.170269775390626,6.352950096130371,7.081050395965576,0.019950000569224358
1750560793236874500,11.17987451171875,6.147000312805176,7.098000526428223,0.0580500029027462
1750560793246479000,11.18947900390625,6.075000286102295,7.06695032119751,0.19200000166893005
1750560793256084200,11.199084228515625,6.492000102996826,7.0600504875183105,0.19005000591278076
1750560793265688800,11.208688720703124,7.2270002365112305,6.957000255584717,0.21105000376701355
1750560793275293700,11.218293701171875,7.504950523376465,6.733950138092041,0.27105000615119934
1750560793284898300,11.227898193359374,7.324950218200684,6.790950298309326,0.3930000066757202
1750560793294503000,11.2375029296875,6.832050323486328,6.898950099945068,0.37605002522468567
1750560793304107800,11.247107666015625,6.288000106811523,7.07895040512085,0.28995001316070557
1750560793313712600,11.256712646484376,5.898000240325928,7.108050346374512,0.2659500241279602
1750560793323317200,11.266317138671875,5.941050052642822,7.2270002365112305,0.16305001080036163
1750560793332922000,11.275922119140626,6.267000198364258,7.183950424194336,0.17100000381469727
1750560793342526700,11.285526611328125,6.801000118255615,6.957000255584717,0.37905001640319824
1750560793352131600,11.295131591796874,7.1860504150390625,6.756000518798828,0.6019500494003296
1750560793361736400,11.304736328125,7.213050365447998,6.724050521850586,0.7380000352859497
1750560793371341300,11.31434130859375,7.062000274658203,6.873000144958496,0.6880500316619873
1750560793380946000,11.32394580078125,6.754950523376465,6.898950099945068,0.5920500159263611
1750560793390550800,11.33355078125,6.613950252532959,6.942000389099121,0.38100001215934753
1750560793400155100,11.343155029296875,6.444000244140625,6.957000255584717,0.25905001163482666
1750560793409760300,11.35276025390625,6.315000534057617,7.002000331878662,0.23805001378059387
1750560793419364900,11.36236474609375,6.670950412750244,6.934950351715088,0.4440000355243683
1750560793428969500,11.371969482421875,6.8460001945495605,6.796050548553467,0.6810000538825989
1750560793438574600,11.38157470703125,6.889050483703613,6.757950305938721,0.8410500288009644
1750560793448179200,11.39117919921875,7.114050388336182,6.862950325012207,0.8389500379562378
1750560793457784000,11.4007841796875,7.531050205230713,6.889950275421143,0.597000002861023
1750560793467388700,11.410388671875,7.593000411987305,6.901950359344482,0.3840000033378601
1750560793476993300,11.4199931640625,7.335000514984131,6.885000228881836,0.283050000667572
1750560793486598100,11.42959814453125,6.999000549316406,6.808050155639648,0.40800002217292786
1750560793496202800,11.43920263671875,6.694950103759766,6.847050189971924,0.5110500454902649
1750560793505808000,11.448807861328126,6.57105016708374,6.847050189971924,0.6760500073432922
1750560793515412500,11.45841259765625,6.703050136566162,6.9210004806518555,0.6060000061988831
1750560793525017300,11.468017333984376,7.059000492095947,7.05495023727417,0.5029500126838684
1750560793534622000,11.4776220703125,7.372950553894043,7.069050312042236,0.38805001974105835
1750560793544226600,11.4872265625,7.3470001220703125,6.94005012512207,0.4440000355243683
1750560793553831400,11.49683154296875,7.222050189971924,6.847050189971924,0.5269500017166138
1750560793563436000,11.50643603515625,7.131000518798828,6.844050407409668,0.6180000305175781
1750560793573041000,11.516041015625,6.849000453948975,6.838950157165527,0.673050045967102
1750560793582645800,11.525645751953125,6.69795036315918,6.913950443267822,0.6660000085830688
1750560793592250600,11.535250732421876,6.682950496673584,6.985050201416016,0.5610000491142273
1750560793601855200,11.544855224609375,6.718950271606445,7.084050178527832,0.3930000066757202
1750560793611460000,11.554460205078126,7.159950256347656,7.087950229644775,0.3139500021934509
1750560793621064700,11.564064697265625,7.4160003662109375,6.928050518035889,0.31200000643730164
1750560793630669600,11.573669677734374,7.407000541687012,6.87000036239624,0.37905001640319824
1750560793640274200,11.583274169921875,7.1770501136779785,6.775050163269043,0.5800500512123108
1750560793649878800,11.592878662109374,6.98805046081543,6.7699503898620605,0.6469500064849854
1750560793659483600,11.602483642578125,6.949050426483154,6.837000370025635,0.46995002031326294
1750560793669088500,11.612088623046875,6.994950294494629,6.966000556945801,0.2569500207901001
1750560793678693400,11.621693359375,6.910950183868408,7.093050479888916,0.0799500048160553
1750560793688298000,11.631298095703125,6.77400016784668,7.15500020980835,0.1270500123500824
1750560793697902800,11.64090283203125,6.624000549316406,7.093050479888916,0.36000001430511475
1750560793707507500,11.650507568359375,6.585000514984131,6.982950210571289,0.661050021648407
1750560793717112300,11.6601123046875,6.727050304412842,6.825000286102295,0.8650500178337097
1750560793726717000,11.669717041015625,6.68595027923584,6.820050239562988,0.8890500664710999
1750560793736321800,11.67932177734375,6.655050277709961,6.918000221252441,0.7140000462532043
1750560793745926700,11.6889267578125,6.841050148010254,7.039950370788574,0.46995002031326294
1750560793755531500,11.698531494140624,7.135950565338135,7.093050479888916,0.24195000529289246
1750560793765136100,11.70813623046875,7.294050216674805,7.048050403594971,0.17505000531673431
1750560793774740700,11.71774072265625,7.248000144958496,6.928050518035889,0.15900000929832458
1750560793784345600,11.727345703125,7.06695032119751,6.913950443267822,0.19500000774860382
1750560793793950200,11.7369501953125,6.742950439453125,6.832050323486328,0.44805002212524414
1750560793803555000,11.74655517578125,6.504000186920166,6.87000036239624,0.5419500470161438
1750560793813160000,11.756159912109375,6.576000213623047,7.036050319671631,0.4600500166416168
1750560793822764800,11.765764892578124,6.853050231933594,7.141050338745117,0.41505002975463867
1750560793832369400,11.775369384765625,7.222050189971924,7.0570502281188965,0.5299500226974487
1750560793841974300,11.784974365234374,7.512000560760498,6.934950351715088,0.5320500135421753
1750560793851579000,11.794578857421875,7.729950428009033,6.934950351715088,0.325950026512146
1750560793861183700,11.804183837890625,7.468950271606445,6.942000389099121,0.283050000667572
1750560793870788400,11.813788330078125,6.844050407409668,6.973050117492676,0.32895001769065857
1750560793880393000,11.82339306640625,6.41295051574707,7.062000274658203,0.39795002341270447
1750560793889998000,11.832998046875,6.331050395965576,7.131000518798828,0.45795002579689026
1750560793899602700,11.842602783203125,6.415050506591797,7.045050144195557,0.520050048828125
1750560793909207600,11.85220751953125,6.621000289916992,7.012050151824951,0.5659500360488892
1750560793918812200,11.861812255859375,6.789000511169434,6.945000171661377,0.5820000171661377
1750560793928417000,11.8714169921875,6.95205020904541,6.918000221252441,0.5029500126838684
1750560793938021600,11.881021728515625,7.153050422668457,6.97605037689209,0.42000001668930054
1750560793947626500,11.89062646484375,7.192950248718262,7.021050453186035,0.2659500241279602
1750560793957231400,11.9002314453125,7.191000461578369,7.0759501457214355,0.25005000829696655
1750560793966836000,11.9098359375,6.958950519561768,6.970950126647949,0.47505003213882446
1750560793976440800,11.91944091796875,6.532950401306152,6.8680500984191895,0.62295001745224
1750560793986045700,11.929045654296875,6.30495023727417,6.909000396728516,0.5940000414848328
1750560793995650300,11.938650390625,6.339000225067139,6.954000473022461,0.42195001244544983
1750560794005255200,11.948255126953125,6.544950485229492,7.063950538635254,0.2970000207424164
1750560794014859800,11.95785986328125,6.805950164794922,7.017000198364258,0.3049500286579132
1750560794024464600,11.967464599609375,7.303950309753418,7.014000415802002,0.34800001978874207
1750560794034069200,11.9770693359375,7.7989501953125,6.904050350189209,0.4549500346183777
1750560794043674000,11.986674072265625,7.909050464630127,6.801000118255615,0.4320000112056732
1750560794053278700,11.99627880859375,7.555050373077393,6.802950382232666,0.4819500148296356
1750560794062883800,12.0058837890625,6.9370503425598145,6.799050331115723,0.597000002861023
1750560794072488400,12.015488525390625,6.433950424194336,6.906000137329102,0.62295001745224
1750560794082093000,12.025093017578126,6.355050086975098,6.982950210571289,0.5940000414848328
1750560794091698000,12.034697998046875,6.588000297546387,7.062000274658203,0.6019500494003296
1750560794101302500,12.044302490234376,6.9370503425598145,7.029000282287598,0.7210500240325928
1750560794110907400,12.053907470703125,7.426050186157227,6.847050189971924,0.8359500169754028
1750560794120512000,12.063511962890624,7.797000408172607,6.789000511169434,0.7260000109672546
1750560794130116900,12.073116943359375,7.70805025100708,6.741000175476074,0.6469500064849854
1750560794139721700,12.0827216796875,7.174050331115723,6.745950222015381,0.6420000195503235
1750560794149326300,12.092326416015625,6.6499505043029785,6.808050155639648,0.661050021648407
1750560794158931200,12.10193115234375,6.415050506591797,6.886950492858887,0.6760500073432922
1750560794168535800,12.111535888671876,6.394050121307373,7.038000106811523,0.46995002031326294
1750560794178140700,12.121140625,6.621000289916992,7.14300012588501,0.3739500045776367
1750560794187745500,12.13074560546875,6.978000164031982,7.135950565338135,0.34800001978874207
1750560794197350100,12.14035009765625,7.183950424194336,7.05495023727417,0.42705002427101135
1750560794206955000,12.149955078125,7.129050254821777,6.942000389099121,0.6040500402450562
1750560794216559600,12.1595595703125,7.123950481414795,6.957000255584717,0.5920500159263611
1750560794226164500,12.16916455078125,7.159950256347656,6.95205020904541,0.5389500260353088
1750560794235769300,12.178769287109375,7.158000469207764,6.862950325012207,0.5749500393867493
1750560794245374000,12.1883740234375,7.099950313568115,6.874950408935547,0.5850000381469727
1750560794254978800,12.197978759765626,6.910950183868408,6.97605037689209,0.4819500148296356
1750560794264583400,12.20758349609375,6.765000343322754,7.039950370788574,0.3240000009536743
1750560794274188300,12.217188232421876,6.664050102233887,7.039950370788574,0.325950026512146
1750560794283793000,12.22679296875,6.552000522613525,7.038000106811523,0.42705002427101135
1750560794293397800,12.236397705078126,6.561000347137451,6.933000564575195,0.6019500494003296
1750560794303002600,12.246002685546875,6.850950241088867,6.937950134277344,0.62295001745224
1750560794312607200,12.255607177734374,7.25100040435791,6.985050201416016,0.5110500454902649
1750560794322212000,12.265212158203125,7.390050411224365,6.89400053024292,0.5659500360488892
1750560794331816700,12.274816650390624,7.1860504150390625,6.87000036239624,0.5509500503540039
1750560794341421600,12.284421630859375,6.741000175476074,6.796050548553467,0.5989500284194946
1750560794351026200,12.294026123046875,6.3670501708984375,6.817950248718262,0.6139500141143799
1750560794360631300,12.30363134765625,6.252000331878662,6.877950191497803,0.6040500402450562
1750560794370236000,12.31323583984375,6.19005012512207,6.928050518035889,0.5850000381469727
1750560794379840800,12.3228408203125,6.303000450134277,7.111950397491455,0.42000001668930054
1750560794389445600,12.332445556640625,6.745950222015381,7.198950290679932,0.2740500271320343
1750560794399050200,12.34205029296875,7.215000152587891,7.201050281524658,0.17295001447200775
1750560794408654800,12.35165478515625,7.203000545501709,7.16295051574707,0.15600000321865082
1750560794418259700,12.361259765625,6.991950511932373,7.102950572967529,0.21105000376701355
1750560794427864300,12.3708642578125,6.667050361633301,7.074000358581543,0.36195001006126404
1750560794437469200,12.38046923828125,6.327000141143799,7.048050403594971,0.5010000467300415
1750560794447074000,12.390073974609376,6.375000476837158,7.110000133514404,0.5370000004768372
1750560794456679000,12.399678955078125,6.355050086975098,7.087950229644775,0.6160500049591064
1750560794466283500,12.409283447265626,6.631050109863281,6.9970502853393555,0.62295001745224
1750560794475888400,12.418888427734375,7.074000358581543,6.993000507354736,0.4410000145435333
1750560794485493000,12.428492919921876,7.504950523376465,6.937950134277344,0.23295001685619354
1750560794495097600,12.43809765625,7.612050533294678,6.909000396728516,0.26205000281333923
1750560794504702500,12.447702392578124,7.408950328826904,6.88200044631958,0.40005001425743103
1750560794514307000,12.45730712890625,7.252950191497803,6.862950325012207,0.5269500017166138
1750560794523912000,12.466911865234374,7.215000152587891,6.886950492858887,0.5440500378608704
1750560794533516800,12.476516845703125,7.074000358581543,6.925950527191162,0.5610000491142273
1750560794543121700,12.48612158203125,6.925050258636475,6.945000171661377,0.5850000381469727
1750560794552726300,12.495726318359376,6.834000110626221,7.0600504875183105,0.40800002217292786
1750560794562331100,12.5053310546875,6.765000343322754,7.14300012588501,0.2689500153064728
