time,seconds_elapsed,z,y,x
1750560782143424000,0.086424072265625,0.04592499881982803,0.22055000066757202,-0.3316499888896942
1750560782153028600,0.096028564453125,0.009212499484419823,0.15097500383853912,-0.3011249899864197
1750560782162633500,0.105633544921875,-0.03959999978542328,0.09968750178813934,-0.3254624903202057
1750560782172238000,0.115238037109375,-0.05912499874830246,0.043449997901916504,-0.3877499997615814
1750560782181842700,0.1248427734375,0.055687498301267624,0.016499999910593033,-0.45746248960494995
1750560782191447300,0.134447265625,0.16197499632835388,-0.007837500423192978,-0.48069998621940613
1750560782201052000,0.144052001953125,0.164450004696846,-0.12264999747276306,-0.4195125102996826
1750560782210656500,0.153656494140625,0.09239999949932098,-0.2046000063419342,-0.2974124848842621
1750560782220261000,0.16326123046875,0.015399999916553497,-0.2046000063419342,-0.16664999723434448
1750560782229865700,0.17286572265625,-0.04331250116229057,-0.16183750331401825,-0.04936249926686287
1750560782239470600,0.182470703125,-0.06764999777078629,-0.09831249713897705,0.05816249921917915
1750560782249075200,0.1920751953125,-0.05912499874830246,-0.03712499886751175,0.1424500048160553
1750560782258679800,0.2016796875,-0.045649997889995575,0.018975000828504562,0.19373749196529388
1750560782268284400,0.211284423828125,-0.02488750033080578,0.0494999997317791,0.19249999523162842
1750560782277889000,0.220888916015625,0.0006874999962747097,0.010449999943375587,0.1447875052690506
1750560782287494100,0.230494140625,0.029975000768899918,-0.1251250058412552,0.08016250282526016
1750560782297098800,0.2400986328125,0.05197500064969063,-0.28517499566078186,0.007974999956786633
1750560782306703400,0.249703369140625,0.06544999778270721,-0.39765000343322754,-0.05431250110268593
1750560782316308000,0.259307861328125,0.06063750013709068,-0.41593748331069946,-0.09212499856948853
1750560782325912600,0.26891259765625,0.026399999856948853,-0.3609375059604645,-0.10807500034570694
1750560782335517200,0.27851708984375,-0.016362499445676804,-0.27665001153945923,-0.09831249713897705
1750560782345121800,0.288121826171875,-0.04455000162124634,-0.17641249299049377,-0.09459999948740005
1750560782354726400,0.297726318359375,-0.045649997889995575,-0.09212499856948853,-0.11783749610185623
1750560782364331000,0.3073310546875,-0.023787500336766243,-0.058024998754262924,-0.15565000474452972
1750560782373935900,0.316935791015625,0.017875000834465027,-0.06655000150203705,-0.19112500548362732
1750560782383540500,0.32654052734375,0.04592499881982803,-0.1471250057220459,-0.2069374918937683
1750560782393145000,0.33614501953125,0.025162499397993088,-0.27541249990463257,-0.19359999895095825
1750560782402749700,0.345749755859375,-0.016362499445676804,-0.37798750400543213,-0.15207499265670776
1750560782412354300,0.355354248046875,-0.0518375001847744,-0.41964998841285706,-0.10807500034570694
1750560782421959200,0.364959228515625,-0.07259999960660934,-0.37564998865127563,-0.06159999966621399
1750560782431564000,0.37456396484375,-0.07507500052452087,-0.260699987411499,-0.016362499445676804
1750560782441168600,0.384168701171875,-0.06159999966621399,-0.1313125044107437,0.020212499424815178
1750560782450773200,0.393773193359375,-0.05912499874830246,-0.04331250116229057,0.03492499887943268
1750560782460377900,0.4033779296875,-0.060362499207258224,0.006737499963492155,0.03616249933838844
1750560782469982500,0.412982421875,-0.0798875018954277,0.04097500070929527,0.022687500342726707
1750560782479587000,0.422587158203125,-0.11288750171661377,0.029975000768899918,-0.006599999964237213
1750560782489192000,0.43219189453125,-0.10917499661445618,0.031212499365210533,-0.05431250110268593
1750560782498796300,0.44179638671875,-0.07383749634027481,0.05197500064969063,-0.1190750002861023
1750560782508401200,0.451401123046875,-0.02736249938607216,0.06173750013113022,-0.18988749384880066
1750560782518005800,0.461005859375,0.027637500315904617,0.05692499876022339,-0.25712499022483826
1750560782527610400,0.4706103515625,0.07163749635219574,0.04468749836087227,-0.3011249899864197
1750560782537215000,0.480215087890625,0.06916250288486481,0.028737500309944153,-0.29493749141693115
1750560782546819600,0.489819580078125,0.03616249933838844,0.022687500342726707,-0.2387000024318695
1750560782556424400,0.499424560546875,0.0056374999694526196,0.04221250116825104,-0.17407499253749847
1750560782566029000,0.509029052734375,-0.021312499418854713,0.055687498301267624,-0.1288374960422516
1750560782575633700,0.518633544921875,-0.050599999725818634,0.05321250110864639,-0.10188750177621841
1750560782585238300,0.52823828125,-0.06888750195503235,0.055687498301267624,-0.07507500052452087
1750560782594843100,0.537843017578125,-0.060362499207258224,0.07150000333786011,-0.04455000162124634
1750560782604447700,0.54744775390625,-0.03355000168085098,0.0812624990940094,-0.016362499445676804
1750560782614052400,0.55705224609375,0.0056374999694526196,0.0812624990940094,0.0031624999828636646
1750560782623657000,0.566656982421875,0.03244999796152115,0.06792499870061874,0.011687500402331352
1750560782633261600,0.576261474609375,0.04468749836087227,0.05816249921917915,-0.0017874999903142452
1750560782642866200,0.5858662109375,0.043449997901916504,0.06297499686479568,-0.02983750030398369
1750560782652470800,0.595470703125,0.023924998939037323,0.07644999772310257,-0.060362499207258224
1750560782662075600,0.60507568359375,-0.012787500396370888,0.09473749995231628,-0.0775500014424324
1750560782671680300,0.61468017578125,-0.03231250122189522,0.12278749793767929,-0.06283749639987946
1750560782681284900,0.624284912109375,-0.02736249938607216,0.1545500010251999,-0.02736249938607216
1750560782690889500,0.633889404296875,-0.0017874999903142452,0.18150000274181366,0.007974999956786633
1750560782700494300,0.643494384765625,0.021449999883770943,0.1802625060081482,0.028737500309944153
1750560782710099000,0.653098876953125,0.04221250116825104,0.12044999748468399,0.018975000828504562
1750560782719703600,0.66270361328125,0.04963750019669533,0.04097500070929527,-0.02502499893307686
1750560782729308400,0.672308349609375,0.05444999784231186,-0.05912499874830246,-0.07383749634027481
1750560782738913000,0.6819130859375,0.06421250104904175,-0.1251250058412552,-0.10312499850988388
1750560782748517600,0.691517578125,0.06668750196695328,-0.1251250058412552,-0.09707500040531158
1750560782758122200,0.701122314453125,0.06544999778270721,-0.06407500058412552,-0.06283749639987946
1750560782767726800,0.710726806640625,0.05197500064969063,0.048262499272823334,-0.009074999950826168
1750560782777331700,0.720331787109375,0.023924998939037323,0.13144999742507935,0.05926249921321869
1750560782786936300,0.729936279296875,0.0031624999828636646,0.16321249306201935,0.11426249891519547
1750560782796541000,0.739541015625,0.0019249999895691872,0.15344999730587006,0.14121249318122864
1750560782806145500,0.7491455078125,0.022687500342726707,0.10202500224113464,0.148499995470047
1750560782815750100,0.758750244140625,0.04097500070929527,0.029975000768899918,0.13997499644756317
1750560782825355000,0.76835498046875,0.04468749836087227,-0.03959999978542328,0.11550000309944153
1750560782834959600,0.777959716796875,0.03244999796152115,-0.08978749811649323,0.07397499680519104
1750560782844564000,0.78756396484375,0.008112499490380287,-0.09459999948740005,0.031212499365210533
1750560782854168800,0.7971689453125,-0.021312499418854713,-0.0775500014424324,0.011687500402331352
1750560782863773400,0.8067734375,-0.038362499326467514,-0.018837500363588333,0.010449999943375587
1750560782873378300,0.81637841796875,-0.02983750030398369,0.06173750013113022,0.018975000828504562
1750560782882983000,0.82598291015625,-0.010312499478459358,0.12278749793767929,0.031212499365210533
1750560782892587500,0.83558740234375,0.011687500402331352,0.13144999742507935,0.03973750025033951
1750560782902192400,0.8451923828125,0.03244999796152115,0.1069749966263771,0.04839999973773956
1750560782911797000,0.854796875,0.043449997901916504,0.05321250110864639,0.05444999784231186
1750560782921401600,0.864401611328125,0.04592499881982803,-0.006599999964237213,0.05321250110864639
1750560782931006200,0.874006103515625,0.04592499881982803,-0.07136250287294388,0.03973750025033951
1750560782940611000,0.883611083984375,0.04839999973773956,-0.12155000120401382,0.012924999929964542
1750560782950215700,0.893215576171875,0.04963750019669533,-0.1568875014781952,-0.012787500396370888
1750560782959820500,0.902820556640625,0.04592499881982803,-0.14588749408721924,-0.03959999978542328
1750560782969425000,0.9124248046875,0.03492499887943268,-0.0775500014424324,-0.05555000156164169
1750560782979029800,0.92202978515625,0.011687500402331352,0.016499999910593033,-0.0518375001847744
1750560782988634600,0.931634521484375,0.0031624999828636646,0.10821250081062317,-0.04331250116229057
1750560782998239200,0.9412392578125,0.018975000828504562,0.164450004696846,-0.036024998873472214
1750560783007843800,0.95084375,0.043449997901916504,0.15097500383853912,-0.016362499445676804
1750560783017448400,0.960448486328125,0.05321250110864639,0.07397499680519104,0.0019249999895691872
1750560783027053000,0.970052978515625,0.03244999796152115,-0.05678749829530716,0.007974999956786633
1750560783036658000,0.979657958984375,-0.007837500423192978,-0.17159999907016754,0.011687500402331352
1750560783046262500,0.989262451171875,-0.048124998807907104,-0.19483749568462372,0.022687500342726707
1750560783055867100,0.9988671875,-0.07631249725818634,-0.12636250257492065,0.04839999973773956
1750560783065471700,1.0084716796875,-0.07507500052452087,-0.026262499392032623,0.09350000321865082
1750560783075076400,1.018076416015625,-0.06407500058412552,0.05816249921917915,0.1350249946117401
1750560783084681000,1.027680908203125,-0.04207500070333481,0.06792499870061874,0.148499995470047
1750560783094285800,1.037285888671875,-0.05912499874830246,0.05073750019073486,0.15097500383853912
1750560783103890200,1.04689013671875,-0.04207500070333481,0.0006874999962747097,0.1106875017285347
1750560783113495000,1.0564951171875,-0.03959999978542328,-0.09088750183582306,0.05444999784231186
1750560783123099600,1.066099609375,-0.02983750030398369,-0.19607499241828918,0.011687500402331352
1750560783132704300,1.075704345703125,-0.015124999918043613,-0.2521750032901764,-0.015124999918043613
1750560783142309000,1.08530908203125,-0.0028874999843537807,-0.25341248512268066,-0.038362499326467514
1750560783151914000,1.0949140625,0.0031624999828636646,-0.19483749568462372,-0.06531249731779099
1750560783161518600,1.1045185546875,0.010449999943375587,-0.07383749634027481,-0.08112499862909317
1750560783171123200,1.114123291015625,0.018975000828504562,-0.014024999924004078,-0.0798875018954277
1750560783180727800,1.123727783203125,0.011687500402331352,-0.031075000762939453,-0.05912499874830246
1750560783190332700,1.133332763671875,0.016637500375509262,-0.012787500396370888,-0.0042624999769032
1750560783199937000,1.14293701171875,0.010449999943375587,-0.0042624999769032,0.05816249921917915
1750560783209542000,1.1525419921875,-0.004124999977648258,-0.02736249938607216,0.10326249897480011
1750560783219146500,1.162146484375,-0.009074999950826168,-0.06778749823570251,0.1264999955892563
1750560783228751000,1.171751220703125,0.0019249999895691872,-0.07383749634027481,0.11426249891519547
1750560783238356000,1.18135595703125,0.015399999916553497,-0.045787498354911804,0.07273750007152557
1750560783247960600,1.190960693359375,0.018975000828504562,0.025162499397993088,0.026399999856948853
1750560783257565200,1.200565185546875,0.026399999856948853,0.1522125005722046,-0.0017874999903142452
1750560783267170000,1.210170166015625,0.03492499887943268,0.29631251096725464,-0.011549999937415123
1750560783276774700,1.219774658203125,0.03739999979734421,0.41731250286102295,-0.005362499970942736
1750560783286379300,1.229379150390625,0.04097500070929527,0.45883750915527344,0.0006874999962747097
1750560783295984000,1.238984130859375,0.04221250116825104,0.37331250309944153,-0.009074999950826168
1750560783305588700,1.248588623046875,0.026399999856948853,0.21078750491142273,-0.04455000162124634
1750560783315193300,1.258193359375,-0.006599999964237213,0.017737500369548798,-0.09583749622106552
1750560783324798000,1.2677978515625,-0.04455000162124634,-0.16664999723434448,-0.12031249701976776
1750560783334402600,1.277402587890625,-0.07136250287294388,-0.2595999836921692,-0.11783749610185623
1750560783344007200,1.287007080078125,-0.07864999771118164,-0.25712499022483826,-0.10064999759197235
1750560783353612000,1.296612060546875,-0.06888750195503235,-0.19112500548362732,-0.060362499207258224
1750560783363216600,1.306216552734375,-0.057887498289346695,-0.07878749817609787,-0.010312499478459358
1750560783372821500,1.315821533203125,-0.048124998807907104,0.03973750025033951,0.031212499365210533
1750560783382426000,1.325426025390625,-0.04455000162124634,0.1289750039577484,0.05321250110864639
1750560783392030700,1.33503076171875,-0.053075000643730164,0.1839749962091446,0.06792499870061874
1750560783401635600,1.344635498046875,-0.07259999960660934,0.2059749960899353,0.09226249903440475
1750560783411240200,1.354240234375,-0.09831249713897705,0.16926249861717224,0.1289750039577484
1750560783420844800,1.3638447265625,-0.11288750171661377,0.10202500224113464,0.14973749220371246
1750560783430449400,1.373449462890625,-0.11412499845027924,0.026399999856948853,0.1387374997138977
1750560783440054300,1.38305419921875,-0.10559999942779541,-0.05555000156164169,0.1069749966263771
1750560783449659000,1.392658935546875,-0.089649997651577,-0.11659999936819077,0.05816249921917915
1750560783459263500,1.402263427734375,-0.08112499862909317,-0.16541250050067902,0.011687500402331352
1750560783468868000,1.4118681640625,-0.089649997651577,-0.1886499971151352,-0.023787500336766243
1750560783478473000,1.421472900390625,-0.10064999759197235,-0.172837495803833,-0.04702499881386757
1750560783488077600,1.43107763671875,-0.08607500046491623,-0.1153625026345253,-0.05555000156164169
1750560783497682200,1.44068212890625,-0.05664999783039093,-0.05431250110268593,-0.048124998807907104
1750560783507287000,1.450287109375,-0.02736249938607216,-0.022549999877810478,-0.036024998873472214
1750560783516891600,1.4598916015625,-0.004124999977648258,-0.023787500336766243,-0.031075000762939453
1750560783526496300,1.469496337890625,0.0019249999895691872,-0.04207500070333481,-0.03959999978542328
1750560783536101000,1.47910107421875,-0.020075000822544098,-0.09212499856948853,-0.04331250116229057
1750560783545705700,1.488705810546875,-0.053075000643730164,-0.1471250057220459,-0.03478749841451645
1750560783555310300,1.498310302734375,-0.07507500052452087,-0.16541250050067902,-0.02736249938607216
1750560783564915000,1.5079150390625,-0.07631249725818634,-0.13255000114440918,-0.022549999877810478
1750560783574519600,1.51751953125,-0.06159999966621399,-0.0873124971985817,-0.015124999918043613
1750560783584124200,1.527124267578125,-0.04207500070333481,-0.05912499874830246,-0.0030249999836087227
1750560783593729000,1.53672900390625,-0.026124998927116394,-0.04207500070333481,0.0056374999694526196
1750560783603333600,1.546333740234375,-0.012787500396370888,-0.022549999877810478,0.004399999976158142
1750560783612938200,1.555938232421875,-0.007837500423192978,-0.0017874999903142452,0.010449999943375587
1750560783622542800,1.56554296875,-0.016362499445676804,-0.011549999937415123,0.04592499881982803
1750560783632147700,1.575147705078125,-0.02488750033080578,-0.028599999845027924,0.0849749967455864
1750560783641752300,1.58475244140625,-0.023787500336766243,-0.04702499881386757,0.10326249897480011
1750560783651357200,1.594357177734375,-0.015124999918043613,-0.07012499868869781,0.09350000321865082
1750560783660961800,1.6039619140625,0.0056374999694526196,-0.06902500241994858,0.055687498301267624
1750560783670566400,1.61356640625,0.026399999856948853,-0.048124998807907104,0.006737499963492155
1750560783680171300,1.623171142578125,0.03987500071525574,-0.021312499418854713,-0.03478749841451645
1750560783689775900,1.63277587890625,0.043449997901916504,0.027499999850988388,-0.06888750195503235
1750560783699380700,1.642380615234375,0.026399999856948853,0.0789249986410141,-0.09336250275373459
1750560783708985300,1.6519853515625,0.011687500402331352,0.10573749989271164,-0.1153625026345253
1750560783718590000,1.66158984375,0.004399999976158142,0.09226249903440475,-0.1508374959230423
1750560783728194600,1.671194580078125,-0.005362499970942736,0.0471624992787838,-0.19359999895095825
1750560783737799200,1.680799072265625,-0.012787500396370888,0.023924998939037323,-0.23512500524520874
1750560783747404000,1.690404052734375,-0.013887500390410423,0.05444999784231186,-0.26688748598098755
1750560783757008600,1.700008544921875,-0.005362499970942736,0.10449999570846558,-0.2583625018596649
1750560783766613200,1.70961328125,-0.0028874999843537807,0.15826250612735748,-0.19483749568462372
1750560783776217900,1.7192177734375,-0.007837500423192978,0.17902499437332153,-0.09955000132322311
1750560783785822500,1.728822509765625,-0.018837500363588333,0.17297500371932983,-0.009074999950826168
1750560783795427000,1.738427001953125,-0.028599999845027924,0.148499995470047,0.05444999784231186
1750560783805032000,1.748031982421875,-0.026124998927116394,0.1106875017285347,0.10449999570846558
1750560783814636800,1.75763671875,-0.015124999918043613,0.05816249921917915,0.14602500200271606
1750560783824241400,1.767241455078125,-0.004124999977648258,0.0019249999895691872,0.18754999339580536
1750560783833846000,1.776845947265625,-0.0028874999843537807,-0.08236250281333923,0.2523125112056732
1750560783843451000,1.786450927734375,-0.007837500423192978,-0.12264999747276306,0.3244999945163727
1750560783853055500,1.796055419921875,-0.01759999990463257,-0.08978749811649323,0.37331250309944153
1750560783862660000,1.80566015625,-0.038362499326467514,-0.05912499874830246,0.3843125104904175
1750560783872264700,1.8152646484375,-0.057887498289346695,-0.020075000822544098,0.3513124883174896
1750560783881869600,1.82486962890625,-0.06531249731779099,0.0494999997317791,0.284074991941452
1750560783891474200,1.83447412109375,-0.06641250103712082,0.11797499656677246,0.2022625058889389
1750560783901078800,1.844078857421875,-0.048124998807907104,0.1424500048160553,0.13021250069141388
1750560783910683600,1.85368359375,-0.009074999950826168,0.11550000309944153,0.08016250282526016
1750560783920288500,1.86328857421875,0.022687500342726707,0.05816249921917915,0.029975000768899918
1750560783929893000,1.87289306640625,0.031212499365210533,-0.020075000822544098,-0.02736249938607216
1750560783939497700,1.882497802734375,0.020212499424815178,-0.08607500046491623,-0.10312499850988388
1750560783949102300,1.892102294921875,0.0031624999828636646,-0.11288750171661377,-0.1788875013589859
1750560783958707200,1.901707275390625,0.014162499457597733,-0.08112499862909317,-0.22783750295639038
1750560783968311800,1.911311767578125,0.04097500070929527,0.005499999970197678,-0.2424124926328659
1750560783977916400,1.92091650390625,0.031212499365210533,0.05197500064969063,-0.19112500548362732
1750560783987521000,1.93052099609375,0.006874999962747097,0.08868750184774399,-0.10807500034570694
1750560783997126000,1.9401259765625,0.011687500402331352,0.15702499449253082,-0.04936249926686287
1750560784006730500,1.94973046875,0.017875000834465027,0.1545500010251999,0.011687500402331352
1750560784016335400,1.95933544921875,0.011687500402331352,0.08002500236034393,0.05321250110864639
1750560784025940000,1.96893994140625,0.015399999916553497,0.04468749836087227,0.06668750196695328
1750560784035544600,1.978544677734375,0.023924998939037323,0.07397499680519104,0.09473749995231628
1750560784045149200,1.988149169921875,0.008112499490380287,0.08002500236034393,0.14726249873638153
1750560784054754000,1.997754150390625,-0.005362499970942736,0.10326249897480011,0.16321249306201935
1750560784064358700,2.007358642578125,-0.004124999977648258,0.148499995470047,0.1326874941587448
1750560784073963300,2.01696337890625,0.0056374999694526196,0.15578749775886536,0.08868750184774399
1750560784083567900,2.02656787109375,0.025162499397993088,0.09350000321865082,0.03739999979734421
1750560784093172700,2.0361728515625,0.05321250110864639,0.021449999883770943,-0.020075000822544098
1750560784102777300,2.04577734375,0.0789249986410141,-0.0030249999836087227,-0.06778749823570251
1750560784112382200,2.05538232421875,0.09968750178813934,0.022687500342726707,-0.089649997651577
1750560784121986800,2.06498681640625,0.11316250264644623,0.07026249915361404,-0.08483749628067017
1750560784131591400,2.07459130859375,0.10944999754428864,0.08621250092983246,-0.06778749823570251
1750560784141196300,2.0841962890625,0.06544999778270721,0.04097500070929527,-0.04702499881386757
1750560784150801000,2.09380078125,0.025162499397993088,-0.031075000762939453,-0.03712499886751175
1750560784160405800,2.10340576171875,0.018975000828504562,-0.05555000156164169,-0.05678749829530716
1750560784170010400,2.11301025390625,0.023924998939037323,-0.06159999966621399,-0.07012499868869781
1750560784179615000,2.122614990234375,0.05321250110864639,-0.06283749639987946,-0.060362499207258224
1750560784189219600,2.132219482421875,0.08868750184774399,-0.06159999966621399,-0.048124998807907104
1750560784198824200,2.14182421875,0.10216250270605087,-0.04702499881386757,-0.04331250116229057
1750560784208429000,2.151428955078125,0.08992499858140945,-0.04331250116229057,-0.048124998807907104
1750560784218033700,2.16103369140625,0.06544999778270721,-0.02736249938607216,-0.06283749639987946
1750560784227638300,2.17063818359375,0.04592499881982803,0.004399999976158142,-0.07507500052452087
1750560784237243100,2.1802431640625,0.03368749842047691,0.03726249933242798,-0.09088750183582306
1750560784246847700,2.18984765625,0.029975000768899918,0.027499999850988388,-0.09707500040531158
1750560784256452400,2.199452392578125,0.018975000828504562,0.006737499963492155,-0.09212499856948853
1750560784266057200,2.20905712890625,-0.0005499999970197678,-0.020075000822544098,-0.09707500040531158
1750560784275662000,2.218662109375,-0.010312499478459358,-0.06902500241994858,-0.1116499975323677
1750560784285266700,2.2282666015625,-0.007837500423192978,-0.14464999735355377,-0.12636250257492065
1750560784294871300,2.237871337890625,0.004399999976158142,-0.20817500352859497,-0.12759999930858612
1750560784304476000,2.247475830078125,0.014162499457597733,-0.18988749384880066,-0.1214125007390976
1750560784314080500,2.25708056640625,0.016637500375509262,-0.11412499845027924,-0.09583749622106552
1750560784323685400,2.266685302734375,0.004399999976158142,-0.021312499418854713,-0.05678749829530716
1750560784333290000,2.2762900390625,-0.010312499478459358,0.06173750013113022,-0.012787500396370888
1750560784342894600,2.28589453125,-0.023787500336766243,0.11426249891519547,0.023924998939037323
1750560784352499200,2.295499267578125,-0.038362499326467514,0.1350249946117401,0.04592499881982803
1750560784362104000,2.30510400390625,-0.057887498289346695,0.1289750039577484,0.05692499876022339
1750560784371709000,2.314708984375,-0.07383749634027481,0.09721250087022781,0.060499999672174454
1750560784381313500,2.3243134765625,-0.07631249725818634,0.07150000333786011,0.05444999784231186
1750560784390918100,2.333918212890625,-0.06531249731779099,0.05816249921917915,0.03739999979734421
1750560784400523000,2.34352294921875,-0.04936249926686287,0.05073750019073486,0.017737500369548798
1750560784410127600,2.353127685546875,-0.03712499886751175,0.028737500309944153,0.007974999956786633
1750560784419732200,2.362732177734375,-0.023787500336766243,0.007974999956786633,0.0006874999962747097
1750560784429336800,2.3723369140625,-0.011549999937415123,0.004399999976158142,-0.006599999964237213
1750560784438941700,2.381941650390625,-0.007837500423192978,0.010449999943375587,-0.016362499445676804
1750560784448546300,2.39154638671875,-0.015124999918043613,0.016499999910593033,-0.02502499893307686
1750560784458151000,2.40115087890625,-0.02488750033080578,0.0006874999962747097,-0.02502499893307686
1750560784467755800,2.410755859375,-0.03355000168085098,-0.020075000822544098,-0.01759999990463257
1750560784477360400,2.4203603515625,-0.03712499886751175,-0.018837500363588333,-0.005362499970942736
1750560784486965000,2.429965087890625,-0.035887498408555984,-0.0005499999970197678,0.009212499484419823
1750560784496569600,2.439569580078125,-0.045649997889995575,0.010449999943375587,0.027499999850988388
1750560784506174500,2.449174560546875,-0.05912499874830246,0.015399999916553497,0.03973750025033951
1750560784515779300,2.458779296875,-0.06159999966621399,0.016499999910593033,0.03368749842047691
1750560784525383700,2.4683837890625,-0.05664999783039093,0.016499999910593033,0.015399999916553497
1750560784534988500,2.477988525390625,-0.048124998807907104,0.0006874999962747097,-0.009074999950826168
1750560784544593400,2.487593505859375,-0.053075000643730164,-0.014024999924004078,-0.036024998873472214
1750560784554198000,2.497197998046875,-0.06159999966621399,0.0019249999895691872,-0.057887498289346695
1750560784563802600,2.506802734375,-0.05555000156164169,0.018975000828504562,-0.06283749639987946
1750560784573407200,2.5164072265625,-0.031075000762939453,0.026399999856948853,-0.053075000643730164
1750560784583012000,2.52601220703125,-0.012787500396370888,0.016499999910593033,-0.03231250122189522
1750560784592616700,2.53561669921875,-0.009074999950826168,0.007974999956786633,-0.007837500423192978
1750560784602221300,2.54522119140625,-0.012787500396370888,0.015399999916553497,0.010449999943375587
1750560784611826000,2.554825927734375,-0.01759999990463257,0.007974999956786633,0.020212499424815178
1750560784621430800,2.5644306640625,-0.01759999990463257,-0.018837500363588333,0.015399999916553497
1750560784631035400,2.574035400390625,-0.016362499445676804,-0.04207500070333481,-0.006599999964237213
1750560784640640000,2.583639892578125,-0.018837500363588333,-0.05431250110268593,-0.031075000762939453
1750560784650244900,2.593244873046875,-0.022549999877810478,-0.04207500070333481,-0.0518375001847744
1750560784659849500,2.602849365234375,-0.021312499418854713,-0.009074999950826168,-0.06407500058412552
1750560784669454000,2.6124541015625,-0.012787500396370888,0.027499999850988388,-0.060362499207258224
1750560784679059000,2.622058837890625,-0.01759999990463257,0.03492499887943268,-0.04702499881386757
1750560784688663800,2.631663818359375,-0.03231250122189522,0.017737500369548798,-0.036024998873472214
1750560784698268400,2.641268310546875,-0.038362499326467514,0.004399999976158142,-0.03478749841451645
1750560784707873000,2.650873046875,-0.03712499886751175,-0.0042624999769032,-0.040837500244379044
1750560784717477600,2.6604775390625,-0.04331250116229057,-0.012787500396370888,-0.060362499207258224
1750560784727082500,2.67008251953125,-0.04936249926686287,-0.022549999877810478,-0.0873124971985817
1750560784736687000,2.67968701171875,-0.0518375001847744,-0.02983750030398369,-0.10683749616146088
1750560784746291700,2.689291748046875,-0.05555000156164169,-0.04207500070333481,-0.10188750177621841
1750560784755896600,2.698896484375,-0.060362499207258224,-0.040837500244379044,-0.08112499862909317
1750560784765501200,2.708501220703125,-0.05664999783039093,-0.0005499999970197678,-0.053075000643730164
1750560784775105800,2.718105712890625,-0.048124998807907104,0.05197500064969063,-0.015124999918043613
1750560784784710700,2.727710693359375,-0.038362499326467514,0.10821250081062317,0.029975000768899918
1750560784794315300,2.737315185546875,-0.040837500244379044,0.16073749959468842,0.07397499680519104
1750560784803920100,2.746920166015625,-0.05555000156164169,0.19731250405311584,0.10821250081062317
1750560784813524700,2.756524658203125,-0.053075000643730164,0.19497500360012054,0.1387374997138977
1750560784823129300,2.76612939453125,-0.028599999845027924,0.1289750039577484,0.13997499644756317
1750560784832734200,2.775734130859375,-0.004124999977648258,0.03973750025033951,0.08744999766349792
1750560784842338800,2.7853388671875,0.017875000834465027,-0.05431250110268593,0.0031624999828636646
1750560784851943400,2.794943359375,0.025162499397993088,-0.12264999747276306,-0.09212499856948853
1750560784861548000,2.804548095703125,0.028875000774860382,-0.133650004863739,-0.15936249494552612
1750560784871153000,2.81415283203125,0.016637500375509262,-0.1153625026345253,-0.17036250233650208
1750560784880757500,2.823757568359375,-0.0005499999970197678,-0.0835999995470047,-0.12636250257492065
1750560784890362400,2.8333623046875,-0.009074999950826168,-0.03959999978542328,-0.05678749829530716
1750560784899967000,2.842967041015625,-0.006599999964237213,0.020212499424815178,0.016637500375509262
1750560784909571800,2.85257177734375,0.0006874999962747097,0.07397499680519104,0.06668750196695328
1750560784919176400,2.862176513671875,0.010449999943375587,0.12168750166893005,0.08992499858140945
1750560784928781000,2.871781005859375,0.016637500375509262,0.13997499644756317,0.09597499668598175
1750560784938386000,2.881385986328125,0.010449999943375587,0.1326874941587448,0.0789249986410141
1750560784947990500,2.890990478515625,-0.012787500396370888,0.08992499858140945,0.043449997901916504
1750560784957595100,2.90059521484375,-0.03464999794960022,0.031212499365210533,-0.0017874999903142452
1750560784967200000,2.910199951171875,-0.03464999794960022,-0.014024999924004078,-0.050599999725818634
1750560784976804400,2.919804443359375,-0.021312499418854713,-0.04936249926686287,-0.07631249725818634
1750560784986409200,2.9294091796875,-0.0005499999970197678,-0.06283749639987946,-0.07507500052452087
1750560784996014300,2.939014404296875,0.010449999943375587,-0.036024998873472214,-0.0518375001847744
1750560785005619000,2.948618896484375,0.0031624999828636646,-0.0030249999836087227,-0.012787500396370888
1750560785015223600,2.9582236328125,-0.013887500390410423,0.017737500369548798,0.03244999796152115
1750560785024828200,2.967828125,-0.031075000762939453,0.03616249933838844,0.05926249921321869
1750560785034433000,2.97743310546875,-0.04207500070333481,0.04592499881982803,0.06668750196695328
1750560785044037400,2.987037353515625,-0.04331250116229057,0.07026249915361404,0.05926249921321869
1750560785053642200,2.996642333984375,-0.04936249926686287,0.12526249885559082,0.05692499876022339
1750560785063246800,3.006246826171875,-0.05555000156164169,0.18273749947547913,0.05197500064969063
1750560785072851500,3.0158515625,-0.06531249731779099,0.196212500333786,0.04468749836087227
1750560785082456300,3.025456298828125,-0.07383749634027481,0.13997499644756317,0.023924998939037323
1750560785092061200,3.035061279296875,-0.07507500052452087,0.055687498301267624,-0.03231250122189522
1750560785101665800,3.044665771484375,-0.07136250287294388,-0.026262499392032623,-0.11412499845027924
1750560785111270400,3.0542705078125,-0.05664999783039093,-0.08978749811649323,-0.18741250038146973
1750560785120875300,3.063875244140625,-0.07383749634027481,-0.17036250233650208,-0.19236250221729279
1750560785130479900,3.07347998046875,-0.07864999771118164,-0.1825999915599823,-0.16183750331401825
1750560785140084700,3.083084716796875,-0.05431250110268593,-0.12759999930858612,-0.11288750171661377
1750560785149689300,3.092689453125,-0.035887498408555984,-0.05431250110268593,-0.05678749829530716
1750560785159294000,3.1022939453125,-0.026124998927116394,0.011687500402331352,-0.009074999950826168
1750560785168898600,3.111898681640625,-0.026124998927116394,0.05816249921917915,0.023924998939037323
1750560785178503200,3.121503173828125,-0.038362499326467514,0.09721250087022781,0.04468749836087227
1750560785188108300,3.1311083984375,-0.053075000643730164,0.13021250069141388,0.0471624992787838
1750560785197713000,3.140712890625,-0.0518375001847744,0.13997499644756317,0.025162499397993088
1750560785207317500,3.1503173828125,-0.03959999978542328,0.12402500212192535,-0.016362499445676804
1750560785216922400,3.15992236328125,-0.023787500336766243,0.05692499876022339,-0.06531249731779099
1750560785226527000,3.16952685546875,-0.006599999964237213,-0.038362499326467514,-0.1116499975323677
1750560785236131600,3.179131591796875,0.016637500375509262,-0.10683749616146088,-0.12264999747276306
1750560785245736400,3.188736328125,0.026399999856948853,-0.1373624950647354,-0.09336250275373459
1750560785255341000,3.198341064453125,0.020212499424815178,-0.09831249713897705,-0.040837500244379044
1750560785264945700,3.207945556640625,0.006874999962747097,-0.022549999877810478,0.027499999850988388
1750560785274550300,3.21755029296875,-0.009074999950826168,0.06297499686479568,0.09350000321865082
1750560785284155100,3.227155029296875,-0.02983750030398369,0.12278749793767929,0.13997499644756317
1750560785293760000,3.236760009765625,-0.04331250116229057,0.14121249318122864,0.16073749959468842
1750560785303364600,3.246364501953125,-0.040837500244379044,0.13378749787807465,0.16321249306201935
1750560785312969200,3.25596923828125,-0.012787500396370888,0.11178749799728394,0.15702499449253082
1750560785322573800,3.26557373046875,0.018975000828504562,0.06421250104904175,0.14368750154972076
1750560785332178700,3.2751787109375,0.04839999973773956,0.012924999929964542,0.11302500218153
1750560785341783600,3.284783447265625,0.06421250104904175,-0.023787500336766243,0.06668750196695328
1750560785351388200,3.29438818359375,0.06173750013113022,-0.06778749823570251,0.016637500375509262
1750560785360992800,3.30399267578125,0.04468749836087227,-0.09212499856948853,-0.02736249938607216
1750560785370597600,3.31359765625,0.022687500342726707,-0.07507500052452087,-0.057887498289346695
1750560785380202200,3.3232021484375,0.006874999962747097,-0.02502499893307686,-0.07012499868869781
1750560785389807000,3.33280712890625,0.0006874999962747097,0.055687498301267624,-0.05678749829530716
1750560785399411500,3.342411376953125,-0.005362499970942736,0.11797499656677246,-0.01759999990463257
1750560785409016300,3.352016357421875,0.0019249999895691872,0.14602500200271606,0.017737500369548798
1750560785418621000,3.361620849609375,0.015399999916553497,0.1350249946117401,0.025162499397993088
1750560785428225800,3.371225830078125,0.017875000834465027,0.07644999772310257,0.0031624999828636646
1750560785437830400,3.380830322265625,0.010449999943375587,0.015399999916553497,-0.03478749841451645
1750560785447435000,3.39043505859375,0.004399999976158142,-0.02983750030398369,-0.07631249725818634
1750560785457040000,3.400039794921875,-0.010312499478459358,-0.04936249926686287,-0.09955000132322311
1750560785466644700,3.409644775390625,-0.015124999918043613,-0.045787498354911804,-0.10188750177621841
1750560785476249300,3.419249267578125,-0.011549999937415123,-0.010312499478459358,-0.08607500046491623
1750560785485854000,3.42885400390625,-0.0017874999903142452,0.029975000768899918,-0.050599999725818634
1750560785495458600,3.43845849609375,0.010449999943375587,0.05073750019073486,-0.006599999964237213
1750560785505063200,3.448063232421875,0.015399999916553497,0.04468749836087227,0.028737500309944153
1750560785514668000,3.45766796875,0.009212499484419823,0.026399999856948853,0.04468749836087227
1750560785524272600,3.467272705078125,-0.006599999964237213,-0.005362499970942736,0.04221250116825104
1750560785533877200,3.476877197265625,-0.03355000168085098,-0.021312499418854713,0.025162499397993088
1750560785543482000,3.486482177734375,-0.05431250110268593,-0.020075000822544098,0.004399999976158142
1750560785553087000,3.4960869140625,-0.05555000156164169,0.0031624999828636646,-0.020075000822544098
1750560785562691600,3.505691650390625,-0.040837500244379044,0.023924998939037323,-0.04207500070333481
1750560785572296400,3.51529638671875,-0.02488750033080578,0.009212499484419823,-0.05678749829530716
1750560785581901000,3.524901123046875,-0.010312499478459358,-0.018837500363588333,-0.06531249731779099
1750560785591505700,3.534505615234375,-0.006599999964237213,-0.048124998807907104,-0.060362499207258224
1750560785601110500,3.544110595703125,-0.012787500396370888,-0.06159999966621399,-0.048124998807907104
1750560785610715100,3.553715087890625,-0.026124998927116394,-0.04331250116229057,-0.03231250122189522
1750560785620319700,3.56331982421875,-0.028599999845027924,-0.0030249999836087227,-0.015124999918043613
1750560785629924400,3.57292431640625,-0.02488750033080578,0.03616249933838844,0.007974999956786633
1750560785639529500,3.582529541015625,-0.016362499445676804,0.05197500064969063,0.018975000828504562
1750560785649134000,3.592134033203125,-0.012787500396370888,0.04468749836087227,0.010449999943375587
1750560785658738700,3.60173876953125,-0.018837500363588333,0.017737500369548798,-0.012787500396370888
1750560785668343600,3.611343505859375,-0.031075000762939453,-0.020075000822544098,-0.031075000762939453
1750560785677948200,3.6209482421875,-0.038362499326467514,-0.038362499326467514,-0.04207500070333481
1750560785687552800,3.630552734375,-0.03231250122189522,-0.015262499451637268,-0.038362499326467514
1750560785697157600,3.64015771484375,-0.022549999877810478,0.016499999910593033,-0.014024999924004078
1750560785706762200,3.64976220703125,-0.010312499478459358,0.03726249933242798,0.0056374999694526196
1750560785716366800,3.659366943359375,-0.0028874999843537807,0.03616249933838844,0.0056374999694526196
1750560785725971700,3.6689716796875,-0.006599999964237213,0.006737499963492155,-0.011549999937415123
1750560785735576300,3.678576416015625,-0.010312499478459358,-0.038362499326467514,-0.036024998873472214
1750560785745181000,3.688180908203125,-0.006599999964237213,-0.06159999966621399,-0.053075000643730164
1750560785754785500,3.69778564453125,0.0006874999962747097,-0.058024998754262924,-0.0518375001847744
1750560785764390400,3.707390380859375,0.0006874999962747097,-0.03231250122189522,-0.03231250122189522
1750560785773995300,3.716995361328125,-0.011549999937415123,-0.0030249999836087227,-0.014024999924004078
1750560785783599900,3.726599853515625,-0.023787500336766243,0.009212499484419823,-0.014024999924004078
1750560785793204700,3.736204833984375,-0.026124998927116394,-0.01759999990463257,-0.02736249938607216
1750560785802809300,3.745809326171875,-0.012787500396370888,-0.06902500241994858,-0.045787498354911804
1750560785812414000,3.7554140625,-0.0017874999903142452,-0.12155000120401382,-0.057887498289346695
1750560785822018600,3.7650185546875,-0.012787500396370888,-0.13612499833106995,-0.05678749829530716
1750560785831623400,3.77462353515625,-0.03355000168085098,-0.10807500034570694,-0.03478749841451645
1750560785841228000,3.78422802734375,-0.038362499326467514,-0.040837500244379044,-0.0030249999836087227
1750560785850832600,3.79383251953125,-0.031075000762939453,0.012924999929964542,0.04097500070929527
1750560785860437500,3.8034375,-0.03231250122189522,0.03616249933838844,0.08016250282526016
1750560785870042000,3.8130419921875,-0.03959999978542328,0.04592499881982803,0.08868750184774399
1750560785879647000,3.82264697265625,-0.057887498289346695,0.04592499881982803,0.07397499680519104
1750560785889251800,3.832251953125,-0.07012499868869781,0.03368749842047691,0.05321250110864639
1750560785898856400,3.8418564453125,-0.07136250287294388,0.005499999970197678,0.03739999979734421
1750560785908461000,3.8514609375,-0.0518375001847744,-0.014024999924004078,0.018975000828504562
1750560785918066000,3.86106591796875,-0.028599999845027924,-0.02502499893307686,-0.006599999964237213
1750560785927670500,3.87067041015625,-0.021312499418854713,-0.053075000643730164,-0.03231250122189522
1750560785937275100,3.880275146484375,-0.018837500363588333,-0.0775500014424324,-0.057887498289346695
1750560785946880000,3.8898798828125,-0.01759999990463257,-0.09088750183582306,-0.07383749634027481
1750560785956484600,3.899484619140625,-0.016362499445676804,-0.08607500046491623,-0.07383749634027481
1750560785966089500,3.90908935546875,-0.012787500396370888,-0.04455000162124634,-0.060362499207258224
1750560785975694300,3.9186943359375,-0.015124999918043613,0.022687500342726707,-0.028599999845027924
1750560785985299000,3.928298828125,-0.018837500363588333,0.08868750184774399,0.025162499397993088
1750560785994903600,3.937903564453125,-0.018837500363588333,0.13626250624656677,0.08992499858140945
1750560786004508200,3.947508056640625,-0.015124999918043613,0.13997499644756317,0.1326874941587448
1750560786014113000,3.957113037109375,-0.01759999990463257,0.09102500230073929,0.12402500212192535
1750560786023717600,3.966717529296875,-0.016362499445676804,0.028737500309944153,0.06668750196695328
1750560786033322200,3.976322265625,-0.011549999937415123,-0.05555000156164169,-0.011549999937415123
1750560786042927000,3.985927001953125,-0.009074999950826168,-0.12759999930858612,-0.07878749817609787
1750560786052532000,3.995531982421875,-0.004124999977648258,-0.13859999179840088,-0.11783749610185623
1750560786062136600,4.005136474609375,-0.0005499999970197678,-0.0873124971985817,-0.11412499845027924
1750560786071741400,4.014741455078125,-0.004124999977648258,-0.011549999937415123,-0.07507500052452087
1750560786081346000,4.024345947265625,-0.004124999977648258,0.055687498301267624,-0.03712499886751175
1750560786090950700,4.03395068359375,-0.004124999977648258,0.08002500236034393,-0.018837500363588333
1750560786100555500,4.043555419921875,-0.0005499999970197678,0.07150000333786011,-0.016362499445676804
1750560786110160100,4.05316015625,0.0019249999895691872,0.04592499881982803,-0.018837500363588333
1750560786119765000,4.062764892578125,-0.007837500423192978,0.029975000768899918,-0.011549999937415123
1750560786129369600,4.07236962890625,-0.013887500390410423,0.029975000768899918,0.015399999916553497
1750560786138974500,4.081974365234375,-0.0017874999903142452,0.03492499887943268,0.04592499881982803
1750560786148579000,4.0915791015625,0.017875000834465027,-0.014024999924004078,0.05926249921321869
1750560786158184000,4.101183837890625,0.03244999796152115,-0.06902500241994858,0.03492499887943268
1750560786167788300,4.110788330078125,0.03739999979734421,-0.10188750177621841,-0.014024999924004078
1750560786177393200,4.12039306640625,0.027637500315904617,-0.1116499975323677,-0.05431250110268593
1750560786186998000,4.129998046875,0.020212499424815178,-0.0873124971985817,-0.06888750195503235
1750560786196602600,4.1396025390625,0.016637500375509262,-0.007837500423192978,-0.05431250110268593
1750560786206207200,4.149207275390625,0.016637500375509262,0.06916250288486481,0.0006874999962747097
1750560786215812000,4.15881201171875,0.03739999979734421,0.11797499656677246,0.055687498301267624
1750560786225416700,4.168416748046875,0.06421250104904175,0.10449999570846558,0.08373750001192093
1750560786235021300,4.178021240234375,0.07163749635219574,0.04097500070929527,0.07026249915361404
1750560786244626000,4.1876259765625,0.06544999778270721,-0.005362499970942736,0.018975000828504562
1750560786254230800,4.197230712890625,0.05321250110864639,-0.031075000762939453,-0.03478749841451645
1750560786263835400,4.20683544921875,0.04839999973773956,-0.028599999845027924,-0.07136250287294388
1750560786273440000,4.21643994140625,0.04839999973773956,-0.010312499478459358,-0.08607500046491623
1750560786283044900,4.226044921875,0.04097500070929527,-0.0030249999836087227,-0.0873124971985817
1750560786292649500,4.2356494140625,0.04097500070929527,0.010449999943375587,-0.09955000132322311
1750560786302254300,4.24525439453125,0.06792499870061874,0.006737499963492155,-0.13241249322891235
1750560786311859200,4.254859130859375,0.10944999754428864,-0.016362499445676804,-0.15936249494552612
1750560786321463800,4.2644638671875,0.1424500048160553,-0.02983750030398369,-0.172837495803833
1750560786331068400,4.274068359375,0.1704999953508377,-0.014024999924004078,-0.16541250050067902
1750560786340673300,4.28367333984375,0.17297500371932983,-0.006599999964237213,-0.13007499277591705
1750560786350278000,4.29327783203125,0.16926249861717224,0.017737500369548798,-0.0835999995470047
1750560786359882500,4.302882568359375,0.15950000286102295,0.07026249915361404,-0.04455000162124634
1750560786369487400,4.3124873046875,0.148499995470047,0.11550000309944153,-0.01759999990463257
1750560786379092000,4.322092041015625,0.15826250612735748,0.16926249861717224,-0.009074999950826168
1750560786388697000,4.331697021484375,0.29878750443458557,0.2975499927997589,-0.006599999964237213
1750560786398301700,4.3413017578125,0.6274124979972839,0.3891249895095825,0.017737500369548798
1750560786407906300,4.35090625,1.0807499885559082,0.4538874924182892,0.03616249933838844
1750560786417511200,4.36051123046875,1.6512374877929688,0.5161749720573425,0.018975000828504562
1750560786427115800,4.37011572265625,2.214437484741211,0.5418875217437744,-0.07259999960660934
1750560786436720400,4.379720458984375,2.723875045776367,0.6334624886512756,-0.25093749165534973
1750560786446325000,4.389324951171875,3.2614998817443848,0.6726499795913696,-0.4769875109195709
1750560786455929900,4.398929931640625,3.6572248935699463,0.7006999850273132,-0.7811374664306641
1750560786465534500,4.408534423828125,3.8869874477386475,0.8974624872207642,-1.1147124767303467
1750560786475139300,4.418139404296875,4.15084981918335,1.2175624370574951,-1.4152874946594238
1750560786484744000,4.427743896484375,4.514949798583984,1.541237473487854,-1.5888124704360962
1750560786494348800,4.437348876953125,4.8265252113342285,1.7538124322891235,-1.6999125480651855
1750560786503953400,4.446953369140625,4.921812534332275,1.8418124914169312,-1.820912480354309
1750560786513558000,4.45655810546875,4.712812423706055,1.7513375282287598,-1.9492000341415405
1750560786523163000,4.466162841796875,4.033562660217285,1.4178999662399292,-2.075012445449829
1750560786532767500,4.475767578125,3.0549750328063965,0.8888000249862671,-2.1495375633239746
1750560786542372000,4.4853720703125,2.01286244392395,0.16554999351501465,-2.056725025177002
1750560786551977000,4.49497705078125,1.133275032043457,-0.5612750053405762,-1.7609624862670898
1750560786561581600,4.50458154296875,0.5016000270843506,-0.9851874709129333,-1.3297624588012695
1750560786571186400,4.5141865234375,0.06297499686479568,-0.8813750147819519,-0.8874250054359436
1750560786580791300,4.523791259765625,-0.3119874894618988,-0.4842749834060669,-0.4745124876499176
1750560786590396000,4.53339599609375,-0.7042750120162964,-0.19359999895095825,-0.015124999918043613
1750560786600000500,4.54300048828125,-1.047474980354309,0.0031624999828636646,0.4978874921798706
1750560786609605400,4.55260546875,-1.4018124341964722,0.18754999339580536,0.9853249788284302
1750560786619210000,4.5622099609375,-1.8965375423431396,0.11797499656677246,1.4166624546051025
1750560786628814600,4.571814697265625,-2.569737434387207,-0.2839374840259552,1.690287470817566
1750560786638419500,4.58141943359375,-3.3577499389648438,-0.7470374703407288,1.7587624788284302
1750560786648024000,4.591024169921875,-4.05542516708374,-0.9596124887466431,1.7098125219345093
1750560786657629000,4.60062890625,-4.434100151062012,-0.8105624914169312,1.641474962234497
1750560786667233800,4.61023388671875,-4.409625053405762,-0.5319874882698059,1.6610000133514404
1750560786676838400,4.61983837890625,-4.005237579345703,-0.1434125006198883,1.7648124694824219
1750560786686443000,4.629443115234375,-3.186699867248535,0.2303124964237213,1.89433753490448
1750560786696047900,4.6390478515625,-2.2680625915527344,0.5883625149726868,1.9273375272750854
1750560786705652500,4.648652587890625,-1.6876749992370605,0.8314625024795532,1.7612375020980835
1750560786715257000,4.658257080078125,-1.5228124856948853,0.6689375042915344,1.441137433052063
1750560786724862000,4.667862060546875,-1.541100025177002,0.12168750166893005,1.017087459564209
1750560786734466600,4.677466552734375,-1.5300999879837036,-0.566224992275238,0.5993624925613403
1750560786744071400,4.687071533203125,-1.4433374404907227,-1.1477124691009521,0.28049999475479126
1750560786753676000,4.696676025390625,-1.3077625036239624,-1.4200999736785889,0.0752125009894371
1750560786763280600,4.70628076171875,-1.1574749946594238,-1.3457125425338745,-0.016362499445676804
1750560786772885500,4.715885498046875,-0.9717124700546265,-0.9876624941825867,-0.011549999937415123
1750560786782490400,4.725490478515625,-0.7530875205993652,-0.4464625120162964,0.03368749842047691
1750560786792095000,4.735094970703125,-0.46598750352859497,0.012924999929964542,0.09226249903440475
1750560786801699800,4.744699951171875,-0.19112500548362732,0.2535499930381775,0.10944999754428864
1750560786811304400,4.754304443359375,-0.004124999977648258,0.3110249936580658,0.026399999856948853
1750560786820909000,4.763908935546875,0.06421250104904175,0.2620750069618225,-0.1116499975323677
1750560786830513700,4.773513671875,0.03244999796152115,0.09226249903440475,-0.21559999883174896
1750560786840118500,4.783118408203125,-0.035887498408555984,-0.10683749616146088,-0.2644124925136566
1750560786849723100,4.79272314453125,-0.08841250091791153,-0.21312500536441803,-0.26936250925064087
1750560786859328000,4.802327880859375,-0.07383749634027481,-0.24365000426769257,-0.23388749361038208
1750560786868932600,4.8119326171875,0.0006874999962747097,-0.23141250014305115,-0.16541250050067902
1750560786878537500,4.821537353515625,0.12292499840259552,-0.06655000150203705,-0.11659999936819077
1750560786888142300,4.831142333984375,0.27197501063346863,0.20473749935626984,-0.06888750195503235
1750560786897747000,4.840746826171875,0.37950000166893005,0.3891249895095825,-0.010312499478459358
1750560786907351800,4.850351806640625,0.4160749912261963,0.3867875039577484,0.03368749842047691
1750560786916956400,4.859956298828125,0.37950000166893005,0.20721249282360077,0.03492499887943268
1750560786926561000,4.86956103515625,0.29878750443458557,-0.04331250116229057,-0.022549999877810478
1750560786936165600,4.87916552734375,0.22550000250339508,-0.22288750112056732,-0.1153625026345253
1750560786945770500,4.8887705078125,0.19126249849796295,-0.37798750400543213,-0.17641249299049377
1750560786955375000,4.898375,0.18150000274181366,-0.4782249927520752,-0.21312500536441803
1750560786964979700,4.907979736328125,0.15702499449253082,-0.45746248960494995,-0.2241249978542328
1750560786974584600,4.91758447265625,0.12168750166893005,-0.3011249899864197,-0.18383750319480896
1750560786984189200,4.927189208984375,0.11192499846220016,-0.10312499850988388,-0.09955000132322311
1750560786993794000,4.9367939453125,0.11550000309944153,-0.0030249999836087227,0.0006874999962747097
1750560787003399000,4.94639892578125,0.08249999582767487,0.026399999856948853,0.06544999778270721
1750560787013003500,4.95600341796875,0.03492499887943268,0.03973750025033951,0.0812624990940094
1750560787022608400,4.9656083984375,-0.004124999977648258,0.04097500070929527,0.07150000333786011
1750560787032213000,4.975212890625,-0.050599999725818634,0.03368749842047691,0.06544999778270721
1750560787041817600,4.984817626953125,-0.1153625026345253,0.009212499484419823,0.10449999570846558
1750560787051422500,4.99442236328125,-0.14217500388622284,0.0031624999828636646,0.14121249318122864
1750560787061027000,5.004027099609375,-0.10807500034570694,-0.011549999937415123,0.16568750143051147
1750560787070632000,5.0136318359375,-0.035887498408555984,-0.04455000162124634,0.1522125005722046
1750560787080236500,5.023236572265625,0.017875000834465027,-0.07507500052452087,0.09350000321865082
1750560787089841400,5.03284130859375,0.012924999929964542,-0.08607500046491623,0.025162499397993088
1750560787099446000,5.042446044921875,-0.038362499326467514,-0.06283749639987946,-0.016362499445676804
1750560787109051000,5.05205078125,-0.1116499975323677,-0.006599999964237213,-0.022549999877810478
1750560787118655500,5.061655517578125,-0.15936249494552612,0.07768750190734863,0.011687500402331352
1750560787128260000,5.071260009765625,-0.1508374959230423,0.15097500383853912,0.08992499858140945
1750560787137864700,5.08086474609375,-0.10683749616146088,0.16073749959468842,0.17173749208450317
1750560787147469600,5.090469482421875,-0.06407500058412552,0.13144999742507935,0.20350000262260437
1750560787157074400,5.100074462890625,-0.04936249926686287,0.05692499876022339,0.17297500371932983
1750560787166679000,5.109678955078125,-0.07012499868869781,-0.048124998807907104,0.08744999766349792
1750560787176283600,5.11928369140625,-0.10807500034570694,-0.13612499833106995,-0.011549999937415123
1750560787185888500,5.128888427734375,-0.13612499833106995,-0.18012499809265137,-0.0775500014424324
1750560787195493000,5.1384931640625,-0.13241249322891235,-0.18136249482631683,-0.08483749628067017
1750560787205098000,5.148097900390625,-0.0873124971985817,-0.13007499277591705,-0.05431250110268593
1750560787214702600,5.15770263671875,-0.023787500336766243,-0.0798875018954277,-0.007837500423192978
1750560787224307500,5.167307373046875,0.03492499887943268,-0.048124998807907104,0.03739999979734421
1750560787243516700,5.1865166015625,0.03244999796152115,0.022687500342726707,0.09968750178813934
1750560787253121500,5.19612158203125,-0.0017874999903142452,0.028737500309944153,0.12526249885559082
1750560787262726100,5.20572607421875,-0.04455000162124634,0.010449999943375587,0.1289750039577484
1750560787272331000,5.2153310546875,-0.07864999771118164,-0.006599999964237213,0.1106875017285347
1750560787281935600,5.224935546875,-0.08483749628067017,-0.012787500396370888,0.06792499870061874
1750560787291540500,5.23454052734375,-0.08607500046491623,-0.04207500070333481,0.031212499365210533
1750560787301145300,5.244145263671875,-0.0873124971985817,-0.05555000156164169,-0.0042624999769032
1750560787310750000,5.25375,-0.0873124971985817,-0.04702499881386757,-0.012787500396370888
1750560787320354600,5.2633544921875,-0.09212499856948853,-0.022549999877810478,0.012924999929964542
1750560787329959200,5.272959228515625,-0.08483749628067017,-0.005362499970942736,0.04592499881982803
1750560787339564000,5.28256396484375,-0.05912499874830246,-0.014024999924004078,0.05444999784231186
1750560787349168600,5.292168701171875,-0.02736249938607216,-0.03478749841451645,0.016637500375509262
1750560787358773500,5.3017734375,0.0006874999962747097,-0.05912499874830246,-0.040837500244379044
1750560787368378000,5.311378173828125,0.014162499457597733,-0.08483749628067017,-0.0835999995470047
1750560787377983000,5.32098291015625,0.0019249999895691872,-0.08978749811649323,-0.09459999948740005
1750560787387587800,5.330587890625,-0.028599999845027924,-0.05431250110268593,-0.06655000150203705
1750560787397192400,5.3401923828125,-0.06159999966621399,0.007974999956786633,-0.011549999937415123
1750560787406797000,5.349797119140625,-0.06888750195503235,0.04221250116825104,0.04839999973773956
1750560787416402000,5.35940185546875,-0.048124998807907104,0.015399999916553497,0.09350000321865082
1750560787426006800,5.3690068359375,-0.013887500390410423,-0.04207500070333481,0.09968750178813934
1750560787435611100,5.378611083984375,0.010449999943375587,-0.08607500046491623,0.07150000333786011
1750560787445216000,5.388216064453125,0.0031624999828636646,-0.10807500034570694,0.03616249933838844
1750560787454820900,5.39782080078125,-0.021312499418854713,-0.1116499975323677,0.029975000768899918
1750560787464425500,5.407425537109375,-0.04688749834895134,-0.0775500014424324,0.0471624992787838
1750560787474030300,5.4170302734375,-0.06407500058412552,-0.02502499893307686,0.060499999672174454
1750560787483635000,5.426635009765625,-0.06283749639987946,0.022687500342726707,0.06173750013113022
1750560787493239800,5.43623974609375,-0.05912499874830246,0.05321250110864639,0.04097500070929527
1750560787502844400,5.445844482421875,-0.06283749639987946,0.04468749836087227,0.016637500375509262
1750560787512449300,5.45544921875,-0.07259999960660934,0.005499999970197678,0.0031624999828636646
1750560787522054000,5.465053955078125,-0.06764999777078629,-0.038362499326467514,0.012924999929964542
1750560787531658800,5.47465869140625,-0.05664999783039093,-0.053075000643730164,0.029975000768899918
1750560787541263400,5.484263427734375,-0.04455000162124634,-0.040837500244379044,0.0471624992787838
1750560787550868200,5.4938681640625,-0.04455000162124634,-0.014024999924004078,0.06173750013113022
1750560787560473000,5.50347314453125,-0.04936249926686287,0.03616249933838844,0.06544999778270721
1750560787570077700,5.51307763671875,-0.06764999777078629,0.09721250087022781,0.0494999997317791
1750560787579682300,5.522682373046875,-0.0798875018954277,0.13626250624656677,0.018975000828504562
1750560787589287200,5.532287109375,-0.06764999777078629,0.1424500048160553,-0.006599999964237213
1750560787598891800,5.541891845703125,-0.03959999978542328,0.0849749967455864,-0.02502499893307686
1750560787608496400,5.551496337890625,-0.005362499970942736,0.023924998939037323,-0.04702499881386757
1750560787618101200,5.561101318359375,0.016637500375509262,-0.04455000162124634,-0.05678749829530716
1750560787627706000,5.5707060546875,0.021449999883770943,-0.13007499277591705,-0.04702499881386757
1750560787637310700,5.580310791015625,0.011687500402331352,-0.17407499253749847,-0.045787498354911804
1750560787646915600,5.58991552734375,-0.010312499478459358,-0.16060000658035278,-0.0518375001847744
1750560787656520200,5.599520263671875,-0.03712499886751175,-0.10807500034570694,-0.057887498289346695
1750560787666124800,5.609124755859375,-0.04688749834895134,-0.01759999990463257,-0.06531249731779099
1750560787675729700,5.618729736328125,-0.038362499326467514,0.07026249915361404,-0.05912499874830246
1750560787685334300,5.628334228515625,-0.02983750030398369,0.10573749989271164,-0.04207500070333481
1750560787694939000,5.63793896484375,-0.02736249938607216,0.10092499852180481,-0.031075000762939453
1750560787704543700,5.647543701171875,-0.031075000762939453,0.05816249921917915,-0.023787500336766243
1750560787714148400,5.6571484375,-0.03231250122189522,-0.0005499999970197678,-0.022549999877810478
1750560787723753000,5.6667529296875,-0.03355000168085098,-0.06531249731779099,-0.018837500363588333
1750560787733357800,5.67635791015625,-0.021312499418854713,-0.12031249701976776,-0.015124999918043613
1750560787742962400,5.68596240234375,-0.0005499999970197678,-0.12759999930858612,-0.02502499893307686
1750560787752567300,5.6955673828125,-0.007837500423192978,-0.09707500040531158,-0.045787498354911804
1750560787762172200,5.705172119140625,-0.05431250110268593,-0.04331250116229057,-0.06159999966621399
1750560787771776800,5.71477685546875,-0.10917499661445618,0.04097500070929527,-0.060362499207258224
1750560787781381600,5.724381591796875,-0.13859999179840088,0.11550000309944153,-0.02736249938607216
1750560787790986200,5.733986328125,-0.14093749225139618,0.1350249946117401,0.020212499424815178
1750560787800590800,5.7435908203125,-0.10436250269412994,0.08002500236034393,0.05692499876022339
1750560787810195700,5.75319580078125,-0.057887498289346695,0.014162499457597733,0.05926249921321869
1750560787819800300,5.76280029296875,-0.021312499418854713,-0.053075000643730164,0.04839999973773956
1750560787829405200,5.7724052734375,-0.010312499478459358,-0.09459999948740005,0.017737500369548798
1750560787839010000,5.782010009765625,-0.031075000762939453,-0.08855000138282776,-0.023787500336766243
1750560787848614700,5.79161474609375,-0.05912499874830246,-0.06778749823570251,-0.040837500244379044
1750560787858219300,5.80121923828125,-0.07741250097751617,-0.04702499881386757,-0.03231250122189522
1750560787867824000,5.81082421875,-0.09336250275373459,-0.03231250122189522,-0.016362499445676804
1750560787877429000,5.820428955078125,-0.10188750177621841,-0.022549999877810478,-0.0042624999769032
1750560787887033600,5.83003369140625,-0.09088750183582306,-0.02502499893307686,0.0019249999895691872
1750560787896638200,5.83963818359375,-0.06764999777078629,-0.053075000643730164,0.012924999929964542
1750560787906242800,5.849242919921875,-0.04688749834895134,-0.08236250281333923,0.022687500342726707
1750560787915847700,5.85884765625,-0.040837500244379044,-0.10078749805688858,0.026399999856948853
1750560787925452300,5.868452392578125,-0.04455000162124634,-0.08978749811649323,0.016637500375509262
1750560787935057200,5.87805712890625,-0.06283749639987946,-0.03355000168085098,0.0006874999962747097
1750560787944661800,5.887661865234375,-0.08483749628067017,0.028737500309944153,-0.015124999918043613
1750560787954266600,5.8972666015625,-0.09459999948740005,0.0849749967455864,-0.03478749841451645
1750560787963871500,5.90687158203125,-0.08841250091791153,0.11797499656677246,-0.0518375001847744
1750560787973476000,5.91647607421875,-0.07012499868869781,0.11921250075101852,-0.05431250110268593
1750560787983080700,5.926080810546875,-0.040837500244379044,0.08868750184774399,-0.04207500070333481
1750560787992685600,5.935685546875,-0.02488750033080578,0.021449999883770943,-0.014024999924004078
1750560788002290200,5.945290283203125,-0.02736249938607216,-0.053075000643730164,0.006737499963492155
1750560788011895000,5.95489501953125,-0.031075000762939453,-0.09831249713897705,0.014162499457597733
1750560788021499600,5.964499755859375,-0.028599999845027924,-0.10312499850988388,0.015399999916553497
1750560788031104500,5.9741044921875,-0.010312499478459358,-0.0775500014424324,0.015399999916553497
1750560788040709400,5.98370947265625,0.0006874999962747097,-0.02502499893307686,0.014162499457597733
1750560788050314000,5.99331396484375,-0.007837500423192978,0.03726249933242798,0.014162499457597733
1750560788059918800,6.0029189453125,-0.02736249938607216,0.07397499680519104,0.016637500375509262
1750560788069523500,6.0125234375,-0.050599999725818634,0.055687498301267624,0.017737500369548798
1750560788079128000,6.022128173828125,-0.05664999783039093,0.009212499484419823,0.006737499963492155
1750560788088733000,6.03173291015625,-0.038362499326467514,-0.04702499881386757,-0.005362499970942736
1750560788098337500,6.041337646484375,-0.007837500423192978,-0.09707500040531158,-0.01759999990463257
1750560788107942400,6.0509423828125,0.015399999916553497,-0.1190750002861023,-0.03231250122189522
1750560788117547000,6.060547119140625,0.021449999883770943,-0.09336250275373459,-0.048124998807907104
1750560788127151900,6.07015185546875,0.0031624999828636646,-0.031075000762939453,-0.0518375001847744
1750560788136756500,6.079756591796875,-0.03464999794960022,0.04592499881982803,-0.02502499893307686
1750560788146361000,6.089361083984375,-0.06641250103712082,0.12044999748468399,0.03244999796152115
1750560788155966000,6.098966064453125,-0.07259999960660934,0.14973749220371246,0.08992499858140945
1750560788165570600,6.108570556640625,-0.060362499207258224,0.11178749799728394,0.10573749989271164
1750560788175175400,6.118175537109375,-0.04936249926686287,0.06668750196695328,0.07768750190734863
1750560788184780000,6.127780029296875,-0.03959999978542328,0.03849999979138374,0.020212499424815178
1750560788194385000,6.137385009765625,-0.026124998927116394,0.03244999796152115,-0.02983750030398369
1750560788203989500,6.146989501953125,-0.007837500423192978,0.023924998939037323,-0.04702499881386757
1750560788213594400,6.156594482421875,0.006874999962747097,0.022687500342726707,-0.036024998873472214
1750560788223199200,6.16619921875,0.008112499490380287,0.009212499484419823,-0.010312499478459358
1750560788232803800,6.175803955078125,-0.010312499478459358,0.012924999929964542,-0.0005499999970197678
1750560788242408400,6.185408447265625,-0.02736249938607216,0.014162499457597733,-0.010312499478459358
1750560788252013300,6.195013427734375,-0.028599999845027924,0.012924999929964542,-0.022549999877810478
1750560788261618000,6.204617919921875,-0.018837500363588333,0.011687500402331352,-0.014024999924004078
1750560788271222800,6.214222900390625,-0.013887500390410423,-0.016362499445676804,0.021449999883770943
1750560788280827600,6.22382763671875,-0.01759999990463257,-0.03355000168085098,0.05816249921917915
1750560788300037000,6.243037109375,-0.02736249938607216,-0.040837500244379044,0.0494999997317791
1750560788309641700,6.252641845703125,-0.021312499418854713,-0.048124998807907104,0.010449999943375587
1750560788319246300,6.262246337890625,-0.023787500336766243,-0.06531249731779099,-0.023787500336766243
1750560788328851200,6.271851318359375,-0.038362499326467514,-0.060362499207258224,-0.04455000162124634
1750560788338455800,6.281455810546875,-0.05912499874830246,-0.04207500070333481,-0.03712499886751175
1750560788348060700,6.291060791015625,-0.07864999771118164,-0.022549999877810478,-0.022549999877810478
1750560788357665300,6.300665283203125,-0.10559999942779541,-0.04331250116229057,-0.010312499478459358
1750560788367270000,6.310269775390625,-0.1190750002861023,-0.04455000162124634,-0.01759999990463257
1750560788376874800,6.319874755859375,-0.1251250058412552,-0.016362499445676804,-0.022549999877810478
1750560788386479400,6.329479248046875,-0.1288374960422516,0.031212499365210533,-0.012787500396370888
1750560788396084200,6.339084228515625,-0.1153625026345253,0.12402500212192535,0.018975000828504562
1750560788405689000,6.348689208984375,-0.08112499862909317,0.21821250021457672,0.07768750190734863
1750560788415293700,6.358293701171875,-0.010312499478459358,0.2377374917268753,0.13378749787807465
1750560788424898300,6.367898193359375,0.06792499870061874,0.1863124966621399,0.13378749787807465
1750560788434503200,6.377503173828125,0.1143999993801117,0.1264999955892563,0.06916250288486481
1750560788444107800,6.387107666015625,0.13626250624656677,0.0849749967455864,-0.021312499418854713
1750560788453712600,6.396712646484375,0.2120250016450882,0.09597499668598175,-0.08236250281333923
1750560788463317200,6.406317138671875,0.3843125104904175,0.1069749966263771,-0.040837500244379044
1750560788472922000,6.415922119140625,0.6763625144958496,0.1985500007867813,0.08016250282526016
1750560788482526700,6.425526611328125,1.2321374416351318,0.4538874924182892,0.2437874972820282
1750560788492131600,6.435131591796875,2.0323874950408936,0.9242749810218811,0.36355000734329224
1750560788501736400,6.444736328125,2.9059250354766846,1.63652503490448,0.32807499170303345
1750560788511341000,6.454341064453125,3.6707000732421875,2.339012384414673,0.21821250021457672
1750560788520945700,6.463945556640625,4.219325065612793,2.7385873794555664,0.10202500224113464
1750560788530550500,6.473550537109375,4.535712242126465,2.7836875915527344,-0.06407500058412552
1750560788540155100,6.483155029296875,4.522237300872803,2.5785374641418457,-0.2619374990463257
1750560788549759700,6.492759765625,4.33537483215332,2.352487564086914,-0.439175009727478
1750560788559364600,6.502364501953125,4.108087539672852,2.297487497329712,-0.6125624775886536
1750560788568969200,6.51196923828125,3.8161749839782715,2.321962594985962,-0.7335624694824219
1750560788578573800,6.52157373046875,3.4093124866485596,2.2424874305725098,-0.8238999843597412
1750560788588179000,6.531178955078125,2.8203999996185303,1.9358625411987305,-0.9583749771118164
1750560788597783600,6.540783447265625,2.1166749000549316,1.3054250478744507,-0.9986624717712402
1750560788607388400,6.550388427734375,1.4484249353408813,0.4208875000476837,-0.8716124892234802
1750560788616993000,6.559992919921875,0.9096999764442444,-0.3328875005245209,-0.6920375227928162
1750560788626598000,6.569597900390625,0.5603125095367432,-0.6663249731063843,-0.5735124945640564
1750560788636202500,6.579202392578125,0.3940750062465668,-0.5600374937057495,-0.527037501335144
1750560788645807000,6.58880712890625,0.3806000053882599,-0.30346250534057617,-0.46722498536109924
1750560788655412000,6.598411865234375,0.46254998445510864,0.009212499484419823,-0.3609375059604645
1750560788665016600,6.6080166015625,0.5077875256538391,0.18754999339580536,-0.19965000450611115
1750560788674621200,6.61762109375,0.43078750371932983,0.22055000066757202,-0.031075000762939453
1750560788684226000,6.62722607421875,0.21821250021457672,0.15702499449253082,0.10202500224113464
1750560788693831000,6.636830810546875,-0.12759999930858612,0.007974999956786633,0.20473749935626984
1750560788703435500,6.646435546875,-0.5502749681472778,-0.1691250056028366,0.2670249938964844
1750560788713040400,6.656040283203125,-0.9961875081062317,-0.3694624900817871,0.2853125035762787
1750560788722645200,6.665645263671875,-1.4433374404907227,-0.5332249999046326,0.2609750032424927
1750560788732249900,6.675249755859375,-1.8587249517440796,-0.6565625071525574,0.19497500360012054
1750560788741854500,6.6848544921875,-2.2178750038146973,-0.9094250202178955,0.10326249897480011
1750560788751459300,6.694459228515625,-2.6137375831604004,-1.4568125009536743,0.0019249999895691872
1750560788761064000,6.70406396484375,-3.04259991645813,-2.090825080871582,-0.1471250057220459
1750560788770668800,6.713668701171875,-3.4237499237060547,-2.5489749908447266,-0.3414124846458435
1750560788780273400,6.7232734375,-3.670562505722046,-2.7225000858306885,-0.5380374789237976
1750560788789878300,6.732878173828125,-3.779325008392334,-2.5746874809265137,-0.6663249731063843
1750560788799483100,6.742483154296875,-3.5557498931884766,-1.9320124387741089,-0.6895624995231628
1750560788809087700,6.752087646484375,-2.9203624725341797,-0.9106624722480774,-0.5820375084877014
1750560788818692400,6.7616923828125,-2.2093498706817627,0.05816249921917915,-0.34498751163482666
1750560788828297000,6.771296875,-1.6741999387741089,0.5773624777793884,-0.05678749829530716
1750560788837902000,6.780902099609375,-1.4298624992370605,0.4405499994754791,0.2022625058889389
1750560788847506700,6.790506591796875,-1.4592875242233276,-0.03231250122189522,0.3525499999523163
1750560788857111600,6.800111572265625,-1.6620999574661255,-0.5587999820709229,0.38554999232292175
1750560788866716200,6.809716064453125,-1.9247249364852905,-0.994949996471405,0.36602500081062317
1750560788876320800,6.81932080078125,-2.0640125274658203,-1.317525029182434,0.35378751158714294
1750560788885925600,6.828925537109375,-1.9430124759674072,-1.337049961090088,0.3830749988555908
1750560788895530200,6.8385302734375,-1.4848624467849731,-0.8886625170707703,0.44288748502731323
1750560788905135000,6.848135009765625,-0.8886625170707703,-0.1568875014781952,0.534600019454956
1750560788914739700,6.85773974609375,-0.4207499921321869,0.4380750060081482,0.6041749715805054
1750560788924344300,6.86734423828125,-0.19112500548362732,0.5651249885559082,0.5981249809265137
1750560788933949400,6.876949462890625,-0.1508374959230423,0.3940750062465668,0.46860000491142273
1750560788943554000,6.886553955078125,-0.2363625019788742,-0.026262499392032623,0.24626250565052032
1750560788953159000,6.896158935546875,-0.3817000091075897,-0.4867500066757202,-0.016362499445676804
1750560788962763500,6.905763427734375,-0.5355625152587891,-0.7213249802589417,-0.20212499797344208
1750560788972368100,6.9153681640625,-0.6297500133514404,-0.645562469959259,-0.2387000024318695
1750560788981973000,6.924972900390625,-0.5942749977111816,-0.3866499960422516,-0.11288750171661377
1750560788991577600,6.93457763671875,-0.41827499866485596,-0.09955000132322311,0.1264999955892563
1750560789001182200,6.94418212890625,-0.15936249494552612,0.2400749921798706,0.3623124957084656
1750560789010787000,6.953787109375,0.03244999796152115,0.4197874963283539,0.5101249814033508
1750560789020391700,6.9633916015625,0.0789249986410141,0.4208875000476837,0.489362508058548
1750560789029996500,6.97299658203125,0.029975000768899918,0.3207874894142151,0.3452624976634979
1750560789039601400,6.982601318359375,-0.07012499868869781,0.15826250612735748,0.17297500371932983
1750560789049206000,6.9922060546875,-0.1531749963760376,-0.005362499970942736,0.023924998939037323
1750560789058811000,7.001810791015625,-0.17393749952316284,-0.09088750183582306,-0.06888750195503235
1750560789068415500,7.01141552734375,-0.13612499833106995,-0.1190750002861023,-0.09583749622106552
1750560789078020400,7.021020263671875,-0.0518375001847744,-0.09831249713897705,-0.06655000150203705
1750560789087625000,7.030625,0.03492499887943268,-0.058024998754262924,0.0006874999962747097
1750560789097229800,7.040229736328125,0.09844999760389328,-0.02983750030398369,0.06421250104904175
1750560789106834400,7.04983447265625,0.11192499846220016,0.007974999956786633,0.08621250092983246
1750560789116439300,7.059439208984375,0.10821250081062317,0.05321250110864639,0.07397499680519104
1750560789126044000,7.0690439453125,0.09239999949932098,0.1264999955892563,0.05197500064969063
1750560789135648800,7.078648681640625,0.09116250276565552,0.21326249837875366,0.021449999883770943
1750560789145253400,7.08825341796875,0.06297499686479568,0.24255000054836273,0.020212499424815178
1750560789154858200,7.097858154296875,0.020212499424815178,0.20721249282360077,0.03739999979734421
1750560789164462800,7.107462890625,-0.012787500396370888,0.1447875052690506,0.03973750025033951
1750560789174067700,7.117067626953125,0.0019249999895691872,0.021449999883770943,0.022687500342726707
1750560789183672300,7.12667236328125,0.04963750019669533,-0.13859999179840088,-0.015124999918043613
1750560789193277000,7.13627685546875,0.0789249986410141,-0.19236250221729279,-0.07136250287294388
1750560789202881800,7.1458818359375,0.08016250282526016,-0.1313125044107437,-0.10312499850988388
1750560789212486400,7.155486328125,0.04221250116825104,-0.022549999877810478,-0.07259999960660934
1750560789222091500,7.165091552734375,-0.012787500396370888,0.09102500230073929,-0.0005499999970197678
1750560789231696100,7.174696044921875,-0.060362499207258224,0.20721249282360077,0.07768750190734863
1750560789241300700,7.18430078125,-0.06407500058412552,0.2755500078201294,0.1350249946117401
1750560789250905600,7.193905517578125,-0.045649997889995575,0.25850000977516174,0.15950000286102295
1750560789260510200,7.20351025390625,-0.013887500390410423,0.17173749208450317,0.13144999742507935
1750560789270114800,7.21311474609375,0.023924998939037323,0.0752125009894371,0.060499999672174454
1750560789279719700,7.2227197265625,0.03863750025629997,-0.08855000138282776,-0.0017874999903142452
1750560789289324500,7.232324462890625,0.010449999943375587,-0.25712499022483826,-0.040837500244379044
1750560789298929400,7.241929443359375,-0.02488750033080578,-0.32065001130104065,-0.07383749634027481
1750560789308534000,7.251533935546875,-0.038362499326467514,-0.30469998717308044,-0.0775500014424324
1750560789318138600,7.261138671875,-0.020075000822544098,-0.21312500536441803,-0.05431250110268593
1750560789327743500,7.270743408203125,-0.004124999977648258,-0.0518375001847744,-0.015124999918043613
1750560789337348400,7.280348388671875,-0.004124999977648258,0.13144999742507935,0.031212499365210533
1750560789346953000,7.289952880859375,0.004399999976158142,0.23278750479221344,0.0849749967455864
1750560789356557600,7.2995576171875,0.0006874999962747097,0.19002500176429749,0.12773749232292175
1750560789366162200,7.309162109375,-0.022549999877810478,0.07397499680519104,0.11797499656677246
1750560789375767300,7.318767333984375,-0.03959999978542328,-0.02983750030398369,0.07397499680519104
1750560789385372000,7.328371826171875,-0.038362499326467514,-0.10436250269412994,0.04468749836087227
1750560789394976500,7.3379765625,-0.009074999950826168,-0.10807500034570694,0.0006874999962747097
1750560789404581400,7.347581298828125,0.021449999883770943,-0.0835999995470047,-0.050599999725818634
1750560789414186000,7.35718603515625,0.03616249933838844,-0.10807500034570694,-0.06655000150203705
1750560789423790800,7.366790771484375,0.016637500375509262,-0.15936249494552612,-0.07012499868869781
1750560789433395500,7.3763955078125,-0.031075000762939453,-0.17765000462532043,-0.08236250281333923
1750560789443000000,7.386,-0.06531249731779099,-0.15812499821186066,-0.09212499856948853
1750560789452605000,7.39560498046875,-0.05912499874830246,-0.1373624950647354,-0.07259999960660934
1750560789462209800,7.405209716796875,-0.03464999794960022,-0.06283749639987946,-0.05431250110268593
1750560789471814700,7.414814697265625,-0.012787500396370888,0.05197500064969063,-0.021312499418854713
1750560789481419300,7.424419189453125,-0.022549999877810478,0.14602500200271606,0.020212499424815178
1750560789491024000,7.43402392578125,-0.04936249926686287,0.18273749947547913,0.05692499876022339
1750560789500628700,7.443628662109375,-0.07383749634027481,0.14973749220371246,0.06916250288486481
1750560789510233300,7.4532333984375,-0.07507500052452087,0.06297499686479568,0.04592499881982803
1750560789519838200,7.462838134765625,-0.06641250103712082,-0.02736249938607216,0.0019249999895691872
1750560789529442800,7.47244287109375,-0.05664999783039093,-0.0835999995470047,-0.057887498289346695
1750560789539047700,7.482047607421875,-0.04455000162124634,-0.09088750183582306,-0.09336250275373459
1750560789548652300,7.49165234375,-0.03959999978542328,-0.07259999960660934,-0.06531249731779099
1750560789558257400,7.50125732421875,-0.03464999794960022,-0.07136250287294388,0.0031624999828636646
1750560789567861800,7.51086181640625,-0.03231250122189522,-0.08607500046491623,0.07026249915361404
1750560789577466600,7.520466552734375,-0.03231250122189522,-0.06159999966621399,0.09844999760389328
1750560789587071500,7.530071533203125,-0.040837500244379044,-0.0005499999970197678,0.09473749995231628
1750560789596676000,7.539676025390625,-0.05555000156164169,0.05197500064969063,0.0849749967455864
1750560789606280700,7.54928076171875,-0.0798875018954277,0.09350000321865082,0.0752125009894371
1750560789615885600,7.558885498046875,-0.10188750177621841,0.10821250081062317,0.07273750007152557
1750560789625490200,7.568490234375,-0.10683749616146088,0.05816249921917915,0.06544999778270721
1750560789635094800,7.5780947265625,-0.09459999948740005,-0.05431250110268593,0.03368749842047691
1750560789644699600,7.58769970703125,-0.07383749634027481,-0.14464999735355377,-0.026124998927116394
1750560789654304500,7.597304443359375,-0.0518375001847744,-0.15441249310970306,-0.09955000132322311
1750560789663909400,7.606909423828125,-0.02488750033080578,-0.10436250269412994,-0.15812499821186066
1750560789673514000,7.616513916015625,0.0031624999828636646,-0.022549999877810478,-0.17407499253749847
1750560789683118600,7.62611865234375,0.008112499490380287,0.03616249933838844,-0.1251250058412552
1750560789692723500,7.635723388671875,0.0006874999962747097,0.03368749842047691,-0.053075000643730164
1750560789702328000,7.645328125,-0.020075000822544098,-0.007837500423192978,-0.006599999964237213
1750560789711933000,7.654932861328125,-0.03464999794960022,-0.045787498354911804,0.017737500369548798
1750560789721537500,7.66453759765625,-0.03355000168085098,-0.0518375001847744,0.023924998939037323
1750560789731142400,7.674142333984375,-0.016362499445676804,-0.022549999877810478,0.021449999883770943
1750560789740747300,7.683747314453125,-0.0005499999970197678,0.031212499365210533,0.010449999943375587
1750560789750352000,7.693351806640625,-0.0005499999970197678,0.0752125009894371,0.0031624999828636646
1750560789759956700,7.702956787109375,-0.013887500390410423,0.06297499686479568,0.004399999976158142
1750560789769561300,7.712561279296875,-0.02736249938607216,0.009212499484419823,0.0056374999694526196
1750560789779166000,7.722166015625,-0.03712499886751175,-0.06531249731779099,-0.0005499999970197678
1750560789788770800,7.731770751953125,-0.035887498408555984,-0.1190750002861023,-0.012787500396370888
1750560789798375400,7.74137548828125,-0.031075000762939453,-0.12388750165700912,-0.02983750030398369
1750560789807980300,7.750980224609375,-0.02488750033080578,-0.07631249725818634,-0.03231250122189522
1750560789817585200,7.760585205078125,-0.01759999990463257,0.0006874999962747097,-0.0017874999903142452
1750560789827190000,7.77018994140625,-0.015124999918043613,0.06173750013113022,0.05444999784231186
1750560789836794400,7.77979443359375,-0.013887500390410423,0.08744999766349792,0.08868750184774399
1750560789846399200,7.789399169921875,-0.023787500336766243,0.06668750196695328,0.0849749967455864
1750560789856004000,7.799004150390625,-0.03464999794960022,0.011687500402331352,0.043449997901916504
1750560789865608700,7.808608642578125,-0.04455000162124634,-0.036024998873472214,-0.012787500396370888
1750560789875213300,7.81821337890625,-0.0518375001847744,-0.03712499886751175,-0.05678749829530716
1750560789884818200,7.827818115234375,-0.060362499207258224,0.015399999916553497,-0.06531249731779099
1750560789894422800,7.8374228515625,-0.07507500052452087,0.08249999582767487,-0.02736249938607216
1750560789904027600,7.847027587890625,-0.0835999995470047,0.10202500224113464,0.028737500309944153
1750560789913632300,7.85663232421875,-0.07864999771118164,0.05926249921321869,0.05926249921321869
1750560789923237000,7.866237060546875,-0.06764999777078629,-0.0005499999970197678,0.03973750025033951
1750560789932842000,7.875842041015625,-0.04688749834895134,-0.036024998873472214,-0.010312499478459358
1750560789942446600,7.885446533203125,-0.021312499418854713,-0.026262499392032623,-0.06531249731779099
1750560789952051500,7.895051513671875,-0.0017874999903142452,0.014162499457597733,-0.09831249713897705
1750560789961656000,7.904656005859375,0.012924999929964542,0.06792499870061874,-0.09088750183582306
1750560789971260700,7.9142607421875,0.025162499397993088,0.1069749966263771,-0.04702499881386757
1750560789980865500,7.923865478515625,0.028875000774860382,0.09844999760389328,0.007974999956786633
1750560789990470400,7.933470458984375,0.022687500342726707,0.055687498301267624,0.03616249933838844
1750560790000075000,7.943074951171875,0.027637500315904617,0.0031624999828636646,0.03849999979138374
1750560790009680000,7.952679931640625,0.03492499887943268,-0.02502499893307686,0.018975000828504562
1750560790019284500,7.962284423828125,0.03739999979734421,-0.02736249938607216,0.0006874999962747097
1750560790028889300,7.971889404296875,0.026399999856948853,-0.022549999877810478,0.015399999916553497
1750560790038494000,7.981493896484375,0.022687500342726707,-0.023787500336766243,0.05197500064969063
1750560790048098800,7.991098876953125,0.025162499397993088,-0.031075000762939453,0.0849749967455864
1750560790057703400,8.000703369140625,0.020212499424815178,-0.03355000168085098,0.08744999766349792
1750560790067308300,8.010308349609375,0.010449999943375587,-0.02502499893307686,0.06544999778270721
1750560790076913000,8.019912841796875,0.0056374999694526196,-0.005362499970942736,0.028737500309944153
1750560790086517800,8.029517822265625,0.0019249999895691872,0.022687500342726707,-0.009074999950826168
1750560790096122600,8.03912255859375,-0.006599999964237213,0.055687498301267624,-0.03231250122189522
1750560790105727200,8.048727294921875,-0.022549999877810478,0.06544999778270721,-0.026124998927116394
1750560790115332000,8.05833203125,-0.038362499326467514,0.048262499272823334,-0.011549999937415123
1750560790124936700,8.067936767578125,-0.045649997889995575,0.0019249999895691872,-0.007837500423192978
1750560790134541300,8.077541259765624,-0.03959999978542328,-0.045787498354911804,-0.022549999877810478
1750560790144146200,8.087146240234375,-0.023787500336766243,-0.06407500058412552,-0.05431250110268593
1750560790153750800,8.096750732421874,-0.012787500396370888,-0.04455000162124634,-0.0798875018954277
1750560790163355400,8.10635546875,-0.013887500390410423,0.005499999970197678,-0.0798875018954277
1750560790172960500,8.11596044921875,-0.028599999845027924,0.08373750001192093,-0.04702499881386757
1750560790182565400,8.1255654296875,-0.035887498408555984,0.15344999730587006,0.011687500402331352
1750560790192170000,8.135169921875,-0.026124998927116394,0.19497500360012054,0.06421250104904175
1750560790201774600,8.144774658203126,-0.016362499445676804,0.16554999351501465,0.0849749967455864
1750560790211379500,8.15437939453125,-0.0028874999843537807,0.10573749989271164,0.06544999778270721
1750560790220984000,8.163984130859374,0.0056374999694526196,0.025162499397993088,0.027499999850988388
1750560790230588700,8.173588623046875,0.004399999976158142,-0.048124998807907104,-0.015124999918043613
1750560790240193500,8.183193603515624,0.011687500402331352,-0.06902500241994858,-0.04936249926686287
1750560790249798400,8.19279833984375,0.010449999943375587,-0.0518375001847744,-0.05555000156164169
1750560790259403000,8.202403076171874,0.0031624999828636646,-0.020075000822544098,-0.036024998873472214
1750560790269008000,8.2120078125,-0.0028874999843537807,0.022687500342726707,-0.009074999950826168
1750560790278612500,8.221612548828125,-0.011549999937415123,0.06421250104904175,0.007974999956786633
1750560790288217300,8.23121728515625,-0.013887500390410423,0.10573749989271164,0.004399999976158142
1750560790297822000,8.240822021484375,-0.009074999950826168,0.12402500212192535,-0.010312499478459358
1750560790307426800,8.2504267578125,-0.005362499970942736,0.08002500236034393,-0.007837500423192978
1750560790317031400,8.260031494140625,-0.0005499999970197678,-0.0017874999903142452,0.004399999976158142
1750560790326636000,8.269635986328124,0.0006874999962747097,-0.08607500046491623,0.007974999956786633
1750560790336241000,8.279240966796875,-0.0017874999903142452,-0.14231249690055847,-0.0017874999903142452
1750560790345845800,8.288845703125,-0.013887500390410423,-0.13007499277591705,-0.021312499418854713
1750560790355450400,8.298450439453125,-0.03355000168085098,-0.048124998807907104,-0.03478749841451645
1750560790365055200,8.30805517578125,-0.04936249926686287,0.06916250288486481,-0.02983750030398369
1750560790374659800,8.317659912109375,-0.057887498289346695,0.18878750503063202,0.004399999976158142
1750560790384264700,8.3272646484375,-0.05664999783039093,0.23649999499320984,0.06668750196695328
1750560790393869300,8.336869384765626,-0.04936249926686287,0.17778749763965607,0.10449999570846558
1750560790403474200,8.34647412109375,-0.038362499326467514,0.06297499686479568,0.08016250282526016
1750560790413078800,8.356078857421876,-0.04207500070333481,-0.09583749622106552,0.021449999883770943
1750560790422683400,8.365683349609375,-0.038362499326467514,-0.18012499809265137,-0.0518375001847744
1750560790432288300,8.375288330078124,-0.022549999877810478,-0.16431249678134918,-0.09583749622106552
1750560790441893000,8.38489306640625,-0.009074999950826168,-0.08978749811649323,-0.0873124971985817
1750560790451498000,8.394498046875,-0.011549999937415123,0.05073750019073486,-0.031075000762939453
1750560790461102600,8.4041025390625,-0.022549999877810478,0.19497500360012054,0.05444999784231186
1750560790470707200,8.413707275390625,-0.013887500390410423,0.27073749899864197,0.12168750166893005
1750560790480312000,8.42331201171875,0.010449999943375587,0.22426250576972961,0.13626250624656677
1750560790489916700,8.432916748046875,0.028875000774860382,0.08868750184774399,0.08992499858140945
1750560790499521500,8.442521484375,0.03244999796152115,-0.04455000162124634,0.0006874999962747097
1750560790509126400,8.45212646484375,0.011687500402331352,-0.14464999735355377,-0.089649997651577
1750560790518731000,8.46173095703125,-0.006599999964237213,-0.2106499969959259,-0.13612499833106995
1750560790528335600,8.471335693359375,-0.01759999990463257,-0.2106499969959259,-0.1313125044107437
1750560790537940500,8.4809404296875,-0.023787500336766243,-0.14588749408721924,-0.0835999995470047
1750560790547545300,8.49054541015625,-0.020075000822544098,-0.05555000156164169,-0.011549999937415123
1750560790557150000,8.50014990234375,0.025162499397993088,0.060499999672174454,0.05197500064969063
1750560790566754800,8.5097548828125,0.11316250264644623,0.1326874941587448,0.12402500212192535
1750560790576359400,8.519359375,0.2377374917268753,0.1704999953508377,0.2157374918460846
1750560790585964300,8.52896435546875,0.4197874963283539,0.20102499425411224,0.3232625126838684
1750560790595569000,8.53856884765625,0.6811749935150146,0.24502499401569366,0.43931248784065247
1750560790605173500,8.548173583984376,1.0440374612808228,0.44907498359680176,0.5296499729156494
1750560790614778600,8.557778564453125,1.658524990081787,0.9120374917984009,0.5663625001907349
1750560790624383200,8.56738330078125,2.4257750511169434,1.6475249528884888,0.5578374862670898
1750560790633987800,8.57698779296875,3.345787525177002,2.653062582015991,0.5296499729156494
1750560790643592700,8.5865927734375,4.359712600708008,3.500887393951416,0.5028374791145325
1750560790653197300,8.596197265625,4.987675189971924,3.8564624786376953,0.4636499881744385
1750560790662802200,8.60580224609375,5.045149803161621,3.58270001411438,0.45278748869895935
1750560790672406800,8.61540673828125,4.670050144195557,2.8216373920440674,0.4417875111103058
1750560790682011600,8.62501171875,4.0250372886657715,1.7135249376296997,0.3940750062465668
1750560790691616500,8.634616455078126,3.254075050354004,0.6652249693870544,0.2217874974012375
1750560790701221000,8.64422119140625,2.453962564468384,0.12526249885559082,-0.08855000138282776
1750560790710826000,8.653825927734376,1.7318124771118164,0.15826250612735748,-0.38046249747276306
1750560790720430600,8.6634306640625,1.3274250030517578,0.5883625149726868,-0.5282750129699707
1750560790730035500,8.673035400390624,1.2090375423431396,1.0733250379562378,-0.5357000231742859
1750560790739640000,8.68264013671875,1.1100374460220337,1.3897124528884888,-0.47574999928474426
1750560790749244700,8.69224462890625,0.9132750034332275,1.462999939918518,-0.439175009727478
1750560790758849500,8.701849609375,0.644599974155426,1.1991374492645264,-0.3854124844074249
1750560790768454400,8.711454345703125,0.3488374948501587,0.644462525844574,-0.33041250705718994
1750560790778059000,8.72105908203125,0.017875000834465027,0.05073750019073486,-0.32065001130104065
1750560790787664000,8.730663818359375,-0.37798750400543213,-0.5246999859809875,-0.34264999628067017
1750560790797268700,8.740268798828126,-0.8190875053405762,-1.1574749946594238,-0.3987500071525574
1750560790806873300,8.749873291015625,-1.274762511253357,-1.7341499328613281,-0.5172749757766724
1750560790816478000,8.75947802734375,-1.7267249822616577,-2.2583000659942627,-0.6810374855995178
1750560790826082800,8.769082763671875,-2.1946375370025635,-2.7286875247955322,-0.8568999767303467
1750560790835687400,8.7786875,-2.623499870300293,-3.0621249675750732,-1.0377124547958374
1750560790845292300,8.788292236328125,-3.0254125595092773,-3.128124952316284,-1.1977624893188477
1750560790854897000,8.79789697265625,-3.4164624214172363,-2.9790749549865723,-1.3345749378204346
1750560790864501800,8.807501708984375,-3.6546125411987305,-2.6589748859405518,-1.4738625288009644
1750560790874106600,8.817106689453125,-3.7328500747680664,-2.2313499450683594,-1.549625039100647
1750560790883711200,8.826711181640626,-3.6130874156951904,-1.7256250381469727,-1.4812874794006348
1750560790893315800,8.83631591796875,-3.0828874111175537,-1.208762526512146,-1.1587125062942505
1750560790902920700,8.845920654296876,-2.337637424468994,-0.7738500237464905,-0.566224992275238
1750560790912525300,8.855525390625,-1.8049625158309937,-0.33412501215934753,0.0752125009894371
1750560790922130200,8.865130126953124,-1.6266249418258667,0.09597499668598175,0.5541250109672546
1750560790931734800,8.87473486328125,-1.5826250314712524,0.32807499170303345,0.8131750226020813
1750560790941339600,8.884339599609374,-1.520337462425232,0.16926249861717224,0.8790374994277954
1750560790950944300,8.8939443359375,-1.4812874794006348,-0.22288750112056732,0.7704125046730042
1750560790960549400,8.90354931640625,-1.5093375444412231,-0.6333249807357788,0.522362470626831
1750560790970154000,8.913154052734376,-1.4836249351501465,-0.9021375179290771,0.2303124964237213
1750560790979758600,8.922758544921875,-1.3102375268936157,-0.8911374807357788,-0.03355000168085098
1750560790989363500,8.932363525390626,-0.9961875081062317,-0.6370375156402588,-0.19359999895095825
1750560790998968000,8.941968017578125,-0.6467999815940857,-0.39393749833106995,-0.1568875014781952
1750560791008572700,8.95157275390625,-0.38046249747276306,-0.20707499980926514,0.028737500309944153
1750560791018177500,8.961177490234375,-0.22893749177455902,-0.040837500244379044,0.24131250381469727
1750560791027782100,8.9707822265625,-0.2143625020980835,0.05197500064969063,0.3965499997138977
1750560791037387000,8.980386962890625,-0.28517499566078186,0.07397499680519104,0.44536250829696655
1750560791046992000,8.989991943359374,-0.3657499849796295,0.043449997901916504,0.43078750371932983
1750560791056596500,8.999596435546875,-0.42803749442100525,-0.0030249999836087227,0.40136250853538513
1750560791066201300,9.009201416015625,-0.4305124878883362,-0.0005499999970197678,0.36726251244544983
1750560791075806200,9.01880615234375,-0.3609375059604645,-0.005362499970942736,0.33783748745918274
1750560791085410800,9.028410888671875,-0.2424124926328659,-0.048124998807907104,0.3012624979019165
1750560791095015400,9.038015380859376,-0.11659999936819077,-0.016362499445676804,0.23897500336170197
1750560791104620000,9.0476201171875,-0.021312499418854713,0.04592499881982803,0.16568750143051147
1750560791114225000,9.057224853515624,0.020212499424815178,0.1264999955892563,0.09968750178813934
1750560791123829800,9.066829833984375,0.012924999929964542,0.16554999351501465,0.043449997901916504
1750560791133434400,9.076434326171874,-0.026124998927116394,0.19373749196529388,-0.010312499478459358
1750560791143039200,9.086039306640625,-0.08607500046491623,0.17173749208450317,-0.010312499478459358
1750560791152644000,9.09564404296875,-0.12017499655485153,0.08744999766349792,0.03849999979138374
1750560791162248700,9.105248779296875,-0.09336250275373459,0.012924999929964542,0.09116250276565552
1750560791171853600,9.114853515625,-0.018837500363588333,-0.04207500070333481,0.12526249885559082
1750560791181458200,9.124458251953126,0.055687498301267624,-0.036024998873472214,0.12292499840259552
1750560791191062800,9.134062744140625,0.08868750184774399,0.022687500342726707,0.09116250276565552
1750560791200667600,9.143667724609376,0.07644999772310257,0.10326249897480011,0.04839999973773956
1750560791210272500,9.1532724609375,0.03492499887943268,0.18754999339580536,-0.0030249999836087227
1750560791219877400,9.16287744140625,-0.012787500396370888,0.2217874974012375,-0.04455000162124634
1750560791229482000,9.17248193359375,-0.04688749834895134,0.18150000274181366,-0.06159999966621399
1750560791239086800,9.1820869140625,-0.06531249731779099,0.10573749989271164,-0.07012499868869781
1750560791248691500,9.19169140625,-0.05555000156164169,0.023924998939037323,-0.07507500052452087
1750560791258296000,9.201296142578125,-0.012787500396370888,-0.0042624999769032,-0.06655000150203705
1750560791267901000,9.21090087890625,0.026399999856948853,0.04097500070929527,-0.015124999918043613
1750560791277505800,9.220505859375,0.03987500071525574,0.10573749989271164,0.06297499686479568
1750560791287110400,9.2301103515625,0.03244999796152115,0.16321249306201935,0.11797499656677246
1750560791296715300,9.23971533203125,0.012924999929964542,0.19497500360012054,0.13144999742507935
1750560791306320000,9.24931982421875,-0.0017874999903142452,0.19126249849796295,0.10573749989271164
1750560791315924700,9.2589248046875,-0.0028874999843537807,0.18273749947547913,0.04592499881982803
1750560791325529300,9.268529296875,0.0019249999895691872,0.1863124966621399,-0.009074999950826168
1750560791335134200,9.27813427734375,0.017875000834465027,0.14121249318122864,-0.012787500396370888
1750560791344738800,9.28773876953125,0.03244999796152115,0.048262499272823334,0.011687500402331352
1750560791363948300,9.3069482421875,0.028875000774860382,-0.060362499207258224,0.022687500342726707
1750560791373553200,9.31655322265625,0.018975000828504562,-0.014024999924004078,0.007974999956786633
1750560791383158000,9.326157958984375,0.0056374999694526196,0.04468749836087227,0.0031624999828636646
1750560791392762600,9.3357626953125,-0.006599999964237213,0.10449999570846558,0.011687500402331352
1750560791402367500,9.345367431640625,-0.023787500336766243,0.15344999730587006,0.03492499887943268
1750560791411972000,9.35497216796875,-0.038362499326467514,0.15702499449253082,0.05444999784231186
1750560791421577000,9.364576904296875,-0.040837500244379044,0.12278749793767929,0.05444999784231186
1750560791431181600,9.374181640625,-0.026124998927116394,0.0789249986410141,0.03739999979734421
1750560791440786200,9.3837861328125,-0.006599999964237213,0.04468749836087227,0.016637500375509262
1750560791450391000,9.39339111328125,0.0031624999828636646,0.03726249933242798,-0.0030249999836087227
1750560791459996000,9.402995849609376,0.009212499484419823,0.04097500070929527,-0.015124999918043613
1750560791469600500,9.4126005859375,0.008112499490380287,0.007974999956786633,-0.006599999964237213
1750560791479205400,9.422205322265626,0.0019249999895691872,-0.014024999924004078,0.015399999916553497
1750560791488810200,9.431810302734375,-0.009074999950826168,-0.028599999845027924,0.04221250116825104
1750560791498414800,9.441414794921876,-0.021312499418854713,-0.031075000762939453,0.05816249921917915
1750560791508019500,9.45101953125,-0.03231250122189522,-0.028599999845027924,0.06668750196695328
1750560791517624300,9.460624267578124,-0.045649997889995575,-0.016362499445676804,0.05816249921917915
1750560791527229000,9.47022900390625,-0.053075000643730164,0.021449999883770943,0.031212499365210533
1750560791536833800,9.479833740234374,-0.06283749639987946,0.07150000333786011,0.0056374999694526196
1750560791546438700,9.489438720703125,-0.06159999966621399,0.09844999760389328,0.0019249999895691872
1750560791556043500,9.49904345703125,-0.0518375001847744,0.08002500236034393,0.025162499397993088
1750560791565648100,9.508648193359376,-0.03464999794960022,0.031212499365210533,0.0471624992787838
1750560791575252700,9.518252685546875,-0.022549999877810478,-0.04455000162124634,0.0494999997317791
1750560791584857600,9.527857666015626,-0.01759999990463257,-0.1153625026345253,0.03616249933838844
1750560791594462200,9.537462158203125,-0.018837500363588333,-0.141075000166893,0.012924999929964542
1750560791604066800,9.54706689453125,-0.02488750033080578,-0.1153625026345253,-0.0005499999970197678
1750560791613671700,9.556671630859375,-0.03231250122189522,-0.03478749841451645,0.004399999976158142
1750560791623276500,9.566276611328124,-0.040837500244379044,0.07644999772310257,0.022687500342726707
1750560791632881200,9.575881103515625,-0.053075000643730164,0.18754999339580536,0.043449997901916504
1750560791642486000,9.585486083984375,-0.053075000643730164,0.20721249282360077,0.05816249921917915
1750560791652091000,9.5950908203125,-0.048124998807907104,0.13750000298023224,0.043449997901916504
1750560791661695500,9.604695556640625,-0.031075000762939453,0.04468749836087227,0.0056374999694526196
1750560791671300400,9.61430029296875,-0.016362499445676804,-0.07259999960660934,-0.026124998927116394
1750560791680905000,9.623905029296875,-0.012787500396370888,-0.1471250057220459,-0.050599999725818634
1750560791690509600,9.633509521484376,-0.012787500396370888,-0.13255000114440918,-0.05912499874830246
1750560791700114700,9.64311474609375,-0.018837500363588333,-0.03478749841451645,-0.03959999978542328
1750560791709719300,9.65271923828125,-0.02488750033080578,0.06792499870061874,0.011687500402331352
1750560791719324200,9.66232421875,-0.028599999845027924,0.1350249946117401,0.06173750013113022
1750560791728928800,9.6719287109375,-0.022549999877810478,0.13021250069141388,0.0789249986410141
1750560791738533600,9.68153369140625,-0.0028874999843537807,0.08373750001192093,0.05073750019073486
1750560791748138200,9.69113818359375,0.021449999883770943,0.018975000828504562,-0.0017874999903142452
1750560791757743000,9.7007431640625,0.04097500070929527,-0.03959999978542328,-0.057887498289346695
1750560791767347700,9.71034765625,0.04592499881982803,-0.06902500241994858,-0.09212499856948853
1750560791776952600,9.71995263671875,0.03863750025629997,-0.045787498354911804,-0.0835999995470047
1750560791786557200,9.72955712890625,0.014162499457597733,-0.010312499478459358,-0.03478749841451645
1750560791796162000,9.739162109375,-0.010312499478459358,-0.010312499478459358,0.021449999883770943
1750560791805767000,9.748766845703125,-0.03231250122189522,-0.036024998873472214,0.03616249933838844
1750560791815371500,9.75837158203125,-0.04207500070333481,-0.07012499868869781,0.012924999929964542
1750560791824976100,9.76797607421875,-0.03464999794960022,-0.09336250275373459,-0.021312499418854713
1750560791834581000,9.7775810546875,-0.015124999918043613,-0.07878749817609787,-0.048124998807907104
1750560791844185600,9.787185546875,0.010449999943375587,-0.009074999950826168,-0.06159999966621399
1750560791853790500,9.79679052734375,0.027637500315904617,0.08373750001192093,-0.040837500244379044
1750560791863395300,9.806395263671876,0.03244999796152115,0.1264999955892563,0.0006874999962747097
1750560791873000000,9.816,0.031212499365210533,0.09473749995231628,0.03492499887943268
1750560791882604800,9.825604736328126,0.022687500342726707,0.014162499457597733,0.043449997901916504
1750560791892209400,9.83520947265625,0.011687500402331352,-0.05678749829530716,0.026399999856948853
1750560791901814300,9.844814208984374,0.006874999962747097,-0.08483749628067017,0.007974999956786633
1750560791911419000,9.8544189453125,0.010449999943375587,-0.07383749634027481,0.0006874999962747097
1750560791921023700,9.864023681640624,0.010449999943375587,-0.04455000162124634,0.011687500402331352
1750560791930628600,9.873628662109375,0.004399999976158142,-0.01759999990463257,0.03368749842047691
1750560791940233500,9.8832333984375,-0.007837500423192978,-0.016362499445676804,0.04097500070929527
1750560791949838000,9.892838134765626,-0.020075000822544098,-0.01759999990463257,0.023924998939037323
1750560791959443000,9.90244287109375,-0.022549999877810478,-0.028599999845027924,-0.01759999990463257
1750560791969047600,9.912047607421876,-0.022549999877810478,-0.036024998873472214,-0.05912499874830246
1750560791978652200,9.921652099609375,-0.022549999877810478,-0.022549999877810478,-0.08607500046491623
1750560791988257000,9.931257080078124,-0.022549999877810478,0.014162499457597733,-0.07012499868869781
1750560791997861600,9.940861572265625,-0.023787500336766243,0.020212499424815178,-0.006599999964237213
1750560792007466500,9.950466552734374,-0.015124999918043613,-0.023787500336766243,0.055687498301267624
1750560792017071400,9.9600712890625,-0.01759999990463257,-0.09336250275373459,0.07644999772310257
1750560792026676000,9.969676025390624,-0.03355000168085098,-0.12388750165700912,0.055687498301267624
1750560792036280800,9.97928076171875,-0.038362499326467514,-0.09088750183582306,0.015399999916553497
1750560792045885700,9.9888857421875,-0.03464999794960022,-0.020075000822544098,-0.016362499445676804
1750560792055490300,9.998490234375,-0.045649997889995575,0.07026249915361404,-0.022549999877810478
1750560792065095000,10.008094970703125,-0.06764999777078629,0.148499995470047,-0.0042624999769032
1750560792074699500,10.017699462890626,-0.07864999771118164,0.18878750503063202,0.026399999856948853
1750560792084304400,10.027304443359375,-0.06641250103712082,0.1387374997138977,0.04468749836087227
1750560792093909000,10.036908935546874,-0.038362499326467514,0.020212499424815178,0.03492499887943268
1750560792103513900,10.046513916015625,-0.005362499970942736,-0.09831249713897705,-0.0005499999970197678
1750560792113118700,10.05611865234375,0.009212499484419823,-0.15565000474452972,-0.04702499881386757
1750560792122723600,10.0657236328125,0.015399999916553497,-0.12388750165700912,-0.08855000138282776
1750560792132328200,10.075328125,0.0056374999694526196,-0.040837500244379044,-0.0873124971985817
1750560792141933000,10.08493310546875,-0.005362499970942736,0.05073750019073486,-0.048124998807907104
1750560792151537700,10.09453759765625,-0.01759999990463257,0.1106875017285347,-0.0005499999970197678
1750560792161142500,10.104142578125,-0.020075000822544098,0.1106875017285347,0.03492499887943268
1750560792170747100,10.1137470703125,-0.009074999950826168,0.05926249921321869,0.0494999997317791
1750560792180351700,10.123351806640626,0.004399999976158142,-0.023787500336766243,0.0471624992787838
1750560792189956600,10.13295654296875,0.018975000828504562,-0.09336250275373459,0.027499999850988388
1750560792199561500,10.1425615234375,0.022687500342726707,-0.13255000114440918,0.011687500402331352
1750560792209166300,10.152166259765625,0.015399999916553497,-0.133650004863739,0.012924999929964542
1750560792218771000,10.16177099609375,-0.006599999964237213,-0.08236250281333923,0.029975000768899918
1750560792228375800,10.171375732421875,-0.028599999845027924,0.0031624999828636646,0.05692499876022339
1750560792237980400,10.18098046875,-0.02736249938607216,0.08373750001192093,0.07644999772310257
1750560792247585300,10.190585205078126,-0.006599999964237213,0.11302500218153,0.06916250288486481
1750560792257190000,10.20018994140625,0.023924998939037323,0.07150000333786011,0.03244999796152115
1750560792266794500,10.20979443359375,0.04468749836087227,0.006737499963492155,-0.016362499445676804
1750560792276399400,10.2193994140625,0.04963750019669533,-0.05912499874830246,-0.048124998807907104
1750560792286004500,10.22900439453125,0.04221250116825104,-0.08855000138282776,-0.05555000156164169
1750560792295608800,10.23860888671875,0.015399999916553497,-0.11055000126361847,-0.03478749841451645
1750560792305213700,10.248213623046874,-0.012787500396370888,-0.11055000126361847,-0.0017874999903142452
1750560792314818300,10.257818359375,-0.02983750030398369,-0.053075000643730164,0.017737500369548798
1750560792324423200,10.267423095703125,-0.03959999978542328,0.028737500309944153,0.025162499397993088
1750560792334027800,10.27702783203125,-0.03712499886751175,0.09473749995231628,0.03368749842047691
1750560792343632600,10.286632568359375,-0.018837500363588333,0.14602500200271606,0.04592499881982803
1750560792353237500,10.296237548828126,0.0019249999895691872,0.15344999730587006,0.05321250110864639
1750560792362842400,10.30584228515625,0.011687500402331352,0.12526249885559082,0.04592499881982803
1750560792372447000,10.315447021484376,0.006874999962747097,0.05197500064969063,0.03368749842047691
1750560792382051800,10.3250517578125,-0.004124999977648258,-0.028599999845027924,0.010449999943375587
1750560792391656400,10.334656494140624,-0.011549999937415123,-0.10436250269412994,-0.022549999877810478
1750560792401261000,10.344260986328125,-0.020075000822544098,-0.14959999918937683,-0.05555000156164169
1750560792410866000,10.353865966796874,-0.022549999877810478,-0.13859999179840088,-0.07507500052452087
1750560792420470500,10.363470458984375,-0.01759999990463257,-0.06902500241994858,-0.07012499868869781
1750560792430075400,10.373075439453125,-0.010312499478459358,0.03368749842047691,-0.026124998927116394
1750560792439680300,10.38268017578125,-0.0017874999903142452,0.1264999955892563,0.04839999973773956
1750560792449285000,10.39228515625,0.0031624999828636646,0.18273749947547913,0.12044999748468399
1750560792458889700,10.4018896484375,0.0031624999828636646,0.15702499449253082,0.15702499449253082
1750560792468494300,10.411494384765625,-0.0005499999970197678,0.05444999784231186,0.13750000298023224
1750560792478099200,10.42109912109375,-0.0028874999843537807,-0.0518375001847744,0.06668750196695328
1750560792487704000,10.4307041015625,0.004399999976158142,-0.1190750002861023,-0.023787500336766243
1750560792497308700,10.44030859375,0.0056374999694526196,-0.1373624950647354,-0.0873124971985817
1750560792506913300,10.449913330078125,0.0006874999962747097,-0.08236250281333923,-0.09831249713897705
1750560792516518100,10.45951806640625,-0.011549999937415123,0.026399999856948853,-0.053075000643730164
1750560792526122800,10.469122802734375,-0.020075000822544098,0.10449999570846558,0.03368749842047691
1750560792535727900,10.478727783203125,-0.006599999964237213,0.10821250081062317,0.10449999570846558
1750560792545332500,10.48833251953125,0.011687500402331352,0.05321250110864639,0.11550000309944153
1750560792554937000,10.49793701171875,0.009212499484419823,-0.02983750030398369,0.07273750007152557
1750560792564542000,10.5075419921875,-0.009074999950826168,-0.0835999995470047,-0.0005499999970197678
1750560792574146600,10.517146484375,-0.01759999990463257,-0.09831249713897705,-0.060362499207258224
1750560792583751400,10.52675146484375,-0.021312499418854713,-0.07383749634027481,-0.07878749817609787
1750560792593356000,10.53635595703125,-0.02983750030398369,-0.006599999964237213,-0.053075000643730164
1750560792602961000,10.5459609375,-0.03231250122189522,0.07768750190734863,0.0019249999895691872
1750560792612565500,10.5555654296875,-0.018837500363588333,0.14368750154972076,0.06916250288486481
1750560792622170600,10.565170654296875,0.020212499424815178,0.17902499437332153,0.12292499840259552
1750560792631775200,10.574775146484376,0.08016250282526016,0.19249999523162842,0.15578749775886536
1750560792641379800,10.5843798828125,0.1522125005722046,0.2022625058889389,0.1802625060081482
1750560792650984700,10.593984619140626,0.2915000021457672,0.2620750069618225,0.18521249294281006
1750560792660589300,10.60358935546875,0.5321249961853027,0.3647874891757965,0.18878750503063202
1750560792670194000,10.61319384765625,0.8852249979972839,0.43078750371932983,0.21326249837875366
1750560792679798800,10.622798828125,1.3458499908447266,0.5406500101089478,0.227974995970726
1750560792689404000,10.63240380859375,1.9090499877929688,0.7825124859809875,0.2022625058889389
1750560792699008300,10.64200830078125,2.5357749462127686,1.2076624631881714,0.12168750166893005
1750560792708613000,10.651613037109374,3.1380250453948975,1.795337438583374,0.009212499484419823
1750560792718218000,10.661218017578125,3.8149375915527344,2.4563000202178955,-0.07507500052452087
1750560792727822800,10.67082275390625,4.569950103759766,3.037787437438965,-0.12264999747276306
1750560792737427500,10.680427490234376,5.065912246704102,3.345787525177002,-0.13488750159740448
1750560792747032000,10.690031982421875,5.203962326049805,3.2760748863220215,-0.11659999936819077
1750560792756637000,10.699636962890626,5.103862285614014,2.8569750785827637,-0.13488750159740448
1750560792766241800,10.70924169921875,4.688475131988525,2.394012451171875,-0.25341248512268066
1750560792775846700,10.7188466796875,3.879699945449829,1.9628125429153442,-0.41593748331069946
1750560792785451300,10.728451171875,2.9474499225616455,1.6695250272750854,-0.5894625186920166
1750560792795055900,10.738055908203124,2.27067494392395,1.4642374515533447,-0.6968500018119812
1750560792804660700,10.74766064453125,1.8418124914169312,1.2223750352859497,-0.6883249878883362
1750560792814265300,10.757265380859375,1.4961374998092651,0.9022749662399292,-0.6505125164985657
1750560792823870200,10.7668701171875,1.141800045967102,0.534600019454956,-0.6223250031471252
1750560792833474800,10.776474853515625,0.7679374814033508,0.2022625058889389,-0.5882250070571899
1750560792843079700,10.78607958984375,0.33783748745918274,-0.014024999924004078,-0.5234624743461609
1750560792852684500,10.7956845703125,-0.1251250058412552,-0.21559999883174896,-0.4184125065803528
1750560792862289200,10.8052890625,-0.5905625224113464,-0.40246251225471497,-0.3377000093460083
1750560792871894000,10.81489404296875,-1.059712529182434,-0.596750020980835,-0.32670000195503235
1750560792881498600,10.82449853515625,-1.5471500158309937,-0.8996624946594238,-0.3694624900817871
1750560792891103500,10.834103515625,-2.075012445449829,-1.3895750045776367,-0.5002250075340271
1750560792900708000,10.8437080078125,-2.6210250854492188,-1.9882500171661377,-0.705512523651123
1750560792910313000,10.85331298828125,-3.173224925994873,-2.5612125396728516,-0.9521874785423279
1750560792919917600,10.86291748046875,-3.657087564468384,-2.964362382888794,-1.2392874956130981
1750560792929522400,10.8725224609375,-3.814662456512451,-3.0475499629974365,-1.5105749368667603
1750560792939127300,10.882127197265625,-3.5117499828338623,-2.911837577819824,-1.6363874673843384
1750560792948732200,10.891732177734376,-2.911837577819824,-2.5319249629974365,-1.5263874530792236
1750560792958336800,10.901336669921875,-2.3095874786376953,-1.9735374450683594,-1.179474949836731
1750560792967941600,10.910941650390624,-1.9149625301361084,-1.3334749937057495,-0.6920375227928162
1750560792977546200,10.920546142578125,-1.7181999683380127,-0.7140374779701233,-0.20941250026226044
1750560792987151000,10.930151123046874,-1.6326749324798584,-0.3156999945640564,0.19373749196529388
1750560792996755700,10.939755615234375,-1.6106749773025513,-0.14231249690055847,0.44907498359680176
1750560793006360300,10.9493603515625,-1.6326749324798584,-0.28036248683929443,0.5504124760627747
1750560793015965200,10.958965087890626,-1.6706249713897705,-0.7140374779701233,0.5016000270843506
1750560793025570000,10.968570068359375,-1.615625023841858,-1.0793750286102295,0.31459999084472656
1750560793035174700,10.978174560546876,-1.4250500202178955,-1.1147124767303467,0.10944999754428864
1750560793044779500,10.987779541015625,-1.1232374906539917,-0.7702749967575073,0.0006874999962747097
1750560793054384000,10.997384033203126,-0.7445625066757202,-0.3011249899864197,0.043449997901916504
1750560793063989000,11.006989013671875,-0.4329875111579895,0.13021250069141388,0.2157374918460846
1750560793073593600,11.016593505859374,-0.29493749141693115,0.38183748722076416,0.4221250116825104
1750560793083198500,11.026198486328125,-0.34264999628067017,0.4343625009059906,0.5773624777793884
1750560793092803300,11.03580322265625,-0.48069998621940613,0.36355000734329224,0.6421250104904175
1750560793102408200,11.045408203125,-0.6210874915122986,0.15950000286102295,0.6371750235557556
1750560793112012800,11.0550126953125,-0.7115625143051147,-0.14464999735355377,0.5699374675750732
1750560793121617700,11.06461767578125,-0.720087468624115,-0.33041250705718994,0.44536250829696655
1750560793131222300,11.07422216796875,-0.6333249807357788,-0.3596999943256378,0.31459999084472656
1750560793140827100,11.0838271484375,-0.4879874885082245,-0.2656500041484833,0.22055000066757202
1750560793150431700,11.093431640625,-0.33274999260902405,-0.05555000156164169,0.1839749962091446
1750560793169641500,11.112641357421875,-0.2046000063419342,0.30250000953674316,0.19126249849796295
1750560793179246000,11.12224609375,-0.18988749384880066,0.28049999475479126,0.17544999718666077
1750560793188851000,11.131850830078125,-0.16541250050067902,0.1069749966263771,0.15826250612735748
1750560793198455600,11.14145556640625,-0.14464999735355377,-0.0873124971985817,0.13021250069141388
1750560793208060200,11.15106005859375,-0.13612499833106995,-0.2363625019788742,0.1106875017285347
1750560793217665000,11.1606650390625,-0.13859999179840088,-0.25093749165534973,0.11797499656677246
1750560793227270000,11.170269775390626,-0.13241249322891235,-0.13488750159740448,0.14368750154972076
1750560793236874500,11.17987451171875,-0.10559999942779541,0.05444999784231186,0.16197499632835388
1750560793246479000,11.18947900390625,-0.08236250281333923,0.22055000066757202,0.16926249861717224
1750560793256084200,11.199084228515625,-0.06159999966621399,0.37207499146461487,0.16073749959468842
1750560793265688800,11.208688720703124,-0.04207500070333481,0.37207499146461487,0.16073749959468842
1750560793275293700,11.218293701171875,-0.03464999794960022,0.1802625060081482,0.1387374997138977
1750560793284898300,11.227898193359374,-0.04207500070333481,-0.07383749634027481,0.09721250087022781
1750560793294503000,11.2375029296875,-0.07012499868869781,-0.260699987411499,0.05073750019073486
1750560793304107800,11.247107666015625,-0.07383749634027481,-0.3059374988079071,0.011687500402331352
1750560793313712600,11.256712646484376,-0.05664999783039093,-0.20583750307559967,-0.005362499970942736
1750560793323317200,11.266317138671875,-0.02736249938607216,-0.005362499970942736,-0.0030249999836087227
1750560793332922000,11.275922119140626,0.016637500375509262,0.21931250393390656,0.023924998939037323
1750560793342526700,11.285526611328125,0.043449997901916504,0.37207499146461487,0.06421250104904175
1750560793352131600,11.295131591796874,0.03616249933838844,0.3708375096321106,0.09473749995231628
1750560793361736400,11.304736328125,-0.0017874999903142452,0.23649999499320984,0.08868750184774399
1750560793371341300,11.31434130859375,-0.035887498408555984,0.07150000333786011,0.055687498301267624
1750560793380946000,11.32394580078125,-0.05912499874830246,-0.05678749829530716,0.015399999916553497
1750560793390550800,11.33355078125,-0.06641250103712082,-0.11659999936819077,-0.026124998927116394
1750560793400155100,11.343155029296875,-0.053075000643730164,-0.16788749396800995,-0.06655000150203705
1750560793409760300,11.35276025390625,-0.028599999845027924,-0.16788749396800995,-0.1190750002861023
1750560793419364900,11.36236474609375,-0.0028874999843537807,-0.10436250269412994,-0.14836250245571136
1750560793428969500,11.371969482421875,0.006874999962747097,-0.015262499451637268,-0.11412499845027924
1750560793438574600,11.38157470703125,-0.004124999977648258,0.12402500212192535,-0.048124998807907104
1750560793448179200,11.39117919921875,-0.02488750033080578,0.2718375027179718,0.017737500369548798
1750560793457784000,11.4007841796875,-0.040837500244379044,0.3268375098705292,0.07397499680519104
1750560793467388700,11.410388671875,-0.038362499326467514,0.21697500348091125,0.09226249903440475
1750560793476993300,11.4199931640625,-0.022549999877810478,0.03492499887943268,0.05692499876022339
1750560793486598100,11.42959814453125,-0.012787500396370888,-0.13007499277591705,-0.005362499970942736
1750560793496202800,11.43920263671875,-0.015124999918043613,-0.21793749928474426,-0.07136250287294388
1750560793505808000,11.448807861328126,-0.01759999990463257,-0.1886499971151352,-0.10683749616146088
1750560793515412500,11.45841259765625,-0.02736249938607216,-0.04936249926686287,-0.09088750183582306
1750560793525017300,11.468017333984376,-0.021312499418854713,0.1264999955892563,-0.02736249938607216
1750560793534622000,11.4776220703125,-0.0017874999903142452,0.23154999315738678,0.05197500064969063
1750560793544226600,11.4872265625,0.018975000828504562,0.19126249849796295,0.0849749967455864
1750560793553831400,11.49683154296875,0.018975000828504562,0.06916250288486481,0.05197500064969063
1750560793563436000,11.50643603515625,0.0056374999694526196,-0.08607500046491623,-0.005362499970942736
1750560793573041000,11.516041015625,-0.013887500390410423,-0.21683749556541443,-0.05555000156164169
1750560793582645800,11.525645751953125,-0.031075000762939453,-0.24117499589920044,-0.09212499856948853
1750560793592250600,11.535250732421876,-0.04207500070333481,-0.18383750319480896,-0.09583749622106552
1750560793601855200,11.544855224609375,-0.031075000762939453,-0.0518375001847744,-0.06655000150203705
1750560793611460000,11.554460205078126,-0.009074999950826168,0.10092499852180481,-0.012787500396370888
1750560793621064700,11.564064697265625,0.0031624999828636646,0.15578749775886536,0.0471624992787838
1750560793630669600,11.573669677734374,0.008112499490380287,0.1326874941587448,0.08868750184774399
1750560793640274200,11.583274169921875,-0.0028874999843537807,0.07150000333786011,0.09721250087022781
1750560793649878800,11.592878662109374,-0.02983750030398369,0.015399999916553497,0.07768750190734863
1750560793659483600,11.602483642578125,-0.05431250110268593,-0.022549999877810478,0.05073750019073486
1750560793669088500,11.612088623046875,-0.060362499207258224,-0.07136250287294388,0.027499999850988388
1750560793678693400,11.621693359375,-0.045649997889995575,-0.1190750002861023,0.011687500402331352
1750560793688298000,11.631298095703125,-0.010312499478459358,-0.1153625026345253,0.006737499963492155
1750560793697902800,11.64090283203125,0.020212499424815178,-0.06531249731779099,0.012924999929964542
1750560793707507500,11.650507568359375,0.026399999856948853,0.014162499457597733,0.014162499457597733
1750560793717112300,11.6601123046875,0.0019249999895691872,0.07644999772310257,0.021449999883770943
1750560793726717000,11.669717041015625,-0.03712499886751175,0.0752125009894371,0.023924998939037323
1750560793736321800,11.67932177734375,-0.07012499868869781,0.06916250288486481,0.007974999956786633
1750560793745926700,11.6889267578125,-0.08483749628067017,0.06297499686479568,-0.009074999950826168
1750560793755531500,11.698531494140624,-0.07507500052452087,0.05321250110864639,-0.015124999918043613
1750560793765136100,11.70813623046875,-0.048124998807907104,0.023924998939037323,0.0019249999895691872
1750560793774740700,11.71774072265625,-0.023787500336766243,-0.0005499999970197678,0.027499999850988388
1750560793784345600,11.727345703125,-0.0017874999903142452,-0.03231250122189522,0.03849999979138374
