time,seconds_elapsed,z,y,x
1750560782143424000,0.086424072265625,0.048262499272823334,0.21986250579357147,-0.33082500100135803
1750560782153028600,0.096028564453125,0.011687500402331352,0.15028749406337738,-0.3003000020980835
1750560782162633500,0.105633544921875,-0.03726249933242798,0.0989999994635582,-0.3246375024318695
1750560782172238000,0.115238037109375,-0.05678749829530716,0.042762499302625656,-0.3870624899864197
1750560782181842700,0.1248427734375,0.058024998754262924,0.015949999913573265,-0.45663750171661377
1750560782191447300,0.134447265625,0.16431249678134918,-0.0085249999538064,-0.47987499833106995
1750560782201052000,0.144052001953125,0.1667875051498413,-0.12333749979734421,-0.4188250005245209
1750560782210656500,0.153656494140625,0.09473749995231628,-0.20528750121593475,-0.2965874969959259
1750560782220261000,0.16326123046875,0.017737500369548798,-0.20528750121593475,-0.1658249944448471
1750560782229865700,0.17286572265625,-0.040837500244379044,-0.1625249981880188,-0.04853750020265579
1750560782239470600,0.182470703125,-0.06531249731779099,-0.0989999994635582,0.05884999781847
1750560782249075200,0.1920751953125,-0.05678749829530716,-0.037812501192092896,0.14327499270439148
1750560782258679800,0.2016796875,-0.04331250116229057,0.018287500366568565,0.19456249475479126
1750560782268284400,0.211284423828125,-0.022549999877810478,0.04881250113248825,0.1933249980211258
1750560782277889000,0.220888916015625,0.0030249999836087227,0.00976249948143959,0.14561249315738678
1750560782287494100,0.230494140625,0.03244999796152115,-0.12581250071525574,0.08084999769926071
1750560782297098800,0.2400986328125,0.05444999784231186,-0.2858625054359436,0.008799999952316284
1750560782306703400,0.249703369140625,0.06778749823570251,-0.3983374834060669,-0.05348749831318855
1750560782316308000,0.259307861328125,0.06297499686479568,-0.4166249930858612,-0.09129999577999115
1750560782325912600,0.26891259765625,0.028737500309944153,-0.36162498593330383,-0.10724999755620956
1750560782335517200,0.27851708984375,-0.014024999924004078,-0.2773374915122986,-0.09748750180006027
1750560782345121800,0.288121826171875,-0.04207500070333481,-0.17710000276565552,-0.09377499669790268
1750560782354726400,0.297726318359375,-0.04331250116229057,-0.09281250089406967,-0.11701250076293945
1750560782364331000,0.3073310546875,-0.021312499418854713,-0.05857500061392784,-0.15482500195503235
1750560782373935900,0.316935791015625,0.020212499424815178,-0.0672374963760376,-0.19030000269412994
1750560782383540500,0.32654052734375,0.048262499272823334,-0.14781250059604645,-0.20624999701976776
1750560782393145000,0.33614501953125,0.027499999850988388,-0.2761000096797943,-0.19277499616146088
1750560782402749700,0.345749755859375,-0.014024999924004078,-0.3786749839782715,-0.15125000476837158
1750560782412354300,0.355354248046875,-0.0494999997317791,-0.420199990272522,-0.10724999755620956
1750560782421959200,0.364959228515625,-0.07026249915361404,-0.3763374984264374,-0.06077500060200691
1750560782431563800,0.374563720703125,-0.07259999960660934,-0.26138749718666077,-0.015537500381469727
1750560782441168600,0.384168701171875,-0.05926249921321869,-0.13199999928474426,0.021037500351667404
1750560782450773200,0.393773193359375,-0.05678749829530716,-0.04399999976158142,0.035750001668930054
1750560782460377900,0.4033779296875,-0.058024998754262924,0.006049999967217445,0.03698749840259552
1750560782469982500,0.412982421875,-0.0775500014424324,0.04028749838471413,0.023512499406933784
1750560782479587000,0.422587158203125,-0.11055000126361847,0.02928750030696392,-0.0057749999687075615
1750560782489192000,0.43219189453125,-0.10683749616146088,0.030524998903274536,-0.05348749831318855
1750560782498796300,0.44179638671875,-0.07150000333786011,0.05128749832510948,-0.11824999749660492
1750560782508401200,0.451401123046875,-0.02502499893307686,0.06104999780654907,-0.18906250596046448
1750560782518005800,0.461005859375,0.029975000768899918,0.05623750016093254,-0.2563000023365021
1750560782527610400,0.4706103515625,0.07397499680519104,0.04399999976158142,-0.3003000020980835
1750560782537215000,0.480215087890625,0.07150000333786011,0.028049999848008156,-0.29411250352859497
1750560782546819600,0.489819580078125,0.03849999979138374,0.02199999988079071,-0.23801249265670776
1750560782556424400,0.499424560546875,0.007974999956786633,0.04152499884366989,-0.1732500046491623
1750560782566029000,0.509029052734375,-0.018975000828504562,0.054999999701976776,-0.1280124932527542
1750560782575633700,0.518633544921875,-0.048262499272823334,0.05252499878406525,-0.10106249898672104
1750560782585238300,0.52823828125,-0.06655000150203705,0.054999999701976776,-0.0742499977350235
1750560782594843100,0.537843017578125,-0.058024998754262924,0.07081250101327896,-0.04372499883174896
1750560782604447700,0.54744775390625,-0.031075000762939453,0.08057499676942825,-0.015537500381469727
1750560782614052400,0.55705224609375,0.007974999956786633,0.08057499676942825,0.003987499978393316
1750560782623657000,0.566656982421875,0.03478749841451645,0.0672374963760376,0.01251249946653843
1750560782633261600,0.576261474609375,0.04702499881386757,0.057475000619888306,-0.0009624999947845936
1750560782642866200,0.5858662109375,0.045787498354911804,0.06228749826550484,-0.029012499377131462
1750560782652470800,0.595470703125,0.026262499392032623,0.07576250284910202,-0.05953750014305115
1750560782662075600,0.60507568359375,-0.010312499478459358,0.09404999762773514,-0.07672499865293503
1750560782671680300,0.61468017578125,-0.029975000768899918,0.12223749607801437,-0.06201250106096268
1750560782681284900,0.624284912109375,-0.02502499893307686,0.15399999916553497,-0.026537500321865082
1750560782690889500,0.633889404296875,0.0006874999962747097,0.18081249296665192,0.008799999952316284
1750560782700494300,0.643494384765625,0.023787500336766243,0.17957499623298645,0.02956249937415123
1750560782710099000,0.653098876953125,0.04455000162124634,0.11976250261068344,0.01979999989271164
1750560782719703600,0.66270361328125,0.05197500064969063,0.04028749838471413,-0.02419999986886978
1750560782729308400,0.672308349609375,0.05678749829530716,-0.059812501072883606,-0.07301250100135803
1750560782738913000,0.6819130859375,0.06655000150203705,-0.12581250071525574,-0.1023000031709671
1750560782748517600,0.691517578125,0.06902500241994858,-0.12581250071525574,-0.09624999761581421
1750560782758122200,0.701122314453125,0.06778749823570251,-0.06476250290870667,-0.06201250106096268
1750560782767726800,0.710726806640625,0.05444999784231186,0.047712501138448715,-0.008249999955296516
1750560782777331700,0.720331787109375,0.026262499392032623,0.1307625025510788,0.060087498277425766
1750560782786936300,0.729936279296875,0.005499999970197678,0.1625249981880188,0.11508750170469284
1750560782796541000,0.739541015625,0.0042624999769032,0.1527625024318695,0.142037495970726
1750560782806145500,0.7491455078125,0.02502499893307686,0.1013374999165535,0.14932499825954437
1750560782815750100,0.758750244140625,0.043449997901916504,0.02928750030696392,0.14079999923706055
1750560782825355000,0.76835498046875,0.04702499881386757,-0.04028749838471413,0.1163249984383583
1750560782834959600,0.777959716796875,0.03478749841451645,-0.09033749997615814,0.07479999959468842
1750560782844564000,0.78756396484375,0.010449999943375587,-0.0952875018119812,0.03203750029206276
1750560782854168800,0.7971689453125,-0.018975000828504562,-0.07823749631643295,0.01251249946653843
1750560782863773400,0.8067734375,-0.036024998873472214,-0.01952499896287918,0.011274999938905239
1750560782873378300,0.81637841796875,-0.027499999850988388,0.06104999780654907,0.01979999989271164
1750560782882983000,0.82598291015625,-0.007974999956786633,0.12223749607801437,0.03203750029206276
1750560782892587500,0.83558740234375,0.014024999924004078,0.1307625025510788,0.040562499314546585
1750560782902192400,0.8451923828125,0.03478749841451645,0.10628750175237656,0.04908749833703041
1750560782911797000,0.854796875,0.045787498354911804,0.05252499878406525,0.055275000631809235
1750560782921401600,0.864401611328125,0.048262499272823334,-0.007287499960511923,0.05403750017285347
1750560782931006200,0.874006103515625,0.048262499272823334,-0.07204999774694443,0.040562499314546585
1750560782940611000,0.883611083984375,0.05073750019073486,-0.12209999561309814,0.013749999925494194
1750560782950215700,0.893215576171875,0.05197500064969063,-0.15757499635219574,-0.011962499469518661
1750560782959820500,0.902820556640625,0.048262499272823334,-0.14657500386238098,-0.0387750007212162
1750560782969425000,0.9124248046875,0.03726249933242798,-0.07823749631643295,-0.05472499877214432
1750560782979029800,0.92202978515625,0.014024999924004078,0.015949999913573265,-0.05101250112056732
1750560782988634600,0.931634521484375,0.005499999970197678,0.10752499848604202,-0.0424874983727932
1750560782998239200,0.9412392578125,0.021449999883770943,0.16376249492168427,-0.03519999980926514
1750560783007843800,0.95084375,0.045787498354911804,0.15028749406337738,-0.015537500381469727
1750560783017448400,0.960448486328125,0.05555000156164169,0.07328750193119049,0.002749999985098839
1750560783027053000,0.970052978515625,0.03478749841451645,-0.057475000619888306,0.008799999952316284
1750560783036658000,0.979657958984375,-0.005499999970197678,-0.1722874939441681,0.01251249946653843
1750560783046262500,0.989262451171875,-0.045787498354911804,-0.19552500545978546,0.023512499406933784
1750560783055867100,0.9988671875,-0.07383749634027481,-0.1270499974489212,0.04908749833703041
1750560783065471700,1.0084716796875,-0.07259999960660934,-0.02681249938905239,0.0943249985575676
1750560783075076400,1.018076416015625,-0.06173750013113022,0.057475000619888306,0.1358499974012375
1750560783084681000,1.027680908203125,-0.03973750025033951,0.0672374963760376,0.14932499825954437
1750560783094285800,1.037285888671875,-0.05678749829530716,0.05004999786615372,0.1518000066280365
1750560783103890200,1.04689013671875,-0.03973750025033951,0,0.11151249706745148
1750560783113495000,1.0564951171875,-0.03726249933242798,-0.09157499670982361,0.055275000631809235
1750560783123099600,1.066099609375,-0.027499999850988388,-0.1966249942779541,0.01251249946653843
1750560783132704300,1.075704345703125,-0.012787500396370888,-0.25286251306533813,-0.014437500387430191
1750560783142309000,1.08530908203125,-0.0005499999970197678,-0.2540999948978424,-0.03753750026226044
1750560783151914000,1.0949140625,0.005499999970197678,-0.19552500545978546,-0.0644875019788742
1750560783161518600,1.1045185546875,0.012787500396370888,-0.07452499866485596,-0.08030000329017639
1750560783171123200,1.114123291015625,0.021449999883770943,-0.0147124994546175,-0.07919999957084656
1750560783180727800,1.123727783203125,0.014024999924004078,-0.0317624993622303,-0.05829999968409538
1750560783190332700,1.133332763671875,0.018975000828504562,-0.01347499992698431,-0.0034374999813735485
1750560783199937000,1.14293701171875,0.012787500396370888,-0.00494999997317791,0.05884999781847
1750560783209542000,1.1525419921875,-0.0017874999903142452,-0.028049999848008156,0.10408750176429749
1750560783219146500,1.162146484375,-0.006737499963492155,-0.06847500056028366,0.12732499837875366
1750560783228751000,1.171751220703125,0.0042624999769032,-0.07452499866485596,0.11508750170469284
1750560783238356000,1.18135595703125,0.017737500369548798,-0.04647500067949295,0.07356250286102295
1750560783247960600,1.190960693359375,0.021449999883770943,0.02447500079870224,0.02708750031888485
1750560783257565200,1.200565185546875,0.028737500309944153,0.15152500569820404,-0.0009624999947845936
1750560783267170000,1.210170166015625,0.03726249933242798,0.2956250011920929,-0.010724999941885471
1750560783276774700,1.219774658203125,0.03973750025033951,0.4166249930858612,-0.004674999974668026
1750560783286379300,1.229379150390625,0.043449997901916504,0.4581499993801117,0.0015124999918043613
1750560783295984000,1.238984130859375,0.04455000162124634,0.3726249933242798,-0.008249999955296516
1750560783305588700,1.248588623046875,0.028737500309944153,0.210099995136261,-0.04372499883174896
1750560783315193300,1.258193359375,-0.0042624999769032,0.0170499999076128,-0.09501250088214874
1750560783324798000,1.2677978515625,-0.04207500070333481,-0.16733749210834503,-0.11948750168085098
1750560783334402600,1.277402587890625,-0.06902500241994858,-0.26028749346733093,-0.11701250076293945
1750560783344007200,1.287007080078125,-0.07631249725818634,-0.2578125,-0.0999625027179718
1750560783353612000,1.296612060546875,-0.06655000150203705,-0.19181250035762787,-0.05953750014305115
1750560783363216600,1.306216552734375,-0.05555000156164169,-0.07947500050067902,-0.009487500414252281
1750560783372821500,1.315821533203125,-0.045787498354911804,0.03904999792575836,0.03203750029206276
1750560783382426000,1.325426025390625,-0.04207500070333481,0.12828749418258667,0.05403750017285347
1750560783392030700,1.33503076171875,-0.05073750019073486,0.18328750133514404,0.06875000149011612
1750560783401635600,1.344635498046875,-0.07026249915361404,0.20528750121593475,0.09308750182390213
1750560783411240200,1.354240234375,-0.09583749622106552,0.1685750037431717,0.1297999918460846
1750560783420844800,1.3638447265625,-0.11055000126361847,0.1013374999165535,0.15056249499320984
1750560783430449400,1.373449462890625,-0.11178749799728394,0.025712499395012856,0.13956250250339508
1750560783440054300,1.38305419921875,-0.10326249897480011,-0.05623750016093254,0.10779999941587448
1750560783449659000,1.392658935546875,-0.0873124971985817,-0.11728750169277191,0.05884999781847
1750560783459263500,1.402263427734375,-0.07878749817609787,-0.16609999537467957,0.01251249946653843
1750560783468868000,1.4118681640625,-0.0873124971985817,-0.18933749198913574,-0.022962499409914017
1750560783478473000,1.421472900390625,-0.09831249713897705,-0.17352500557899475,-0.04619999974966049
1750560783488077600,1.43107763671875,-0.0835999995470047,-0.11604999750852585,-0.05472499877214432
1750560783497682200,1.44068212890625,-0.05431250110268593,-0.054999999701976776,-0.04743750020861626
1750560783507287000,1.450287109375,-0.02502499893307686,-0.023237500339746475,-0.03519999980926514
1750560783516891600,1.4598916015625,-0.0017874999903142452,-0.02447500079870224,-0.030249999836087227
1750560783526496300,1.469496337890625,0.0042624999769032,-0.042762499302625656,-0.0387750007212162
1750560783536101000,1.47910107421875,-0.017737500369548798,-0.09281250089406967,-0.0424874983727932
1750560783545705700,1.488705810546875,-0.05073750019073486,-0.14781250059604645,-0.03396249935030937
1750560783555310300,1.498310302734375,-0.07259999960660934,-0.16609999537467957,-0.026537500321865082
1750560783564915000,1.5079150390625,-0.07383749634027481,-0.1331000030040741,-0.021724998950958252
1750560783574519600,1.51751953125,-0.05926249921321869,-0.08799999952316284,-0.014437500387430191
1750560783584124200,1.527124267578125,-0.03973750025033951,-0.059812501072883606,-0.002199999988079071
1750560783593729000,1.53672900390625,-0.023787500336766243,-0.042762499302625656,0.006324999965727329
1750560783603333600,1.546333740234375,-0.010312499478459358,-0.023237500339746475,0.005224999971687794
1750560783612938200,1.555938232421875,-0.005499999970197678,-0.002474999986588955,0.011274999938905239
1750560783622542800,1.56554296875,-0.014024999924004078,-0.01223750039935112,0.04675000160932541
1750560783632147700,1.575147705078125,-0.022549999877810478,-0.02928750030696392,0.08579999953508377
1750560783641752300,1.58475244140625,-0.021312499418854713,-0.047712501138448715,0.10408750176429749
1750560783651357200,1.594357177734375,-0.012787500396370888,-0.07081250101327896,0.0943249985575676
1750560783660961800,1.6039619140625,0.007974999956786633,-0.0695749968290329,0.056512501090765
1750560783670566400,1.61356640625,0.028737500309944153,-0.04881250113248825,0.007562499959021807
1750560783680171300,1.623171142578125,0.04221250116825104,-0.02199999988079071,-0.03396249935030937
1750560783689775900,1.63277587890625,0.045787498354911804,0.02681249938905239,-0.0681999996304512
1750560783699380700,1.642380615234375,0.028737500309944153,0.07823749631643295,-0.09253749996423721
1750560783708985300,1.6519853515625,0.014024999924004078,0.1050499975681305,-0.11453749984502792
1750560783718590000,1.66158984375,0.006737499963492155,0.09157499670982361,-0.15001249313354492
1750560783728194600,1.671194580078125,-0.0030249999836087227,0.04647500067949295,-0.19277499616146088
1750560783737799200,1.680799072265625,-0.010312499478459358,0.023237500339746475,-0.23430000245571136
1750560783747404000,1.690404052734375,-0.011549999937415123,0.05376249924302101,-0.26606249809265137
1750560783757008600,1.700008544921875,-0.0030249999836087227,0.10381250083446503,-0.25753748416900635
1750560783766613200,1.70961328125,-0.0005499999970197678,0.15757499635219574,-0.19401249289512634
1750560783776217900,1.7192177734375,-0.005499999970197678,0.17833749949932098,-0.09872499853372574
1750560783785822500,1.728822509765625,-0.016499999910593033,0.1722874939441681,-0.008249999955296516
1750560783795427000,1.738427001953125,-0.026262499392032623,0.14781250059604645,0.055275000631809235
1750560783805032000,1.748031982421875,-0.023787500336766243,0.10999999940395355,0.10532499849796295
1750560783814636500,1.757636474609375,-0.012787500396370888,0.057475000619888306,0.14685000479221344
1750560783824241400,1.767241455078125,-0.0017874999903142452,0.0012374999932944775,0.18837499618530273
1750560783833846000,1.776845947265625,-0.0005499999970197678,-0.08304999768733978,0.2531374990940094
1750560783843451000,1.786450927734375,-0.005499999970197678,-0.12333749979734421,0.3251875042915344
1750560783853055500,1.796055419921875,-0.015262499451637268,-0.09033749997615814,0.3741374909877777
1750560783862660000,1.80566015625,-0.036024998873472214,-0.059812501072883606,0.38513749837875366
1750560783872264700,1.8152646484375,-0.05555000156164169,-0.020762499421834946,0.3521375060081482
1750560783881869600,1.82486962890625,-0.06283749639987946,0.04881250113248825,0.2849000096321106
1750560783891474200,1.83447412109375,-0.06407500058412552,0.11728750169277191,0.20308749377727509
1750560783901078800,1.844078857421875,-0.045787498354911804,0.14176249504089355,0.13103750348091125
1750560783910683600,1.85368359375,-0.006737499963492155,0.11481250077486038,0.08084999769926071
1750560783920288500,1.86328857421875,0.02502499893307686,0.057475000619888306,0.030799999833106995
1750560783929893000,1.87289306640625,0.03368749842047691,-0.020762499421834946,-0.026537500321865082
1750560783939497700,1.882497802734375,0.022687500342726707,-0.08676250278949738,-0.1023000031709671
1750560783949102300,1.892102294921875,0.005499999970197678,-0.11357499659061432,-0.17806249856948853
1750560783958707200,1.901707275390625,0.016499999910593033,-0.08181250095367432,-0.227012500166893
1750560783968311800,1.911311767578125,0.043449997901916504,0.00494999997317791,-0.24158750474452972
1750560783977916400,1.92091650390625,0.03368749842047691,0.05128749832510948,-0.19030000269412994
1750560783987521000,1.93052099609375,0.009212499484419823,0.08799999952316284,-0.10724999755620956
1750560783997126000,1.9401259765625,0.014024999924004078,0.15633749961853027,-0.04853750020265579
1750560784006730500,1.94973046875,0.020212499424815178,0.15399999916553497,0.01251249946653843
1750560784016335400,1.95933544921875,0.014024999924004078,0.07947500050067902,0.05403750017285347
1750560784025940000,1.96893994140625,0.017737500369548798,0.04399999976158142,0.06751249730587006
1750560784035544600,1.978544677734375,0.026262499392032623,0.07328750193119049,0.09556250274181366
1750560784045149200,1.988149169921875,0.010449999943375587,0.07947500050067902,0.1480875015258789
1750560784054754000,1.997754150390625,-0.0030249999836087227,0.10257499665021896,0.16403749585151672
1750560784064358700,2.007358642578125,-0.0017874999903142452,0.14781250059604645,0.13337500393390656
1750560784073963300,2.01696337890625,0.007974999956786633,0.1551000028848648,0.08951249718666077
1750560784083567900,2.02656787109375,0.027499999850988388,0.09281250089406967,0.038087498396635056
1750560784093172700,2.0361728515625,0.05555000156164169,0.020762499421834946,-0.01924999989569187
1750560784102777300,2.04577734375,0.0812624990940094,-0.0037124999798834324,-0.06696250289678574
1750560784112382200,2.05538232421875,0.10202500224113464,0.02199999988079071,-0.08896250277757645
1750560784121986800,2.06498681640625,0.11550000309944153,0.0695749968290329,-0.08401250094175339
1750560784131591400,2.07459130859375,0.11178749799728394,0.08552499860525131,-0.06696250289678574
1750560784141196300,2.0841962890625,0.06778749823570251,0.04028749838471413,-0.04619999974966049
1750560784150801000,2.09380078125,0.027499999850988388,-0.0317624993622303,-0.0364375002682209
1750560784160405800,2.10340576171875,0.021449999883770943,-0.05623750016093254,-0.05596249923110008
1750560784170010400,2.11301025390625,0.026262499392032623,-0.06228749826550484,-0.06929999589920044
1750560784179615000,2.122614990234375,0.05555000156164169,-0.0635249987244606,-0.05953750014305115
1750560784189219600,2.132219482421875,0.09102500230073929,-0.06228749826550484,-0.04743750020861626
1750560784198824200,2.14182421875,0.10449999570846558,-0.047712501138448715,-0.0424874983727932
1750560784208429000,2.151428955078125,0.09226249903440475,-0.04399999976158142,-0.04743750020861626
1750560784218033700,2.16103369140625,0.06778749823570251,-0.028049999848008156,-0.06201250106096268
1750560784227638300,2.17063818359375,0.048262499272823334,0.0037124999798834324,-0.0742499977350235
1750560784237243100,2.1802431640625,0.036024998873472214,0.03671250119805336,-0.09006249904632568
1750560784246847700,2.18984765625,0.03244999796152115,0.02681249938905239,-0.09624999761581421
1750560784256452400,2.199452392578125,0.021449999883770943,0.006049999967217445,-0.09129999577999115
1750560784266057200,2.20905712890625,0.0017874999903142452,-0.020762499421834946,-0.09624999761581421
1750560784275662000,2.218662109375,-0.007974999956786633,-0.0695749968290329,-0.11096250265836716
1750560784285266700,2.2282666015625,-0.005499999970197678,-0.14533749222755432,-0.12553749978542328
1750560784294871300,2.237871337890625,0.006737499963492155,-0.20886249840259552,-0.12677499651908875
1750560784304476000,2.247475830078125,0.016499999910593033,-0.1905750036239624,-0.12072499841451645
1750560784314080500,2.25708056640625,0.018975000828504562,-0.11481250077486038,-0.09501250088214874
1750560784323685400,2.266685302734375,0.006737499963492155,-0.02199999988079071,-0.05596249923110008
1750560784333290000,2.2762900390625,-0.007974999956786633,0.06104999780654907,-0.011962499469518661
1750560784342894600,2.28589453125,-0.021312499418854713,0.11357499659061432,0.02474999986588955
1750560784352499200,2.295499267578125,-0.036024998873472214,0.13433749973773956,0.04675000160932541
1750560784362104000,2.30510400390625,-0.05555000156164169,0.12828749418258667,0.057750001549720764
1750560784371709000,2.314708984375,-0.07150000333786011,0.09652499854564667,0.06132499873638153
1750560784381313500,2.3243134765625,-0.07383749634027481,0.07081250101327896,0.055275000631809235
1750560784390918100,2.333918212890625,-0.06283749639987946,0.057475000619888306,0.038087498396635056
1750560784400523000,2.34352294921875,-0.04702499881386757,0.05004999786615372,0.018562499433755875
1750560784410127600,2.353127685546875,-0.03478749841451645,0.028049999848008156,0.008799999952316284
1750560784419732200,2.362732177734375,-0.021312499418854713,0.007287499960511923,0.0015124999918043613
1750560784429336800,2.3723369140625,-0.009074999950826168,0.0037124999798834324,-0.0057749999687075615
1750560784438941700,2.381941650390625,-0.005499999970197678,0.00976249948143959,-0.015537500381469727
1750560784448546300,2.39154638671875,-0.012787500396370888,0.015949999913573265,-0.02419999986886978
1750560784458151000,2.40115087890625,-0.022549999877810478,0,-0.02419999986886978
1750560784467755800,2.410755859375,-0.031075000762939453,-0.020762499421834946,-0.01677500084042549
1750560784477360400,2.4203603515625,-0.03478749841451645,-0.01952499896287918,-0.004674999974668026
1750560784486965000,2.429965087890625,-0.03355000168085098,-0.0012374999932944775,0.010037500411272049
1750560784496569600,2.439569580078125,-0.04331250116229057,0.00976249948143959,0.028324998915195465
1750560784506174500,2.449174560546875,-0.05678749829530716,0.0147124994546175,0.040562499314546585
1750560784515779300,2.458779296875,-0.05926249921321869,0.015949999913573265,0.03451250120997429
1750560784525383700,2.4683837890625,-0.05431250110268593,0.015949999913573265,0.016224998980760574
1750560784534988500,2.477988525390625,-0.045787498354911804,0,-0.008249999955296516
1750560784544593400,2.487593505859375,-0.05073750019073486,-0.0147124994546175,-0.03519999980926514
1750560784554198000,2.497197998046875,-0.05926249921321869,0.0012374999932944775,-0.05719999969005585
1750560784563802600,2.506802734375,-0.053075000643730164,0.018287500366568565,-0.06201250106096268
1750560784573407200,2.5164072265625,-0.028737500309944153,0.025712499395012856,-0.05224999785423279
1750560784583012000,2.52601220703125,-0.010312499478459358,0.015949999913573265,-0.03148749843239784
1750560784592616700,2.53561669921875,-0.006737499963492155,0.007287499960511923,-0.007012499962002039
1750560784602221300,2.54522119140625,-0.010312499478459358,0.0147124994546175,0.011274999938905239
1750560784611826000,2.554825927734375,-0.015262499451637268,0.007287499960511923,0.021037500351667404
1750560784621430800,2.5644306640625,-0.015262499451637268,-0.01952499896287918,0.016224998980760574
1750560784631035400,2.574035400390625,-0.014024999924004078,-0.042762499302625656,-0.0057749999687075615
1750560784640640000,2.583639892578125,-0.016499999910593033,-0.054999999701976776,-0.030249999836087227
1750560784650244900,2.593244873046875,-0.020075000822544098,-0.042762499302625656,-0.05101250112056732
1750560784659849500,2.602849365234375,-0.018975000828504562,-0.00976249948143959,-0.06324999779462814
1750560784669454000,2.6124541015625,-0.010312499478459358,0.02681249938905239,-0.05953750014305115
1750560784679059000,2.622058837890625,-0.015262499451637268,0.03423750028014183,-0.04619999974966049
1750560784688663800,2.631663818359375,-0.029975000768899918,0.0170499999076128,-0.03519999980926514
1750560784698268400,2.641268310546875,-0.036024998873472214,0.0037124999798834324,-0.03396249935030937
1750560784707873000,2.650873046875,-0.03478749841451645,-0.00494999997317791,-0.04001250118017197
1750560784717477600,2.6604775390625,-0.040837500244379044,-0.01347499992698431,-0.05953750014305115
1750560784727082500,2.67008251953125,-0.04702499881386757,-0.023237500339746475,-0.08648750185966492
1750560784736687000,2.67968701171875,-0.0494999997317791,-0.030524998903274536,-0.1060125008225441
1750560784746291700,2.689291748046875,-0.053075000643730164,-0.042762499302625656,-0.10106249898672104
1750560784755896600,2.698896484375,-0.058024998754262924,-0.04152499884366989,-0.08030000329017639
1750560784765501200,2.708501220703125,-0.05431250110268593,-0.0012374999932944775,-0.05224999785423279
1750560784775105800,2.718105712890625,-0.045787498354911804,0.05128749832510948,-0.014437500387430191
1750560784784710700,2.727710693359375,-0.036024998873472214,0.10752499848604202,0.030799999833106995
1750560784794315300,2.737315185546875,-0.03849999979138374,0.16005000472068787,0.07479999959468842
1750560784803920100,2.746920166015625,-0.053075000643730164,0.19676250219345093,0.10903749614953995
1750560784813524700,2.756524658203125,-0.05073750019073486,0.1942874938249588,0.13956250250339508
1750560784823129300,2.76612939453125,-0.026262499392032623,0.12828749418258667,0.14079999923706055
1750560784832734200,2.775734130859375,-0.0017874999903142452,0.03904999792575836,0.0882750004529953
1750560784842338800,2.7853388671875,0.020212499424815178,-0.054999999701976776,0.003987499978393316
1750560784851943400,2.794943359375,0.027499999850988388,-0.12333749979734421,-0.09129999577999115
1750560784861548000,2.804548095703125,0.031212499365210533,-0.13433749973773956,-0.15853749215602875
1750560784871153000,2.81415283203125,0.018975000828504562,-0.11604999750852585,-0.1695374995470047
1750560784880757500,2.823757568359375,0.0017874999903142452,-0.08428750187158585,-0.12553749978542328
1750560784890362400,2.8333623046875,-0.006737499963492155,-0.04028749838471413,-0.05596249923110008
1750560784899967000,2.842967041015625,-0.0042624999769032,0.01952499896287918,0.01732499897480011
1750560784909571800,2.85257177734375,0.0030249999836087227,0.07328750193119049,0.06751249730587006
1750560784919176400,2.862176513671875,0.012787500396370888,0.12099999934434891,0.0906125009059906
1750560784928781000,2.871781005859375,0.018975000828504562,0.13928750157356262,0.09679999947547913
1750560784938386000,2.881385986328125,0.012787500396370888,0.13199999928474426,0.07975000143051147
1750560784947990500,2.890990478515625,-0.010312499478459358,0.08923749625682831,0.04427500069141388
1750560784957595100,2.90059521484375,-0.03231250122189522,0.030524998903274536,-0.0009624999947845936
1750560784967200000,2.910199951171875,-0.03231250122189522,-0.0147124994546175,-0.04977500066161156
1750560784976804400,2.919804443359375,-0.018975000828504562,-0.05004999786615372,-0.07548750191926956
1750560784986409200,2.9294091796875,0.0017874999903142452,-0.0635249987244606,-0.0742499977350235
1750560784996014300,2.939014404296875,0.012787500396370888,-0.03671250119805336,-0.05101250112056732
1750560785005619000,2.948618896484375,0.005499999970197678,-0.0037124999798834324,-0.011962499469518661
1750560785015223600,2.9582236328125,-0.011549999937415123,0.0170499999076128,0.033275000751018524
1750560785024828200,2.967828125,-0.028737500309944153,0.035475000739097595,0.060087498277425766
1750560785034433000,2.97743310546875,-0.03973750025033951,0.045237500220537186,0.06751249730587006
1750560785044037400,2.987037353515625,-0.040837500244379044,0.0695749968290329,0.060087498277425766
1750560785053642200,2.996642333984375,-0.04702499881386757,0.12457499653100967,0.057750001549720764
1750560785063246800,3.006246826171875,-0.053075000643730164,0.18205000460147858,0.052799999713897705
1750560785072851500,3.0158515625,-0.06283749639987946,0.19552500545978546,0.045512501150369644
1750560785082456300,3.025456298828125,-0.07150000333786011,0.13928750157356262,0.02474999986588955
1750560785092061200,3.035061279296875,-0.07259999960660934,0.054999999701976776,-0.03148749843239784
1750560785101665800,3.044665771484375,-0.06902500241994858,-0.02681249938905239,-0.11329999566078186
1750560785111270400,3.0542705078125,-0.05431250110268593,-0.09033749997615814,-0.18658749759197235
1750560785120875300,3.063875244140625,-0.07150000333786011,-0.17104999721050262,-0.1915374994277954
1750560785130479900,3.07347998046875,-0.07631249725818634,-0.18328750133514404,-0.16101250052452087
1750560785140084700,3.083084716796875,-0.0518375001847744,-0.12828749418258667,-0.1120624989271164
1750560785149689300,3.092689453125,-0.03355000168085098,-0.054999999701976776,-0.05596249923110008
1750560785159294000,3.1022939453125,-0.023787500336766243,0.010999999940395355,-0.008249999955296516
1750560785168898600,3.111898681640625,-0.023787500336766243,0.057475000619888306,0.02474999986588955
1750560785178503200,3.121503173828125,-0.036024998873472214,0.09652499854564667,0.045512501150369644
1750560785188108300,3.1311083984375,-0.05073750019073486,0.12952500581741333,0.047987498342990875
1750560785197713000,3.140712890625,-0.0494999997317791,0.13928750157356262,0.025987500324845314
1750560785207317500,3.1503173828125,-0.03726249933242798,0.12333749979734421,-0.015537500381469727
1750560785216922400,3.15992236328125,-0.021312499418854713,0.05623750016093254,-0.0644875019788742
1750560785226527000,3.16952685546875,-0.0042624999769032,-0.03904999792575836,-0.11096250265836716
1750560785236131600,3.179131591796875,0.018975000828504562,-0.10752499848604202,-0.12196250259876251
1750560785245736400,3.188736328125,0.028737500309944153,-0.13805000483989716,-0.09253749996423721
1750560785255341000,3.198341064453125,0.022687500342726707,-0.0989999994635582,-0.04001250118017197
1750560785264945700,3.207945556640625,0.009212499484419823,-0.023237500339746475,0.028324998915195465
1750560785274550300,3.21755029296875,-0.006737499963492155,0.06228749826550484,0.0943249985575676
1750560785284155100,3.227155029296875,-0.027499999850988388,0.12223749607801437,0.14079999923706055
1750560785293760000,3.236760009765625,-0.040837500244379044,0.1405249983072281,0.1615625023841858
1750560785303364600,3.246364501953125,-0.03849999979138374,0.1331000030040741,0.16403749585151672
1750560785312969200,3.25596923828125,-0.010312499478459358,0.11123749613761902,0.1578499972820282
1750560785322573800,3.26557373046875,0.021449999883770943,0.0635249987244606,0.1443749964237213
1750560785332178700,3.2751787109375,0.05073750019073486,0.01223750039935112,0.11384999752044678
1750560785341783600,3.284783447265625,0.06655000150203705,-0.02447500079870224,0.06751249730587006
1750560785351388200,3.29438818359375,0.06421250104904175,-0.06847500056028366,0.01732499897480011
1750560785360992800,3.30399267578125,0.04702499881386757,-0.09281250089406967,-0.026537500321865082
1750560785370597600,3.31359765625,0.02502499893307686,-0.07576250284910202,-0.05719999969005585
1750560785380202200,3.3232021484375,0.009212499484419823,-0.025712499395012856,-0.06929999589920044
1750560785389807000,3.33280712890625,0.0030249999836087227,0.054999999701976776,-0.05596249923110008
1750560785399411500,3.342411376953125,-0.0030249999836087227,0.11728750169277191,-0.01677500084042549
1750560785409016300,3.352016357421875,0.0042624999769032,0.14533749222755432,0.018562499433755875
1750560785418621000,3.361620849609375,0.017737500369548798,0.13433749973773956,0.025987500324845314
1750560785428225800,3.371225830078125,0.020212499424815178,0.07576250284910202,0.003987499978393316
1750560785437830400,3.380830322265625,0.012787500396370888,0.0147124994546175,-0.03396249935030937
1750560785447435000,3.39043505859375,0.006737499963492155,-0.030524998903274536,-0.07548750191926956
1750560785457040000,3.400039794921875,-0.007974999956786633,-0.05004999786615372,-0.09872499853372574
1750560785466644700,3.409644775390625,-0.012787500396370888,-0.04647500067949295,-0.10106249898672104
1750560785476249300,3.419249267578125,-0.009074999950826168,-0.010999999940395355,-0.08524999767541885
1750560785485854000,3.42885400390625,0.0006874999962747097,0.02928750030696392,-0.04977500066161156
1750560785495458600,3.43845849609375,0.012787500396370888,0.05004999786615372,-0.0057749999687075615
1750560785505063200,3.448063232421875,0.017737500369548798,0.04399999976158142,0.02956249937415123
1750560785514668000,3.45766796875,0.011687500402331352,0.025712499395012856,0.045512501150369644
1750560785524272600,3.467272705078125,-0.0042624999769032,-0.006049999967217445,0.043037500232458115
1750560785533877200,3.476877197265625,-0.031075000762939453,-0.02199999988079071,0.025987500324845314
1750560785543482000,3.486482177734375,-0.0518375001847744,-0.020762499421834946,0.005224999971687794
1750560785553087000,3.4960869140625,-0.053075000643730164,0.002474999986588955,-0.01924999989569187
1750560785562691600,3.505691650390625,-0.03849999979138374,0.023237500339746475,-0.04124999791383743
1750560785572296400,3.51529638671875,-0.022549999877810478,0.0085249999538064,-0.05596249923110008
1750560785581901000,3.524901123046875,-0.007974999956786633,-0.01952499896287918,-0.0644875019788742
1750560785591505700,3.534505615234375,-0.0042624999769032,-0.04881250113248825,-0.05953750014305115
1750560785601110500,3.544110595703125,-0.010312499478459358,-0.06228749826550484,-0.04743750020861626
1750560785610715100,3.553715087890625,-0.023787500336766243,-0.04399999976158142,-0.03148749843239784
1750560785620319700,3.56331982421875,-0.026262499392032623,-0.0037124999798834324,-0.014437500387430191
1750560785629924400,3.57292431640625,-0.022549999877810478,0.035475000739097595,0.008799999952316284
1750560785639529500,3.582529541015625,-0.014024999924004078,0.05128749832510948,0.01979999989271164
1750560785649134000,3.592134033203125,-0.010312499478459358,0.04399999976158142,0.011274999938905239
1750560785658738700,3.60173876953125,-0.016499999910593033,0.0170499999076128,-0.011962499469518661
1750560785668343600,3.611343505859375,-0.028737500309944153,-0.020762499421834946,-0.030249999836087227
1750560785677948200,3.6209482421875,-0.036024998873472214,-0.03904999792575836,-0.04124999791383743
1750560785687552800,3.630552734375,-0.029975000768899918,-0.015812499448657036,-0.03753750026226044
1750560785697157600,3.64015771484375,-0.020075000822544098,0.015949999913573265,-0.013199999928474426
1750560785706762200,3.64976220703125,-0.007974999956786633,0.03671250119805336,0.006324999965727329
1750560785716366800,3.659366943359375,-0.0005499999970197678,0.035475000739097595,0.006324999965727329
1750560785725971700,3.6689716796875,-0.0042624999769032,0.006049999967217445,-0.010724999941885471
1750560785735576300,3.678576416015625,-0.007974999956786633,-0.03904999792575836,-0.03519999980926514
1750560785745181000,3.688180908203125,-0.0042624999769032,-0.06228749826550484,-0.05224999785423279
1750560785754785500,3.69778564453125,0.0030249999836087227,-0.05857500061392784,-0.05101250112056732
1750560785764390400,3.707390380859375,0.0030249999836087227,-0.032999999821186066,-0.03148749843239784
1750560785773995300,3.716995361328125,-0.009074999950826168,-0.0037124999798834324,-0.013199999928474426
1750560785783599900,3.726599853515625,-0.021312499418854713,0.0085249999538064,-0.013199999928474426
1750560785793204700,3.736204833984375,-0.023787500336766243,-0.018287500366568565,-0.026537500321865082
1750560785802809300,3.745809326171875,-0.010312499478459358,-0.0695749968290329,-0.04496249929070473
1750560785812414000,3.7554140625,0.0006874999962747097,-0.12209999561309814,-0.05719999969005585
1750560785822018600,3.7650185546875,-0.010312499478459358,-0.1368124932050705,-0.05596249923110008
1750560785831623400,3.77462353515625,-0.031075000762939453,-0.10876250267028809,-0.03396249935030937
1750560785841228000,3.78422802734375,-0.036024998873472214,-0.04152499884366989,-0.002199999988079071
1750560785850832600,3.79383251953125,-0.028737500309944153,0.01223750039935112,0.04179999977350235
1750560785860437500,3.8034375,-0.029975000768899918,0.035475000739097595,0.08084999769926071
1750560785870042000,3.8130419921875,-0.03726249933242798,0.045237500220537186,0.08951249718666077
1750560785879647000,3.82264697265625,-0.05555000156164169,0.045237500220537186,0.07479999959468842
1750560785889251800,3.832251953125,-0.06778749823570251,0.032999999821186066,0.05403750017285347
1750560785898856400,3.8418564453125,-0.06902500241994858,0.00494999997317791,0.038087498396635056
1750560785908461000,3.8514609375,-0.0494999997317791,-0.0147124994546175,0.01979999989271164
1750560785918066000,3.86106591796875,-0.026262499392032623,-0.025712499395012856,-0.0057749999687075615
1750560785927670500,3.87067041015625,-0.018975000828504562,-0.05376249924302101,-0.03148749843239784
1750560785937275100,3.880275146484375,-0.016499999910593033,-0.07823749631643295,-0.05719999969005585
1750560785946880000,3.8898798828125,-0.015262499451637268,-0.09157499670982361,-0.07301250100135803
1750560785956484600,3.899484619140625,-0.014024999924004078,-0.08676250278949738,-0.07301250100135803
1750560785966089500,3.90908935546875,-0.010312499478459358,-0.045237500220537186,-0.05953750014305115
1750560785975694300,3.9186943359375,-0.012787500396370888,0.02199999988079071,-0.027775000780820847
1750560785985299000,3.928298828125,-0.016499999910593033,0.08799999952316284,0.025987500324845314
1750560785994903600,3.937903564453125,-0.016499999910593033,0.13557499647140503,0.0906125009059906
1750560786004508200,3.947508056640625,-0.012787500396370888,0.13928750157356262,0.13337500393390656
1750560786014113000,3.957113037109375,-0.015262499451637268,0.09047500044107437,0.12484999746084213
1750560786023717600,3.966717529296875,-0.014024999924004078,0.028049999848008156,0.06751249730587006
1750560786033322200,3.976322265625,-0.009074999950826168,-0.05623750016093254,-0.010724999941885471
1750560786042927000,3.985927001953125,-0.006737499963492155,-0.12828749418258667,-0.07796250283718109
1750560786052532000,3.995531982421875,-0.0017874999903142452,-0.13928750157356262,-0.11701250076293945
1750560786062136600,4.005136474609375,0.0017874999903142452,-0.08799999952316284,-0.11329999566078186
1750560786071741400,4.014741455078125,-0.0017874999903142452,-0.01223750039935112,-0.0742499977350235
1750560786081346000,4.024345947265625,-0.0017874999903142452,0.054999999701976776,-0.0364375002682209
1750560786090950700,4.03395068359375,-0.0017874999903142452,0.07947500050067902,-0.018012499436736107
1750560786100555500,4.043555419921875,0.0017874999903142452,0.07081250101327896,-0.015537500381469727
1750560786110160100,4.05316015625,0.0042624999769032,0.045237500220537186,-0.018012499436736107
1750560786119765000,4.062764892578125,-0.005499999970197678,0.02928750030696392,-0.010724999941885471
1750560786129369600,4.07236962890625,-0.011549999937415123,0.02928750030696392,0.016224998980760574
1750560786138974500,4.081974365234375,0.0006874999962747097,0.03423750028014183,0.04675000160932541
1750560786148579000,4.0915791015625,0.020212499424815178,-0.0147124994546175,0.060087498277425766
1750560786158184000,4.101183837890625,0.03478749841451645,-0.0695749968290329,0.035750001668930054
1750560786167788300,4.110788330078125,0.03973750025033951,-0.10257499665021896,-0.013199999928474426
1750560786177393200,4.12039306640625,0.029975000768899918,-0.11233749985694885,-0.05348749831318855
1750560786186998000,4.129998046875,0.022687500342726707,-0.08799999952316284,-0.0681999996304512
1750560786196602600,4.1396025390625,0.018975000828504562,-0.0085249999538064,-0.05348749831318855
1750560786206207200,4.149207275390625,0.018975000828504562,0.06847500056028366,0.0015124999918043613
1750560786215812000,4.15881201171875,0.03973750025033951,0.11728750169277191,0.056512501090765
1750560786225416700,4.168416748046875,0.06655000150203705,0.10381250083446503,0.0845625028014183
1750560786235021300,4.178021240234375,0.07397499680519104,0.04028749838471413,0.07108750194311142
1750560786244626000,4.1876259765625,0.06778749823570251,-0.006049999967217445,0.01979999989271164
1750560786254230800,4.197230712890625,0.05555000156164169,-0.0317624993622303,-0.03396249935030937
1750560786263835400,4.20683544921875,0.05073750019073486,-0.02928750030696392,-0.0705375000834465
1750560786273440000,4.21643994140625,0.05073750019073486,-0.010999999940395355,-0.08524999767541885
1750560786283044900,4.226044921875,0.043449997901916504,-0.0037124999798834324,-0.08648750185966492
1750560786292649500,4.2356494140625,0.043449997901916504,0.00976249948143959,-0.09872499853372574
1750560786302254300,4.24525439453125,0.07026249915361404,0.006049999967217445,-0.1317249983549118
1750560786311859200,4.254859130859375,0.11178749799728394,-0.0170499999076128,-0.15853749215602875
1750560786321463800,4.2644638671875,0.1447875052690506,-0.030524998903274536,-0.17201249301433563
1750560786331068400,4.274068359375,0.172837495803833,-0.0147124994546175,-0.16458749771118164
1750560786340673300,4.28367333984375,0.17531250417232513,-0.007287499960511923,-0.12925000488758087
1750560786350278000,4.29327783203125,0.17173749208450317,0.0170499999076128,-0.08277499675750732
1750560786359882500,4.302882568359375,0.16183750331401825,0.0695749968290329,-0.04372499883174896
1750560786369487400,4.3124873046875,0.1508374959230423,0.11481250077486038,-0.01677500084042549
1750560786379092000,4.322092041015625,0.16073749959468842,0.1685750037431717,-0.008249999955296516
1750560786388697000,4.331697021484375,0.3011249899864197,0.29686251282691956,-0.0057749999687075615
1750560786398301700,4.3413017578125,0.6297500133514404,0.38843750953674316,0.018562499433755875
1750560786407906300,4.35090625,1.08308744430542,0.45319998264312744,0.03698749840259552
1750560786417511200,4.36051123046875,1.6535749435424805,0.515625,0.01979999989271164
1750560786427115800,4.37011572265625,2.2167749404907227,0.5411999821662903,-0.07177499681711197
1750560786436720400,4.379720458984375,2.726212501525879,0.6329125165939331,-0.25011250376701355
1750560786446325000,4.389324951171875,3.2638375759124756,0.6719624996185303,-0.47616249322891235
1750560786455929900,4.398929931640625,3.6596999168395996,0.7000125050544739,-0.7804499864578247
1750560786465534500,4.408534423828125,3.889324903488159,0.8967750072479248,-1.1138875484466553
1750560786475139300,4.418139404296875,4.153187274932861,1.2168749570846558,-1.4144624471664429
1750560786484744000,4.427743896484375,4.517287254333496,1.5405499935150146,-1.5879875421524048
1750560786494348800,4.437348876953125,4.82886266708374,1.7531249523162842,-1.6990875005722046
1750560786503953400,4.446953369140625,4.924149990081787,1.8411250114440918,-1.8200874328613281
1750560786513558000,4.45655810546875,4.715149879455566,1.7506500482559204,-1.9483749866485596
1750560786523163000,4.466162841796875,4.035900115966797,1.4172124862670898,-2.0741875171661377
1750560786532767500,4.475767578125,3.057312488555908,0.8882499933242798,-2.148712396621704
1750560786542372000,4.4853720703125,2.015199899673462,0.16499999165534973,-2.0559000968933105
1750560786551977000,4.49497705078125,1.1356124877929688,-0.5619624853134155,-1.7602750062942505
1750560786561581600,4.50458154296875,0.5039374828338623,-0.9858750104904175,-1.3289375305175781
1750560786571186400,4.5141865234375,0.06544999778270721,-0.8820624947547913,-0.8867374658584595
1750560786580791300,4.523791259765625,-0.3096500039100647,-0.48496249318122864,-0.4736874997615814
1750560786590396000,4.53339599609375,-0.7017999887466431,-0.1942874938249588,-0.014437500387430191
1750560786600000500,4.54300048828125,-1.0451375246047974,0.002474999986588955,0.4987125098705292
1750560786609605400,4.55260546875,-1.3994749784469604,0.1868624985218048,0.9861499667167664
1750560786619210000,4.5622099609375,-1.8941999673843384,0.11728750169277191,1.4174875020980835
1750560786628814600,4.571814697265625,-2.5673999786376953,-0.28462499380111694,1.6911125183105469
1750560786638419500,4.58141943359375,-3.355412483215332,-0.7477250099182129,1.7595875263214111
1750560786648024000,4.591024169921875,-4.052949905395508,-0.9602999687194824,1.7106374502182007
1750560786657629000,4.60062890625,-4.4317626953125,-0.8112499713897705,1.642300009727478
1750560786667233800,4.61023388671875,-4.40728759765625,-0.5326749682426453,1.6618249416351318
1750560786676838400,4.61983837890625,-4.002900123596191,-0.14409999549388885,1.7656375169754028
1750560786686443000,4.629443115234375,-3.1843624114990234,0.22962500154972076,1.8951624631881714
1750560786696047900,4.6390478515625,-2.265587568283081,0.5876749753952026,1.9281624555587769
1750560786705652500,4.648652587890625,-1.6853375434875488,0.8307750225067139,1.7619249820709229
1750560786715257000,4.658257080078125,-1.520337462425232,0.6682500243186951,1.441825032234192
1750560786724862000,4.667862060546875,-1.5387624502182007,0.12099999934434891,1.01791250705719
1750560786734466600,4.677466552734375,-1.527762532234192,-0.5669124722480774,0.6001874804496765
1750560786744071400,4.687071533203125,-1.440999984741211,-1.1483999490737915,0.28132501244544983
1750560786753676000,4.696676025390625,-1.3054250478744507,-1.4207874536514282,0.07603749632835388
1750560786763280600,4.70628076171875,-1.155137538909912,-1.3462624549865723,-0.015537500381469727
1750560786772885500,4.715885498046875,-0.9693750143051147,-0.988349974155426,-0.010724999941885471
1750560786782490400,4.725490478515625,-0.7507500052452087,-0.44714999198913574,0.03451250120997429
1750560786792095000,4.735094970703125,-0.4636499881744385,0.01223750039935112,0.09308750182390213
1750560786801699800,4.744699951171875,-0.18878750503063202,0.25286251306533813,0.11027500033378601
1750560786811304400,4.754304443359375,-0.0017874999903142452,0.31033748388290405,0.02708750031888485
1750560786820909000,4.763908935546875,0.06655000150203705,0.26138749718666077,-0.11096250265836716
1750560786830513700,4.773513671875,0.03478749841451645,0.09157499670982361,-0.2147749960422516
1750560786840118500,4.783118408203125,-0.03355000168085098,-0.10752499848604202,-0.26358750462532043
1750560786849723100,4.79272314453125,-0.08607500046491623,-0.21381250023841858,-0.2685374915599823
1750560786859328000,4.802327880859375,-0.07150000333786011,-0.24433749914169312,-0.2330625057220459
1750560786868932600,4.8119326171875,0.0030249999836087227,-0.2320999950170517,-0.16458749771118164
1750560786878537500,4.821537353515625,0.12526249885559082,-0.0672374963760376,-0.11577499657869339
1750560786888142300,4.831142333984375,0.27431249618530273,0.2040500044822693,-0.0681999996304512
1750560786897747000,4.840746826171875,0.38183748722076416,0.38843750953674316,-0.009487500414252281
1750560786907351800,4.850351806640625,0.4184125065803528,0.38609999418258667,0.03451250120997429
1750560786916956400,4.859956298828125,0.38183748722076416,0.20652499794960022,0.035750001668930054
1750560786926561000,4.86956103515625,0.3011249899864197,-0.04399999976158142,-0.021724998950958252
1750560786936165600,4.87916552734375,0.22783750295639038,-0.22357499599456787,-0.11453749984502792
1750560786945770500,4.8887705078125,0.19359999895095825,-0.3786749839782715,-0.1755875051021576
1750560786955375000,4.898375,0.18383750319480896,-0.47891250252723694,-0.21230000257492065
1750560786964979700,4.907979736328125,0.15950000286102295,-0.4581499993801117,-0.2232999950647354
1750560786974584600,4.91758447265625,0.12402500212192535,-0.3018124997615814,-0.18301250040531158
1750560786984189200,4.927189208984375,0.11426249891519547,-0.10381250083446503,-0.09872499853372574
1750560786993794000,4.9367939453125,0.11797499656677246,-0.0037124999798834324,0.0015124999918043613
1750560787003399000,4.94639892578125,0.0849749967455864,0.025712499395012856,0.06627500057220459
1750560787013003500,4.95600341796875,0.03726249933242798,0.03904999792575836,0.08208750188350677
1750560787022608400,4.9656083984375,-0.0017874999903142452,0.04028749838471413,0.07232499867677689
1750560787032213000,4.975212890625,-0.048262499272823334,0.032999999821186066,0.06627500057220459
1750560787041817600,4.984817626953125,-0.11302500218153,0.0085249999538064,0.10532499849796295
1750560787051422500,4.99442236328125,-0.13983750343322754,0.002474999986588955,0.142037495970726
1750560787061027000,5.004027099609375,-0.10559999942779541,-0.01223750039935112,0.16637499630451202
1750560787070632000,5.0136318359375,-0.03355000168085098,-0.045237500220537186,0.15303750336170197
1750560787080236500,5.023236572265625,0.020212499424815178,-0.07576250284910202,0.0943249985575676
1750560787089841400,5.03284130859375,0.015262499451637268,-0.08676250278949738,0.025987500324845314
1750560787099446000,5.042446044921875,-0.036024998873472214,-0.0635249987244606,-0.015537500381469727
1750560787109051000,5.05205078125,-0.1093124970793724,-0.007287499960511923,-0.021724998950958252
1750560787118655500,5.061655517578125,-0.15702499449253082,0.07699999958276749,0.01251249946653843
1750560787128260000,5.071260009765625,-0.14836250245571136,0.15028749406337738,0.0906125009059906
1750560787137864700,5.08086474609375,-0.10449999570846558,0.16005000472068787,0.17256249487400055
1750560787147469600,5.090469482421875,-0.06173750013113022,0.1307625025510788,0.20432500541210175
1750560787157074400,5.100074462890625,-0.04702499881386757,0.05623750016093254,0.17379999160766602
1750560787166679000,5.109678955078125,-0.06778749823570251,-0.04881250113248825,0.0882750004529953
1750560787176283600,5.11928369140625,-0.10559999942779541,-0.1368124932050705,-0.010724999941885471
1750560787185888500,5.128888427734375,-0.13378749787807465,-0.18081249296665192,-0.07672499865293503
1750560787195493000,5.1384931640625,-0.13007499277591705,-0.18205000460147858,-0.08401250094175339
1750560787205098000,5.148097900390625,-0.08483749628067017,-0.1307625025510788,-0.05348749831318855
1750560787214702600,5.15770263671875,-0.021312499418854713,-0.08057499676942825,-0.007012499962002039
1750560787224307500,5.167307373046875,0.03726249933242798,-0.04881250113248825,0.038087498396635056
1750560787243516700,5.1865166015625,0.03478749841451645,0.02199999988079071,0.10051249712705612
1750560787253121500,5.19612158203125,0.0006874999962747097,0.028049999848008156,0.1260875016450882
1750560787262726100,5.20572607421875,-0.04207500070333481,0.00976249948143959,0.1297999918460846
1750560787272331000,5.2153310546875,-0.07631249725818634,-0.007287499960511923,0.11151249706745148
1750560787281935600,5.224935546875,-0.08249999582767487,-0.01347499992698431,0.06875000149011612
1750560787291540500,5.23454052734375,-0.0835999995470047,-0.042762499302625656,0.03203750029206276
1750560787301145300,5.244145263671875,-0.08483749628067017,-0.05623750016093254,-0.0034374999813735485
1750560787310750000,5.25375,-0.08483749628067017,-0.047712501138448715,-0.011962499469518661
1750560787320354600,5.2633544921875,-0.08978749811649323,-0.023237500339746475,0.013749999925494194
1750560787329959200,5.272959228515625,-0.08249999582767487,-0.006049999967217445,0.04675000160932541
1750560787339564000,5.28256396484375,-0.05678749829530716,-0.0147124994546175,0.055275000631809235
1750560787349168600,5.292168701171875,-0.02502499893307686,-0.035475000739097595,0.01732499897480011
1750560787358773500,5.3017734375,0.0030249999836087227,-0.059812501072883606,-0.04001250118017197
1750560787368378000,5.311378173828125,0.016499999910593033,-0.08552499860525131,-0.08277499675750732
1750560787377983000,5.32098291015625,0.0042624999769032,-0.09033749997615814,-0.09377499669790268
1750560787387587800,5.330587890625,-0.026262499392032623,-0.054999999701976776,-0.06572499871253967
1750560787397192400,5.3401923828125,-0.05926249921321869,0.007287499960511923,-0.010724999941885471
1750560787406797000,5.349797119140625,-0.06655000150203705,0.04152499884366989,0.04908749833703041
1750560787416402000,5.35940185546875,-0.045787498354911804,0.0147124994546175,0.0943249985575676
1750560787426006800,5.3690068359375,-0.011549999937415123,-0.042762499302625656,0.10051249712705612
1750560787435611100,5.378611083984375,0.012787500396370888,-0.08676250278949738,0.07232499867677689
1750560787445216000,5.388216064453125,0.005499999970197678,-0.10876250267028809,0.03698749840259552
1750560787454820900,5.39782080078125,-0.018975000828504562,-0.11233749985694885,0.030799999833106995
1750560787464425500,5.407425537109375,-0.04455000162124634,-0.07823749631643295,0.047987498342990875
1750560787474030300,5.4170302734375,-0.06173750013113022,-0.025712499395012856,0.06132499873638153
1750560787483635000,5.426635009765625,-0.060499999672174454,0.02199999988079071,0.0625625029206276
1750560787493239800,5.43623974609375,-0.05678749829530716,0.05252499878406525,0.04179999977350235
1750560787502844400,5.445844482421875,-0.060499999672174454,0.04399999976158142,0.01732499897480011
1750560787512449300,5.45544921875,-0.07026249915361404,0.00494999997317791,0.003987499978393316
1750560787522054000,5.465053955078125,-0.06531249731779099,-0.03904999792575836,0.013749999925494194
1750560787531658800,5.47465869140625,-0.05431250110268593,-0.05376249924302101,0.030799999833106995
1750560787541263400,5.484263427734375,-0.04207500070333481,-0.04152499884366989,0.047987498342990875
1750560787550868000,5.493867919921875,-0.04207500070333481,-0.0147124994546175,0.0625625029206276
1750560787560473000,5.50347314453125,-0.04702499881386757,0.035475000739097595,0.06627500057220459
1750560787570077700,5.51307763671875,-0.06531249731779099,0.09652499854564667,0.050324998795986176
1750560787579682300,5.522682373046875,-0.0775500014424324,0.13557499647140503,0.01979999989271164
1750560787589287200,5.532287109375,-0.06531249731779099,0.14176249504089355,-0.0057749999687075615
1750560787598891800,5.541891845703125,-0.03726249933242798,0.08428750187158585,-0.02419999986886978
1750560787608496400,5.551496337890625,-0.0030249999836087227,0.023237500339746475,-0.04619999974966049
1750560787618101200,5.561101318359375,0.018975000828504562,-0.045237500220537186,-0.05596249923110008
1750560787627706000,5.5707060546875,0.023787500336766243,-0.1307625025510788,-0.04619999974966049
1750560787637310700,5.580310791015625,0.014024999924004078,-0.17476250231266022,-0.04496249929070473
1750560787646915600,5.58991552734375,-0.007974999956786633,-0.16128750145435333,-0.05101250112056732
1750560787656520200,5.599520263671875,-0.03478749841451645,-0.10876250267028809,-0.05719999969005585
1750560787666124800,5.609124755859375,-0.04455000162124634,-0.018287500366568565,-0.0644875019788742
1750560787675729700,5.618729736328125,-0.036024998873472214,0.0695749968290329,-0.05829999968409538
1750560787685334300,5.628334228515625,-0.027499999850988388,0.1050499975681305,-0.04124999791383743
1750560787694939000,5.63793896484375,-0.02502499893307686,0.10023749619722366,-0.030249999836087227
1750560787704543700,5.647543701171875,-0.028737500309944153,0.057475000619888306,-0.022962499409914017
1750560787714148400,5.6571484375,-0.029975000768899918,-0.0012374999932944775,-0.021724998950958252
1750560787723753000,5.6667529296875,-0.031075000762939453,-0.06599999964237213,-0.018012499436736107
1750560787733357800,5.67635791015625,-0.018975000828504562,-0.12099999934434891,-0.014437500387430191
1750560787742962400,5.68596240234375,0.0017874999903142452,-0.12828749418258667,-0.02419999986886978
1750560787752567300,5.6955673828125,-0.005499999970197678,-0.09776250272989273,-0.04496249929070473
1750560787762172200,5.705172119140625,-0.0518375001847744,-0.04399999976158142,-0.06077500060200691
1750560787771776800,5.71477685546875,-0.10683749616146088,0.04028749838471413,-0.05953750014305115
1750560787781381600,5.724381591796875,-0.13626250624656677,0.11481250077486038,-0.026537500321865082
1750560787790986200,5.733986328125,-0.13859999179840088,0.13433749973773956,0.021037500351667404
1750560787800590800,5.7435908203125,-0.10202500224113464,0.07947500050067902,0.057750001549720764
1750560787810195700,5.75319580078125,-0.05555000156164169,0.01347499992698431,0.060087498277425766
1750560787819800300,5.76280029296875,-0.018975000828504562,-0.05376249924302101,0.04908749833703041
1750560787829405200,5.7724052734375,-0.007974999956786633,-0.0952875018119812,0.018562499433755875
1750560787839010000,5.782010009765625,-0.028737500309944153,-0.08923749625682831,-0.022962499409914017
1750560787848614700,5.79161474609375,-0.05678749829530716,-0.06847500056028366,-0.04001250118017197
1750560787858219300,5.80121923828125,-0.07507500052452087,-0.047712501138448715,-0.03148749843239784
1750560787867824000,5.81082421875,-0.09102500230073929,-0.032999999821186066,-0.015537500381469727
1750560787877429000,5.820428955078125,-0.09955000132322311,-0.023237500339746475,-0.0034374999813735485
1750560787887033600,5.83003369140625,-0.08855000138282776,-0.025712499395012856,0.002749999985098839
1750560787896638200,5.83963818359375,-0.06531249731779099,-0.05376249924302101,0.013749999925494194
1750560787906242800,5.849242919921875,-0.04455000162124634,-0.08304999768733978,0.023512499406933784
1750560787915847700,5.85884765625,-0.03849999979138374,-0.1013374999165535,0.02708750031888485
1750560787925452300,5.868452392578125,-0.04207500070333481,-0.09033749997615814,0.01732499897480011
1750560787935057200,5.87805712890625,-0.060499999672174454,-0.03423750028014183,0.0015124999918043613
1750560787944661800,5.887661865234375,-0.08249999582767487,0.028049999848008156,-0.014437500387430191
1750560787954266600,5.8972666015625,-0.09226249903440475,0.08428750187158585,-0.03396249935030937
1750560787963871500,5.90687158203125,-0.08607500046491623,0.11728750169277191,-0.05101250112056732
1750560787973476000,5.91647607421875,-0.06778749823570251,0.11852499842643738,-0.05348749831318855
1750560787983080700,5.926080810546875,-0.03849999979138374,0.08799999952316284,-0.04124999791383743
1750560787992685600,5.935685546875,-0.022549999877810478,0.020762499421834946,-0.013199999928474426
1750560788002290200,5.945290283203125,-0.02502499893307686,-0.05376249924302101,0.007562499959021807
1750560788011895000,5.95489501953125,-0.028737500309944153,-0.0989999994635582,0.014987500384449959
1750560788021499600,5.964499755859375,-0.026262499392032623,-0.10381250083446503,0.016224998980760574
1750560788031104500,5.9741044921875,-0.007974999956786633,-0.07823749631643295,0.016224998980760574
1750560788040709400,5.98370947265625,0.0030249999836087227,-0.025712499395012856,0.014987500384449959
1750560788050314000,5.99331396484375,-0.005499999970197678,0.03671250119805336,0.014987500384449959
1750560788059918800,6.0029189453125,-0.02502499893307686,0.07328750193119049,0.01732499897480011
1750560788069523500,6.0125234375,-0.048262499272823334,0.054999999701976776,0.018562499433755875
1750560788079128000,6.022128173828125,-0.05431250110268593,0.0085249999538064,0.007562499959021807
1750560788088733000,6.03173291015625,-0.036024998873472214,-0.047712501138448715,-0.004674999974668026
1750560788098337500,6.041337646484375,-0.005499999970197678,-0.09776250272989273,-0.01677500084042549
1750560788107942100,6.050942138671875,0.017737500369548798,-0.11976250261068344,-0.03148749843239784
1750560788117547000,6.060547119140625,0.023787500336766243,-0.09404999762773514,-0.04743750020861626
1750560788127151900,6.07015185546875,0.005499999970197678,-0.0317624993622303,-0.05101250112056732
1750560788136756500,6.079756591796875,-0.03231250122189522,0.045237500220537186,-0.02419999986886978
1750560788146361000,6.089361083984375,-0.06407500058412552,0.11976250261068344,0.033275000751018524
1750560788155966000,6.098966064453125,-0.07026249915361404,0.14904999732971191,0.0906125009059906
1750560788165570600,6.108570556640625,-0.058024998754262924,0.11123749613761902,0.10656250268220901
1750560788175175400,6.118175537109375,-0.04702499881386757,0.06599999964237213,0.07851249724626541
1750560788184780000,6.127780029296875,-0.03726249933242798,0.037812501192092896,0.021037500351667404
1750560788194385000,6.137385009765625,-0.023787500336766243,0.0317624993622303,-0.029012499377131462
1750560788203989500,6.146989501953125,-0.005499999970197678,0.023237500339746475,-0.04619999974966049
1750560788213594400,6.156594482421875,0.009212499484419823,0.02199999988079071,-0.03519999980926514
1750560788223199200,6.16619921875,0.010449999943375587,0.0085249999538064,-0.009487500414252281
1750560788232803800,6.175803955078125,-0.007974999956786633,0.01223750039935112,0.0002749999985098839
1750560788242408400,6.185408447265625,-0.02502499893307686,0.01347499992698431,-0.009487500414252281
1750560788252013300,6.195013427734375,-0.026262499392032623,0.01223750039935112,-0.021724998950958252
1750560788261618000,6.204617919921875,-0.016499999910593033,0.010999999940395355,-0.013199999928474426
1750560788271222800,6.214222900390625,-0.011549999937415123,-0.0170499999076128,0.02227500081062317
1750560788280827600,6.22382763671875,-0.015262499451637268,-0.03423750028014183,0.05884999781847
1750560788290432500,6.2334326171875,-0.026262499392032623,-0.04152499884366989,0.06984999775886536
1750560788300037000,6.243037109375,-0.02502499893307686,-0.04152499884366989,0.050324998795986176
1750560788309641700,6.252641845703125,-0.018975000828504562,-0.04881250113248825,0.011274999938905239
1750560788319246300,6.262246337890625,-0.021312499418854713,-0.06599999964237213,-0.022962499409914017
1750560788328851200,6.271851318359375,-0.036024998873472214,-0.06104999780654907,-0.04372499883174896
1750560788338455800,6.281455810546875,-0.05678749829530716,-0.042762499302625656,-0.0364375002682209
1750560788348060700,6.291060791015625,-0.07631249725818634,-0.023237500339746475,-0.021724998950958252
1750560788357665300,6.300665283203125,-0.10326249897480011,-0.04399999976158142,-0.009487500414252281
1750560788367270000,6.310269775390625,-0.11659999936819077,-0.045237500220537186,-0.01677500084042549
1750560788376874800,6.319874755859375,-0.12278749793767929,-0.0170499999076128,-0.021724998950958252
1750560788386479400,6.329479248046875,-0.12636250257492065,0.030524998903274536,-0.011962499469518661
1750560788396084200,6.339084228515625,-0.11302500218153,0.12333749979734421,0.01979999989271164
1750560788405689000,6.348689208984375,-0.07878749817609787,0.21752500534057617,0.07851249724626541
1750560788415293700,6.358293701171875,-0.007974999956786633,0.23704999685287476,0.13461250066757202
1750560788424898300,6.367898193359375,0.07026249915361404,0.18576249480247498,0.13461250066757202
1750560788434503200,6.377503173828125,0.116737499833107,0.12581250071525574,0.06984999775886536
1750560788444107800,6.387107666015625,0.1387374997138977,0.08428750187158585,-0.020487500354647636
1750560788453712600,6.396712646484375,0.21449999511241913,0.0952875018119812,-0.08153750002384186
1750560788463317200,6.406317138671875,0.3866499960422516,0.10628750175237656,-0.04001250118017197
1750560788472922000,6.415922119140625,0.6786999702453613,0.19786250591278076,0.08084999769926071
1750560788482526700,6.425526611328125,1.2346124649047852,0.45319998264312744,0.24461250007152557
1750560788492131600,6.435131591796875,2.0347249507904053,0.9235875010490417,0.3643749952316284
1750560788501736400,6.444736328125,2.9082624912261963,1.635837435722351,0.328900009393692
1750560788511341000,6.454341064453125,3.673037528991699,2.338325023651123,0.21889999508857727
1750560788520945700,6.463945556640625,4.221662521362305,2.7379000186920166,0.10284999758005142
1750560788530550500,6.473550537109375,4.538050174713135,2.7829999923706055,-0.06324999779462814
1750560788540155100,6.483155029296875,4.5245747566223145,2.577850103378296,-0.2611125111579895
1750560788549759700,6.492759765625,4.337712287902832,2.351799964904785,-0.43834999203681946
1750560788559364600,6.502364501953125,4.110424995422363,2.296799898147583,-0.6117374897003174
1750560788568969200,6.51196923828125,3.818512439727783,2.321274995803833,-0.7327374815940857
1750560788578573800,6.52157373046875,3.4116499423980713,2.24180006980896,-0.8232125043869019
1750560788588179000,6.531178955078125,2.822737455368042,1.9351749420166016,-0.9575499892234802
1750560788597783600,6.540783447265625,2.1190125942230225,1.3047374486923218,-0.997837483882904
1750560788607388400,6.550388427734375,1.4507625102996826,0.4203374981880188,-0.870787501335144
1750560788616993000,6.559992919921875,0.9120374917984009,-0.3335750102996826,-0.6912124752998352
1750560788626598000,6.569597900390625,0.5626500248908997,-0.6670125126838684,-0.5726875066757202
1750560788636202500,6.579202392578125,0.3964124917984009,-0.5607249736785889,-0.5262125134468079
1750560788645807000,6.58880712890625,0.3830749988555908,-0.3041499853134155,-0.46639999747276306
1750560788655412000,6.598411865234375,0.46488749980926514,0.0085249999538064,-0.3601124882698059
1750560788665016600,6.6080166015625,0.5101249814033508,0.1868624985218048,-0.19882500171661377
1750560788674621200,6.61762109375,0.43312498927116394,0.21986250579357147,-0.030249999836087227
1750560788684226000,6.62722607421875,0.22055000066757202,0.15633749961853027,0.10284999758005142
1750560788693831000,6.636830810546875,-0.12526249885559082,0.007287499960511923,0.2055625021457672
1750560788703435500,6.646435546875,-0.5479375123977661,-0.16981250047683716,0.26785001158714294
1750560788713040400,6.656040283203125,-0.9938499927520752,-0.37014999985694885,0.28613749146461487
1750560788722645200,6.665645263671875,-1.440999984741211,-0.5339124798774719,0.2616625130176544
1750560788732249900,6.675249755859375,-1.8563874959945679,-0.6572499871253967,0.19580000638961792
1750560788741854500,6.6848544921875,-2.2155375480651855,-0.9101125001907349,0.10408750176429749
1750560788751459300,6.694459228515625,-2.6113998889923096,-1.4574999809265137,0.002749999985098839
1750560788761064000,6.70406396484375,-3.040262460708618,-2.091512441635132,-0.14630000293254852
1750560788770668800,6.713668701171875,-3.421412467956543,-2.5496625900268555,-0.3405874967575073
1750560788780273400,6.7232734375,-3.668225049972534,-2.7231874465942383,-0.5372124910354614
1750560788789878300,6.732878173828125,-3.7768499851226807,-2.5753750801086426,-0.6654999852180481
1750560788799483100,6.742483154296875,-3.5532748699188232,-1.9327000379562378,-0.6887375116348267
1750560788809087700,6.752087646484375,-2.918025016784668,-0.9113500118255615,-0.5812125205993652
1750560788818692400,6.7616923828125,-2.207012414932251,0.057475000619888306,-0.3443000018596649
1750560788828297000,6.771296875,-1.6718624830245972,0.5766749978065491,-0.05596249923110008
1750560788837902000,6.780902099609375,-1.4275250434875488,0.4398624897003174,0.20308749377727509
1750560788847506700,6.790506591796875,-1.4568125009536743,-0.032999999821186066,0.35337498784065247
1750560788857111600,6.800111572265625,-1.6596249341964722,-0.559487521648407,0.3863750100135803
1750560788866716200,6.809716064453125,-1.9223874807357788,-0.9956374764442444,0.36684998869895935
1750560788876320800,6.81932080078125,-2.0616750717163086,-1.3182125091552734,0.3546124994754791
1750560788885925600,6.828925537109375,-1.9406750202178955,-1.3377374410629272,0.383899986743927
1750560788895530200,6.8385302734375,-1.4825249910354614,-0.8893499970436096,0.4437125027179718
1750560788905135000,6.848135009765625,-0.8863250017166138,-0.15757499635219574,0.5354250073432922
1750560788914739700,6.85773974609375,-0.4184125065803528,0.43738749623298645,0.6050000190734863
1750560788924344300,6.86734423828125,-0.18878750503063202,0.5644375085830688,0.5989499688148499
1750560788933949400,6.876949462890625,-0.14836250245571136,0.39338749647140503,0.4694249927997589
1750560788943554000,6.886553955078125,-0.23388749361038208,-0.02681249938905239,0.2470874935388565
1750560788953159000,6.896158935546875,-0.3793624937534332,-0.48743748664855957,-0.015537500381469727
1750560788962763500,6.905763427734375,-0.5332249999046326,-0.7220125198364258,-0.2012999951839447
1750560788972368100,6.9153681640625,-0.6272749900817871,-0.6462500095367432,-0.23801249265670776
1750560788981973000,6.924972900390625,-0.5919374823570251,-0.38733750581741333,-0.1120624989271164
1750560788991577600,6.93457763671875,-0.41593748331069946,-0.10023749619722366,0.12732499837875366
1750560789001182200,6.94418212890625,-0.15702499449253082,0.23952500522136688,0.36313748359680176
1750560789010787000,6.953787109375,0.03478749841451645,0.41909998655319214,0.510949969291687
1750560789020391700,6.9633916015625,0.0812624990940094,0.4203374981880188,0.49018749594688416
1750560789029996500,6.97299658203125,0.03244999796152115,0.32010000944137573,0.3460874855518341
1750560789039601400,6.982601318359375,-0.06778749823570251,0.15757499635219574,0.17379999160766602
1750560789049206000,6.9922060546875,-0.1508374959230423,-0.006049999967217445,0.02474999986588955
1750560789058811000,7.001810791015625,-0.17159999907016754,-0.09157499670982361,-0.0681999996304512
1750560789068415500,7.01141552734375,-0.13378749787807465,-0.11976250261068344,-0.09501250088214874
1750560789078020400,7.021020263671875,-0.0494999997317791,-0.0989999994635582,-0.06572499871253967
1750560789087625000,7.030625,0.03726249933242798,-0.05857500061392784,0.0015124999918043613
1750560789097229800,7.040229736328125,0.10078749805688858,-0.030524998903274536,0.06503749638795853
1750560789106834400,7.04983447265625,0.11426249891519547,0.007287499960511923,0.08703749626874924
1750560789116439300,7.059439208984375,0.11055000126361847,0.05252499878406525,0.07479999959468842
1750560789126044000,7.0690439453125,0.09473749995231628,0.12581250071525574,0.052799999713897705
1750560789135648800,7.078648681640625,0.09350000321865082,0.2125750035047531,0.02227500081062317
1750560789145253400,7.08825341796875,0.06544999778270721,0.24186250567436218,0.021037500351667404
1750560789154858200,7.097858154296875,0.022687500342726707,0.20652499794960022,0.038087498396635056
1750560789164462800,7.107462890625,-0.010312499478459358,0.14409999549388885,0.040562499314546585
1750560789174067700,7.117067626953125,0.0042624999769032,0.020762499421834946,0.023512499406933784
1750560789183672300,7.12667236328125,0.05197500064969063,-0.13928750157356262,-0.014437500387430191
1750560789193277000,7.13627685546875,0.0812624990940094,-0.19304999709129333,-0.0705375000834465
1750560789202881800,7.1458818359375,0.08249999582767487,-0.13199999928474426,-0.1023000031709671
1750560789212486400,7.155486328125,0.04455000162124634,-0.023237500339746475,-0.07177499681711197
1750560789222091500,7.165091552734375,-0.010312499478459358,0.09047500044107437,0.0002749999985098839
1750560789231696100,7.174696044921875,-0.058024998754262924,0.20652499794960022,0.07851249724626541
1750560789241300700,7.18430078125,-0.06173750013113022,0.27486249804496765,0.1358499974012375
1750560789250905600,7.193905517578125,-0.04331250116229057,0.2578125,0.16032500565052032
1750560789260510200,7.20351025390625,-0.011549999937415123,0.17104999721050262,0.13227500021457672
1750560789270114800,7.21311474609375,0.026262499392032623,0.07452499866485596,0.06132499873638153
1750560789279719700,7.2227197265625,0.04097500070929527,-0.08923749625682831,-0.0009624999947845936
1750560789289324500,7.232324462890625,0.012787500396370888,-0.2578125,-0.04001250118017197
1750560789298929400,7.241929443359375,-0.022549999877810478,-0.32133749127388,-0.07301250100135803
1750560789308534000,7.251533935546875,-0.036024998873472214,-0.3053874969482422,-0.07672499865293503
1750560789318138600,7.261138671875,-0.017737500369548798,-0.21381250023841858,-0.05348749831318855
1750560789327743500,7.270743408203125,-0.0017874999903142452,-0.05252499878406525,-0.014437500387430191
1750560789337348400,7.280348388671875,-0.0017874999903142452,0.1307625025510788,0.03203750029206276
1750560789346953000,7.289952880859375,0.006737499963492155,0.2320999950170517,0.08579999953508377
1750560789356557600,7.2995576171875,0.0030249999836087227,0.18933749198913574,0.12856249511241913
1750560789366162200,7.309162109375,-0.020075000822544098,0.07328750193119049,0.11879999935626984
1750560789375767300,7.318767333984375,-0.03726249933242798,-0.030524998903274536,0.07479999959468842
1750560789385372000,7.328371826171875,-0.036024998873472214,-0.1050499975681305,0.045512501150369644
1750560789394976500,7.3379765625,-0.006737499963492155,-0.10876250267028809,0.0015124999918043613
1750560789404581400,7.347581298828125,0.023787500336766243,-0.08428750187158585,-0.04977500066161156
1750560789414186000,7.35718603515625,0.03849999979138374,-0.10876250267028809,-0.06572499871253967
1750560789423790800,7.366790771484375,0.018975000828504562,-0.16005000472068787,-0.06929999589920044
1750560789433395500,7.3763955078125,-0.028737500309944153,-0.17833749949932098,-0.08153750002384186
1750560789443000000,7.386,-0.06283749639987946,-0.1588124930858612,-0.09129999577999115
1750560789452605000,7.39560498046875,-0.05678749829530716,-0.13805000483989716,-0.07177499681711197
1750560789462209800,7.405209716796875,-0.03231250122189522,-0.0635249987244606,-0.05348749831318855
1750560789471814700,7.414814697265625,-0.010312499478459358,0.05128749832510948,-0.020487500354647636
1750560789481419300,7.424419189453125,-0.020075000822544098,0.14533749222755432,0.021037500351667404
1750560789491024000,7.43402392578125,-0.04702499881386757,0.18205000460147858,0.057750001549720764
1750560789500628700,7.443628662109375,-0.07150000333786011,0.14904999732971191,0.06984999775886536
1750560789510233300,7.4532333984375,-0.07259999960660934,0.06228749826550484,0.04675000160932541
1750560789519838200,7.462838134765625,-0.06407500058412552,-0.028049999848008156,0.002749999985098839
1750560789529442800,7.47244287109375,-0.05431250110268593,-0.08428750187158585,-0.05719999969005585
1750560789539047700,7.482047607421875,-0.04207500070333481,-0.09157499670982361,-0.09253749996423721
1750560789548652300,7.49165234375,-0.03726249933242798,-0.07328750193119049,-0.0644875019788742
1750560789558257400,7.50125732421875,-0.03231250122189522,-0.07204999774694443,0.003987499978393316
1750560789567861800,7.51086181640625,-0.029975000768899918,-0.08676250278949738,0.07108750194311142
1750560789577466600,7.520466552734375,-0.029975000768899918,-0.06228749826550484,0.09927500039339066
1750560789587071500,7.530071533203125,-0.03849999979138374,-0.0012374999932944775,0.09556250274181366
1750560789596676000,7.539676025390625,-0.053075000643730164,0.05128749832510948,0.08579999953508377
1750560789606280700,7.54928076171875,-0.0775500014424324,0.09281250089406967,0.07603749632835388
1750560789615885600,7.558885498046875,-0.09955000132322311,0.10752499848604202,0.07356250286102295
1750560789625490200,7.568490234375,-0.10449999570846558,0.057475000619888306,0.06627500057220459
1750560789635094800,7.5780947265625,-0.09226249903440475,-0.054999999701976776,0.03451250120997429
1750560789644699600,7.58769970703125,-0.07150000333786011,-0.14533749222755432,-0.025437500327825546
1750560789654304500,7.597304443359375,-0.0494999997317791,-0.1551000028848648,-0.09872499853372574
1750560789663909400,7.606909423828125,-0.022549999877810478,-0.1050499975681305,-0.15729999542236328
1750560789673514000,7.616513916015625,0.005499999970197678,-0.023237500339746475,-0.1732500046491623
1750560789683118600,7.62611865234375,0.010449999943375587,0.035475000739097595,-0.12430000305175781
1750560789692723500,7.635723388671875,0.0030249999836087227,0.032999999821186066,-0.05224999785423279
1750560789702328000,7.645328125,-0.017737500369548798,-0.0085249999538064,-0.0057749999687075615
1750560789711933000,7.654932861328125,-0.03231250122189522,-0.04647500067949295,0.018562499433755875
1750560789721537500,7.66453759765625,-0.031075000762939453,-0.05252499878406525,0.02474999986588955
1750560789731142400,7.674142333984375,-0.014024999924004078,-0.023237500339746475,0.02227500081062317
1750560789740747300,7.683747314453125,0.0017874999903142452,0.030524998903274536,0.011274999938905239
1750560789750352000,7.693351806640625,0.0017874999903142452,0.07452499866485596,0.003987499978393316
1750560789759956700,7.702956787109375,-0.011549999937415123,0.06228749826550484,0.005224999971687794
1750560789769561300,7.712561279296875,-0.02502499893307686,0.0085249999538064,0.006324999965727329
1750560789779166000,7.722166015625,-0.03478749841451645,-0.06599999964237213,0.0002749999985098839
1750560789788770800,7.731770751953125,-0.03355000168085098,-0.11976250261068344,-0.011962499469518661
1750560789798375400,7.74137548828125,-0.028737500309944153,-0.12457499653100967,-0.029012499377131462
1750560789807980300,7.750980224609375,-0.022549999877810478,-0.07699999958276749,-0.03148749843239784
1750560789817585200,7.760585205078125,-0.015262499451637268,0,-0.0009624999947845936
1750560789827190000,7.77018994140625,-0.012787500396370888,0.06104999780654907,0.055275000631809235
1750560789836794400,7.77979443359375,-0.011549999937415123,0.08676250278949738,0.08951249718666077
1750560789846399200,7.789399169921875,-0.021312499418854713,0.06599999964237213,0.08579999953508377
1750560789856004000,7.799004150390625,-0.03231250122189522,0.010999999940395355,0.04427500069141388
1750560789865608700,7.808608642578125,-0.04207500070333481,-0.03671250119805336,-0.011962499469518661
1750560789875213300,7.81821337890625,-0.0494999997317791,-0.037812501192092896,-0.05596249923110008
1750560789884818200,7.827818115234375,-0.058024998754262924,0.0147124994546175,-0.0644875019788742
1750560789894422800,7.8374228515625,-0.07259999960660934,0.08181250095367432,-0.026537500321865082
1750560789904027600,7.847027587890625,-0.0812624990940094,0.1013374999165535,0.02956249937415123
1750560789913632300,7.85663232421875,-0.07631249725818634,0.05871250107884407,0.060087498277425766
1750560789923237000,7.866237060546875,-0.06531249731779099,-0.0012374999932944775,0.040562499314546585
1750560789932842000,7.875842041015625,-0.04455000162124634,-0.03671250119805336,-0.009487500414252281
1750560789942446600,7.885446533203125,-0.018975000828504562,-0.02681249938905239,-0.0644875019788742
1750560789952051500,7.895051513671875,0.0006874999962747097,0.01347499992698431,-0.09748750180006027
1750560789961656000,7.904656005859375,0.015262499451637268,0.0672374963760376,-0.09006249904632568
1750560789971260700,7.9142607421875,0.027499999850988388,0.10628750175237656,-0.04619999974966049
1750560789980865500,7.923865478515625,0.031212499365210533,0.09776250272989273,0.008799999952316284
1750560789990470400,7.933470458984375,0.02502499893307686,0.054999999701976776,0.03698749840259552
1750560790000075000,7.943074951171875,0.029975000768899918,0.002474999986588955,0.03932499885559082
1750560790009680000,7.952679931640625,0.03726249933242798,-0.025712499395012856,0.01979999989271164
1750560790019284500,7.962284423828125,0.03973750025033951,-0.028049999848008156,0.0015124999918043613
1750560790028889300,7.971889404296875,0.028737500309944153,-0.023237500339746475,0.016224998980760574
1750560790038494000,7.981493896484375,0.02502499893307686,-0.02447500079870224,0.052799999713897705
1750560790048098800,7.991098876953125,0.027499999850988388,-0.0317624993622303,0.08579999953508377
1750560790057703400,8.000703369140625,0.022687500342726707,-0.03423750028014183,0.0882750004529953
1750560790067308300,8.010308349609375,0.012787500396370888,-0.025712499395012856,0.06627500057220459
1750560790076913000,8.019912841796875,0.007974999956786633,-0.006049999967217445,0.02956249937415123
1750560790086517800,8.029517822265625,0.0042624999769032,0.02199999988079071,-0.008249999955296516
1750560790096122600,8.03912255859375,-0.0042624999769032,0.054999999701976776,-0.03148749843239784
1750560790105727200,8.048727294921875,-0.020075000822544098,0.06476250290870667,-0.025437500327825546
1750560790115332000,8.05833203125,-0.036024998873472214,0.047712501138448715,-0.010724999941885471
1750560790124936700,8.067936767578125,-0.04331250116229057,0.0012374999932944775,-0.007012499962002039
1750560790134541300,8.077541259765624,-0.03726249933242798,-0.04647500067949295,-0.021724998950958252
1750560790144146200,8.087146240234375,-0.021312499418854713,-0.06476250290870667,-0.05348749831318855
1750560790153750800,8.096750732421874,-0.010312499478459358,-0.045237500220537186,-0.07919999957084656
1750560790163355400,8.10635546875,-0.011549999937415123,0.00494999997317791,-0.07919999957084656
1750560790172960500,8.11596044921875,-0.026262499392032623,0.08304999768733978,-0.04619999974966049
1750560790182565400,8.1255654296875,-0.03355000168085098,0.1527625024318695,0.01251249946653843
1750560790192170000,8.135169921875,-0.023787500336766243,0.1942874938249588,0.06503749638795853
1750560790201774600,8.144774658203126,-0.014024999924004078,0.16499999165534973,0.08579999953508377
1750560790211379500,8.15437939453125,-0.0005499999970197678,0.1050499975681305,0.06627500057220459
1750560790220984000,8.163984130859374,0.007974999956786633,0.02447500079870224,0.028324998915195465
1750560790230588700,8.173588623046875,0.006737499963492155,-0.04881250113248825,-0.014437500387430191
1750560790240193500,8.183193603515624,0.014024999924004078,-0.0695749968290329,-0.04853750020265579
1750560790249798400,8.19279833984375,0.012787500396370888,-0.05252499878406525,-0.05472499877214432
1750560790259403000,8.202403076171874,0.005499999970197678,-0.020762499421834946,-0.03519999980926514
1750560790269008000,8.2120078125,-0.0005499999970197678,0.02199999988079071,-0.008249999955296516
1750560790278612500,8.221612548828125,-0.009074999950826168,0.0635249987244606,0.008799999952316284
1750560790288217300,8.23121728515625,-0.011549999937415123,0.1050499975681305,0.005224999971687794
1750560790297822000,8.240822021484375,-0.006737499963492155,0.12333749979734421,-0.009487500414252281
1750560790307426800,8.2504267578125,-0.0030249999836087227,0.07947500050067902,-0.007012499962002039
1750560790317031400,8.260031494140625,0.0017874999903142452,-0.002474999986588955,0.005224999971687794
1750560790326636000,8.269635986328124,0.0030249999836087227,-0.08676250278949738,0.008799999952316284
1750560790336241000,8.279240966796875,0.0006874999962747097,-0.14300000667572021,-0.0009624999947845936
1750560790345845800,8.288845703125,-0.011549999937415123,-0.1307625025510788,-0.020487500354647636
1750560790355450400,8.298450439453125,-0.031075000762939453,-0.04881250113248825,-0.03396249935030937
1750560790365055200,8.30805517578125,-0.04702499881386757,0.06847500056028366,-0.029012499377131462
1750560790374659800,8.317659912109375,-0.05555000156164169,0.18809999525547028,0.005224999971687794
1750560790384264700,8.3272646484375,-0.05431250110268593,0.2358125001192093,0.06751249730587006
1750560790393869300,8.336869384765626,-0.04702499881386757,0.17710000276565552,0.10532499849796295
1750560790403474200,8.34647412109375,-0.036024998873472214,0.06228749826550484,0.08084999769926071
1750560790413078800,8.356078857421876,-0.03973750025033951,-0.09652499854564667,0.02227500081062317
1750560790422683400,8.365683349609375,-0.036024998873472214,-0.18081249296665192,-0.05101250112056732
1750560790432288300,8.375288330078124,-0.020075000822544098,-0.1648624986410141,-0.09501250088214874
1750560790441893000,8.38489306640625,-0.006737499963492155,-0.09033749997615814,-0.08648750185966492
1750560790451498000,8.394498046875,-0.009074999950826168,0.05004999786615372,-0.030249999836087227
1750560790461102600,8.4041025390625,-0.020075000822544098,0.1942874938249588,0.055275000631809235
1750560790470707200,8.413707275390625,-0.011549999937415123,0.2700499892234802,0.12251249700784683
1750560790480312000,8.42331201171875,0.012787500396370888,0.22357499599456787,0.13708749413490295
1750560790489916700,8.432916748046875,0.031212499365210533,0.08799999952316284,0.0906125009059906
1750560790499521500,8.442521484375,0.03478749841451645,-0.045237500220537186,0.0015124999918043613
1750560790509126400,8.45212646484375,0.014024999924004078,-0.14533749222755432,-0.08896250277757645
1750560790518731000,8.46173095703125,-0.0042624999769032,-0.21133749186992645,-0.13529999554157257
1750560790528335600,8.471335693359375,-0.015262499451637268,-0.21133749186992645,-0.13048750162124634
1750560790537940500,8.4809404296875,-0.021312499418854713,-0.14657500386238098,-0.08277499675750732
1750560790547545300,8.49054541015625,-0.017737500369548798,-0.05623750016093254,-0.010724999941885471
1750560790557150000,8.50014990234375,0.027499999850988388,0.059812501072883606,0.052799999713897705
1750560790566754800,8.5097548828125,0.11550000309944153,0.13199999928474426,0.12484999746084213
1750560790576359400,8.519359375,0.2400749921798706,0.16981250047683716,0.21656249463558197
1750560790585964300,8.52896435546875,0.4221250116825104,0.2003374993801117,0.3240875005722046
1750560790595569000,8.53856884765625,0.6835125088691711,0.24433749914169312,0.44013750553131104
1750560790605173500,8.548173583984376,1.046375036239624,0.4483875036239624,0.5304750204086304
1750560790614778600,8.557778564453125,1.6610000133514404,0.9113500118255615,0.567187488079071
1750560790624383200,8.56738330078125,2.428112506866455,1.6468374729156494,0.558662474155426
1750560790633987800,8.57698779296875,3.3481249809265137,2.6523749828338623,0.5304750204086304
1750560790643592700,8.5865927734375,4.362187385559082,3.500200033187866,0.5036625266075134
1750560790653197300,8.596197265625,4.990149974822998,3.8557748794555664,0.46447500586509705
1750560790662802200,8.60580224609375,5.047487258911133,3.582012414932251,0.4534749984741211
1750560790672406800,8.61540673828125,4.672387599945068,2.8209500312805176,0.44247499108314514
1750560790682011600,8.62501171875,4.027374744415283,1.7128374576568604,0.39489999413490295
1750560790691616500,8.634616455078126,3.2565500736236572,0.6646749973297119,0.22261250019073486
1750560790701221000,8.64422119140625,2.4563000202178955,0.12457499653100967,-0.08772499859333038
1750560790710826000,8.653825927734376,1.7342875003814697,0.15757499635219574,-0.3796375095844269
1750560790720430600,8.6634306640625,1.3299000263214111,0.5876749753952026,-0.5274500250816345
1750560790730035500,8.673035400390624,1.2113749980926514,1.0726374387741089,-0.5348749756813049
1750560790739640000,8.68264013671875,1.112375020980835,1.3890249729156494,-0.4749250113964081
1750560790749244700,8.69224462890625,0.9157499670982361,1.4624500274658203,-0.43834999203681946
1750560790758849500,8.701849609375,0.6469374895095825,1.198449969291687,-0.38458749651908875
1750560790768454400,8.711454345703125,0.3513124883174896,0.6437749862670898,-0.32958748936653137
1750560790778059000,8.72105908203125,0.020212499424815178,0.05004999786615372,-0.3198249936103821
1750560790787664000,8.730663818359375,-0.37564998865127563,-0.5253875255584717,-0.341825008392334
1750560790797268700,8.740268798828126,-0.8167499899864197,-1.1581624746322632,-0.39806249737739563
1750560790806873300,8.749873291015625,-1.2724249362945557,-1.734837532043457,-0.5164499878883362
1750560790816478000,8.75947802734375,-1.724387526512146,-2.2589874267578125,-0.6802124977111816
1750560790826082800,8.769082763671875,-2.1923000812530518,-2.7292375564575195,-0.8560749888420105
1750560790835687400,8.7786875,-2.6211624145507812,-3.062812566757202,-1.036887526512146
1750560790845292300,8.788292236328125,-3.0230748653411865,-3.128812551498413,-1.1969374418258667
1750560790854897000,8.79789697265625,-3.413987398147583,-2.979762554168701,-1.3338874578475952
1750560790864501800,8.807501708984375,-3.6522750854492188,-2.6596624851226807,-1.473175048828125
1750560790874106600,8.817106689453125,-3.7305123805999756,-2.2320375442504883,-1.548799991607666
1750560790883711200,8.826711181640626,-3.6107499599456787,-1.726312518119812,-1.4804625511169434
1750560790893315800,8.83631591796875,-3.080549955368042,-1.2094500064849854,-1.1578874588012695
1750560790902920700,8.845920654296876,-2.3352999687194824,-0.7745375037193298,-0.5654000043869019
1750560790912525300,8.855525390625,-1.8026249408721924,-0.3348124921321869,0.07603749632835388
1750560790922130200,8.865130126953124,-1.624287486076355,0.0952875018119812,0.5549499988555908
1750560790931734800,8.87473486328125,-1.5802874565124512,0.3273875117301941,0.8140000104904175
1750560790941339600,8.884339599609374,-1.5180000066757202,0.1685750037431717,0.8798624873161316
1750560790950944300,8.8939443359375,-1.4788124561309814,-0.22357499599456787,0.7712374925613403
1750560790960549400,8.90354931640625,-1.5069999694824219,-0.6340125203132629,0.523187518119812
1750560790970154000,8.913154052734376,-1.4812874794006348,-0.9028249979019165,0.2311374992132187
1750560790979758600,8.922758544921875,-1.3077625036239624,-0.8918250203132629,-0.03272499889135361
1750560790989363500,8.932363525390626,-0.9938499927520752,-0.6377249956130981,-0.19277499616146088
1750560790998968000,8.941968017578125,-0.644462525844574,-0.3946250081062317,-0.15606249868869781
1750560791008572700,8.95157275390625,-0.37812501192092896,-0.20762500166893005,0.02956249937415123
1750560791018177500,8.961177490234375,-0.22659999132156372,-0.04152499884366989,0.24213749170303345
1750560791027782100,8.9707822265625,-0.21188749372959137,0.05128749832510948,0.3973749876022339
1750560791037387000,8.980386962890625,-0.28283751010894775,0.07328750193119049,0.44618749618530273
1750560791046992000,8.989991943359374,-0.3634124994277954,0.042762499302625656,0.4314749836921692
1750560791056596700,8.9995966796875,-0.42570000886917114,-0.0037124999798834324,0.4021874964237213
1750560791066201300,9.009201416015625,-0.4281750023365021,-0.0012374999932944775,0.3679499924182892
1750560791075806200,9.01880615234375,-0.358599990606308,-0.006049999967217445,0.3386625051498413
1750560791085410800,9.028410888671875,-0.2400749921798706,-0.04881250113248825,0.3020874857902527
1750560791095015400,9.038015380859376,-0.11426249891519547,-0.0170499999076128,0.23966249823570251
1750560791104620000,9.0476201171875,-0.018975000828504562,0.045237500220537186,0.16637499630451202
1750560791114225000,9.057224853515624,0.022687500342726707,0.12581250071525574,0.10051249712705612
1750560791123829800,9.066829833984375,0.015262499451637268,0.16499999165534973,0.04427500069141388
1750560791133434400,9.076434326171874,-0.023787500336766243,0.19304999709129333,-0.009487500414252281
1750560791143039200,9.086039306640625,-0.0835999995470047,0.17104999721050262,-0.009487500414252281
1750560791152644000,9.09564404296875,-0.11783749610185623,0.08676250278949738,0.03932499885559082
1750560791162248700,9.105248779296875,-0.09102500230073929,0.01223750039935112,0.09184999763965607
1750560791171853600,9.114853515625,-0.016499999910593033,-0.042762499302625656,0.1260875016450882
1750560791181458200,9.124458251953126,0.058024998754262924,-0.03671250119805336,0.12361250072717667
1750560791191062800,9.134062744140625,0.09102500230073929,0.02199999988079071,0.09184999763965607
1750560791200667600,9.143667724609376,0.07878749817609787,0.10257499665021896,0.04908749833703041
1750560791210272500,9.1532724609375,0.03726249933242798,0.1868624985218048,-0.002199999988079071
1750560791219877400,9.16287744140625,-0.010312499478459358,0.22110000252723694,-0.04372499883174896
1750560791229482000,9.17248193359375,-0.04455000162124634,0.18081249296665192,-0.06077500060200691
1750560791239086800,9.1820869140625,-0.06283749639987946,0.1050499975681305,-0.06929999589920044
1750560791248691500,9.19169140625,-0.053075000643730164,0.023237500339746475,-0.0742499977350235
1750560791258296000,9.201296142578125,-0.010312499478459358,-0.00494999997317791,-0.06572499871253967
1750560791267901000,9.21090087890625,0.028737500309944153,0.04028749838471413,-0.014437500387430191
1750560791277505800,9.220505859375,0.04221250116825104,0.1050499975681305,0.06379999965429306
1750560791287110400,9.2301103515625,0.03478749841451645,0.1625249981880188,0.11879999935626984
1750560791296715300,9.23971533203125,0.015262499451637268,0.1942874938249588,0.13227500021457672
1750560791306320000,9.24931982421875,0.0006874999962747097,0.1905750036239624,0.10656250268220901
1750560791315924700,9.2589248046875,-0.0005499999970197678,0.18205000460147858,0.04675000160932541
1750560791325529300,9.268529296875,0.0042624999769032,0.18576249480247498,-0.008249999955296516
1750560791335134200,9.27813427734375,0.020212499424815178,0.1405249983072281,-0.011962499469518661
1750560791344738800,9.28773876953125,0.03478749841451645,0.047712501138448715,0.01251249946653843
1750560791354343700,9.29734375,0.03973750025033951,-0.037812501192092896,0.028324998915195465
1750560791363948300,9.3069482421875,0.031212499365210533,-0.06104999780654907,0.023512499406933784
1750560791373553200,9.31655322265625,0.021449999883770943,-0.0147124994546175,0.008799999952316284
1750560791383158000,9.326157958984375,0.007974999956786633,0.04399999976158142,0.003987499978393316
1750560791392762600,9.3357626953125,-0.0042624999769032,0.10381250083446503,0.01251249946653843
1750560791402367500,9.345367431640625,-0.021312499418854713,0.1527625024318695,0.035750001668930054
1750560791411972000,9.35497216796875,-0.036024998873472214,0.15633749961853027,0.055275000631809235
1750560791421577000,9.364576904296875,-0.03849999979138374,0.12223749607801437,0.055275000631809235
1750560791431181600,9.374181640625,-0.023787500336766243,0.07823749631643295,0.038087498396635056
1750560791440786200,9.3837861328125,-0.0042624999769032,0.04399999976158142,0.01732499897480011
1750560791450391000,9.39339111328125,0.005499999970197678,0.03671250119805336,-0.002199999988079071
1750560791459996000,9.402995849609376,0.011687500402331352,0.04028749838471413,-0.014437500387430191
1750560791469600500,9.4126005859375,0.010449999943375587,0.007287499960511923,-0.0057749999687075615
1750560791479205400,9.422205322265626,0.0042624999769032,-0.0147124994546175,0.016224998980760574
1750560791488810200,9.431810302734375,-0.006737499963492155,-0.02928750030696392,0.043037500232458115
1750560791498414800,9.441414794921876,-0.018975000828504562,-0.0317624993622303,0.05884999781847
1750560791508019500,9.45101953125,-0.029975000768899918,-0.02928750030696392,0.06751249730587006
1750560791517624300,9.460624267578124,-0.04331250116229057,-0.0170499999076128,0.05884999781847
1750560791527229000,9.47022900390625,-0.05073750019073486,0.020762499421834946,0.03203750029206276
1750560791536833800,9.479833740234374,-0.060499999672174454,0.07081250101327896,0.006324999965727329
1750560791546438700,9.489438720703125,-0.05926249921321869,0.09776250272989273,0.002749999985098839
1750560791556043500,9.49904345703125,-0.0494999997317791,0.07947500050067902,0.025987500324845314
1750560791565648100,9.508648193359376,-0.03231250122189522,0.030524998903274536,0.047987498342990875
1750560791575252700,9.518252685546875,-0.020075000822544098,-0.045237500220537186,0.050324998795986176
1750560791584857600,9.527857666015626,-0.015262499451637268,-0.11604999750852585,0.03698749840259552
1750560791594462200,9.537462158203125,-0.016499999910593033,-0.14176249504089355,0.013749999925494194
1750560791604066800,9.54706689453125,-0.022549999877810478,-0.11604999750852585,0.0002749999985098839
1750560791613671700,9.556671630859375,-0.029975000768899918,-0.035475000739097595,0.005224999971687794
1750560791623276500,9.566276611328124,-0.03849999979138374,0.07576250284910202,0.023512499406933784
1750560791632881200,9.575881103515625,-0.05073750019073486,0.1868624985218048,0.04427500069141388
1750560791642486000,9.585486083984375,-0.05073750019073486,0.20652499794960022,0.05884999781847
1750560791652091000,9.5950908203125,-0.045787498354911804,0.1368124932050705,0.04427500069141388
1750560791661695500,9.604695556640625,-0.028737500309944153,0.04399999976158142,0.006324999965727329
1750560791671300400,9.61430029296875,-0.014024999924004078,-0.07328750193119049,-0.025437500327825546
1750560791680905000,9.623905029296875,-0.010312499478459358,-0.14781250059604645,-0.04977500066161156
1750560791690509600,9.633509521484376,-0.010312499478459358,-0.1331000030040741,-0.05829999968409538
1750560791700114700,9.64311474609375,-0.016499999910593033,-0.035475000739097595,-0.0387750007212162
1750560791709719300,9.65271923828125,-0.022549999877810478,0.0672374963760376,0.01251249946653843
1750560791719324200,9.66232421875,-0.026262499392032623,0.13433749973773956,0.0625625029206276
1750560791728928800,9.6719287109375,-0.020075000822544098,0.12952500581741333,0.07975000143051147
1750560791738533600,9.68153369140625,-0.0005499999970197678,0.08304999768733978,0.05156249925494194
1750560791748138200,9.69113818359375,0.023787500336766243,0.018287500366568565,-0.0009624999947845936
1750560791757743000,9.7007431640625,0.043449997901916504,-0.04028749838471413,-0.05719999969005585
1750560791767347700,9.71034765625,0.048262499272823334,-0.0695749968290329,-0.09129999577999115
1750560791776952600,9.71995263671875,0.04097500070929527,-0.04647500067949295,-0.08277499675750732
1750560791786557200,9.72955712890625,0.016499999910593033,-0.010999999940395355,-0.03396249935030937
1750560791796162000,9.739162109375,-0.007974999956786633,-0.010999999940395355,0.02227500081062317
1750560791805767000,9.748766845703125,-0.029975000768899918,-0.03671250119805336,0.03698749840259552
1750560791815371500,9.75837158203125,-0.03973750025033951,-0.07081250101327896,0.013749999925494194
1750560791824976100,9.76797607421875,-0.03231250122189522,-0.09404999762773514,-0.020487500354647636
1750560791834581000,9.7775810546875,-0.012787500396370888,-0.07947500050067902,-0.04743750020861626
1750560791844185600,9.787185546875,0.012787500396370888,-0.00976249948143959,-0.06077500060200691
1750560791853790500,9.79679052734375,0.029975000768899918,0.08304999768733978,-0.04001250118017197
1750560791863395300,9.806395263671876,0.03478749841451645,0.12581250071525574,0.0015124999918043613
1750560791873000000,9.816,0.03368749842047691,0.09404999762773514,0.035750001668930054
1750560791882604800,9.825604736328126,0.02502499893307686,0.01347499992698431,0.04427500069141388
1750560791892209400,9.83520947265625,0.014024999924004078,-0.057475000619888306,0.02708750031888485
1750560791901814300,9.844814208984374,0.009212499484419823,-0.08552499860525131,0.008799999952316284
1750560791911419000,9.8544189453125,0.012787500396370888,-0.07452499866485596,0.0015124999918043613
1750560791921023700,9.864023681640624,0.012787500396370888,-0.045237500220537186,0.01251249946653843
1750560791930628600,9.873628662109375,0.006737499963492155,-0.018287500366568565,0.03451250120997429
1750560791940233500,9.8832333984375,-0.005499999970197678,-0.0170499999076128,0.04179999977350235
1750560791949838000,9.892838134765626,-0.017737500369548798,-0.018287500366568565,0.02474999986588955
1750560791959443000,9.90244287109375,-0.020075000822544098,-0.02928750030696392,-0.01677500084042549
1750560791969047600,9.912047607421876,-0.020075000822544098,-0.03671250119805336,-0.05829999968409538
1750560791978652200,9.921652099609375,-0.020075000822544098,-0.023237500339746475,-0.08524999767541885
1750560791988257000,9.931257080078124,-0.020075000822544098,0.01347499992698431,-0.06929999589920044
1750560791997861600,9.940861572265625,-0.021312499418854713,0.01952499896287918,-0.0057749999687075615
1750560792007466500,9.950466552734374,-0.012787500396370888,-0.02447500079870224,0.056512501090765
1750560792017071400,9.9600712890625,-0.015262499451637268,-0.09404999762773514,0.07727500051259995
1750560792026676000,9.969676025390624,-0.031075000762939453,-0.12457499653100967,0.056512501090765
1750560792036280800,9.97928076171875,-0.036024998873472214,-0.09157499670982361,0.016224998980760574
1750560792045885700,9.9888857421875,-0.03231250122189522,-0.020762499421834946,-0.015537500381469727
1750560792055490300,9.998490234375,-0.04331250116229057,0.0695749968290329,-0.021724998950958252
1750560792065095000,10.008094970703125,-0.06531249731779099,0.14781250059604645,-0.0034374999813735485
1750560792074699500,10.017699462890626,-0.07631249725818634,0.18809999525547028,0.02708750031888485
1750560792084304400,10.027304443359375,-0.06407500058412552,0.13805000483989716,0.045512501150369644
1750560792093909000,10.036908935546874,-0.036024998873472214,0.01952499896287918,0.035750001668930054
1750560792103513900,10.046513916015625,-0.0030249999836087227,-0.0989999994635582,0.0002749999985098839
1750560792113118700,10.05611865234375,0.011687500402331352,-0.15633749961853027,-0.04619999974966049
1750560792122723600,10.0657236328125,0.017737500369548798,-0.12457499653100967,-0.08772499859333038
1750560792132328200,10.075328125,0.007974999956786633,-0.04152499884366989,-0.08648750185966492
1750560792141933000,10.08493310546875,-0.0030249999836087227,0.05004999786615372,-0.04743750020861626
1750560792151537700,10.09453759765625,-0.015262499451637268,0.10999999940395355,0.0002749999985098839
1750560792161142500,10.104142578125,-0.017737500369548798,0.10999999940395355,0.035750001668930054
1750560792170747100,10.1137470703125,-0.006737499963492155,0.05871250107884407,0.050324998795986176
1750560792180351700,10.123351806640626,0.006737499963492155,-0.02447500079870224,0.047987498342990875
1750560792189956600,10.13295654296875,0.021449999883770943,-0.09404999762773514,0.028324998915195465
1750560792199561500,10.1425615234375,0.02502499893307686,-0.1331000030040741,0.01251249946653843
1750560792209166300,10.152166259765625,0.017737500369548798,-0.13433749973773956,0.013749999925494194
1750560792218771000,10.16177099609375,-0.0042624999769032,-0.08304999768733978,0.030799999833106995
1750560792228375800,10.171375732421875,-0.026262499392032623,0.002474999986588955,0.057750001549720764
1750560792237980400,10.18098046875,-0.02502499893307686,0.08304999768733978,0.07727500051259995
1750560792247585300,10.190585205078126,-0.0042624999769032,0.11233749985694885,0.06984999775886536
1750560792257190000,10.20018994140625,0.026262499392032623,0.07081250101327896,0.033275000751018524
1750560792266794500,10.20979443359375,0.04702499881386757,0.006049999967217445,-0.015537500381469727
1750560792276399400,10.2193994140625,0.05197500064969063,-0.059812501072883606,-0.04743750020861626
1750560792286004500,10.22900439453125,0.04455000162124634,-0.08923749625682831,-0.05472499877214432
1750560792295608800,10.23860888671875,0.017737500369548798,-0.11123749613761902,-0.03396249935030937
1750560792305213700,10.248213623046874,-0.010312499478459358,-0.11123749613761902,-0.0009624999947845936
1750560792314818300,10.257818359375,-0.027499999850988388,-0.05376249924302101,0.018562499433755875
1750560792324423200,10.267423095703125,-0.03726249933242798,0.028049999848008156,0.025987500324845314
1750560792334027800,10.27702783203125,-0.03478749841451645,0.09404999762773514,0.03451250120997429
1750560792343632600,10.286632568359375,-0.016499999910593033,0.14533749222755432,0.04675000160932541
1750560792353237500,10.296237548828126,0.0042624999769032,0.1527625024318695,0.05403750017285347
1750560792362842400,10.30584228515625,0.014024999924004078,0.12457499653100967,0.04675000160932541
1750560792372447000,10.315447021484376,0.009212499484419823,0.05128749832510948,0.03451250120997429
1750560792382051800,10.3250517578125,-0.0017874999903142452,-0.02928750030696392,0.011274999938905239
1750560792391656400,10.334656494140624,-0.009074999950826168,-0.1050499975681305,-0.021724998950958252
1750560792401261000,10.344260986328125,-0.017737500369548798,-0.15028749406337738,-0.05472499877214432
1750560792410866000,10.353865966796874,-0.020075000822544098,-0.13928750157356262,-0.0742499977350235
1750560792420470500,10.363470458984375,-0.015262499451637268,-0.0695749968290329,-0.06929999589920044
1750560792430075400,10.373075439453125,-0.007974999956786633,0.032999999821186066,-0.025437500327825546
1750560792439680300,10.38268017578125,0.0006874999962747097,0.12581250071525574,0.04908749833703041
1750560792449285000,10.39228515625,0.005499999970197678,0.18205000460147858,0.12127500027418137
1750560792458889700,10.4018896484375,0.005499999970197678,0.15633749961853027,0.1578499972820282
1750560792468494300,10.411494384765625,0.0017874999903142452,0.05376249924302101,0.13832500576972961
1750560792478099200,10.42109912109375,-0.0005499999970197678,-0.05252499878406525,0.06751249730587006
1750560792487704000,10.4307041015625,0.006737499963492155,-0.11976250261068344,-0.022962499409914017
1750560792497308700,10.44030859375,0.007974999956786633,-0.13805000483989716,-0.08648750185966492
1750560792506913300,10.449913330078125,0.0030249999836087227,-0.08304999768733978,-0.09748750180006027
1750560792516518100,10.45951806640625,-0.009074999950826168,0.025712499395012856,-0.05224999785423279
1750560792526122800,10.469122802734375,-0.017737500369548798,0.10381250083446503,0.03451250120997429
1750560792535727900,10.478727783203125,-0.0042624999769032,0.10752499848604202,0.10532499849796295
1750560792545332500,10.48833251953125,0.014024999924004078,0.05252499878406525,0.1163249984383583
1750560792554937000,10.49793701171875,0.011687500402331352,-0.030524998903274536,0.07356250286102295
1750560792564542000,10.5075419921875,-0.006737499963492155,-0.08428750187158585,0.0002749999985098839
1750560792574146600,10.517146484375,-0.015262499451637268,-0.0989999994635582,-0.05953750014305115
1750560792583751400,10.52675146484375,-0.018975000828504562,-0.07452499866485596,-0.07796250283718109
1750560792593356000,10.53635595703125,-0.027499999850988388,-0.007287499960511923,-0.05224999785423279
1750560792602961000,10.5459609375,-0.029975000768899918,0.07699999958276749,0.002749999985098839
1750560792612565500,10.5555654296875,-0.016499999910593033,0.14300000667572021,0.06984999775886536
1750560792622170600,10.565170654296875,0.022687500342726707,0.17833749949932098,0.12361250072717667
1750560792631775200,10.574775146484376,0.08249999582767487,0.19181250035762787,0.15661250054836273
1750560792641379800,10.5843798828125,0.1545500010251999,0.20157499611377716,0.18108749389648438
1750560792650984700,10.593984619140626,0.2938374876976013,0.26138749718666077,0.18603749573230743
1750560792660589300,10.60358935546875,0.5344625115394592,0.36410000920295715,0.1896124929189682
1750560792670194000,10.61319384765625,0.8875625133514404,0.4300999939441681,0.21408750116825104
1750560792679798800,10.622798828125,1.3481874465942383,0.5399624705314636,0.2287999987602234
1750560792689404000,10.63240380859375,1.9113874435424805,0.781962513923645,0.20308749377727509
1750560792699008300,10.64200830078125,2.5381124019622803,1.2071125507354736,0.12251249700784683
1750560792708613000,10.651613037109374,3.140362501144409,1.7946499586105347,0.010037500411272049
1750560792718218000,10.661218017578125,3.817275047302246,2.4556124210357666,-0.0742499977350235
1750560792727822800,10.67082275390625,4.572287559509277,3.0372374057769775,-0.12196250259876251
1750560792737427500,10.680427490234376,5.0682501792907715,3.345099925994873,-0.1340624988079071
1750560792747032000,10.690031982421875,5.206299781799316,3.2753875255584717,-0.11577499657869339
1750560792756637000,10.699636962890626,5.106199741363525,2.8564250469207764,-0.1340624988079071
1750560792766241800,10.70924169921875,4.690812587738037,2.393325090408325,-0.2525874972343445
1750560792775846700,10.7188466796875,3.882037401199341,1.9621249437332153,-0.4151124954223633
1750560792785451300,10.728451171875,2.9497873783111572,1.668837547302246,-0.5886374711990356
1750560792795055900,10.738055908203124,2.273012399673462,1.4635499715805054,-0.6961625218391418
1750560792804660700,10.74766064453125,1.8441499471664429,1.2216874361038208,-0.6875
1750560792814265300,10.757265380859375,1.4984749555587769,0.9015874862670898,-0.6496874690055847
1750560792823870200,10.7668701171875,1.1441375017166138,0.5339124798774719,-0.6216375231742859
1750560792833474800,10.776474853515625,0.7702749967575073,0.20157499611377716,-0.5874000191688538
1750560792843079700,10.78607958984375,0.34031251072883606,-0.0147124994546175,-0.5226374864578247
1750560792852684500,10.7956845703125,-0.12278749793767929,-0.2162874937057495,-0.4175874888896942
1750560792862289200,10.8052890625,-0.5882250070571899,-0.4031499922275543,-0.33687499165534973
1750560792871894000,10.81489404296875,-1.0573749542236328,-0.5974375009536743,-0.3258749842643738
1750560792881498600,10.82449853515625,-1.5448124408721924,-0.9003499746322632,-0.3686375021934509
1750560792891103500,10.834103515625,-2.0726749897003174,-1.390262484550476,-0.49939998984336853
1750560792900708000,10.8437080078125,-2.618687391281128,-1.988937497138977,-0.7046874761581421
1750560792910313000,10.85331298828125,-3.1708874702453613,-2.5618999004364014,-0.9514999985694885
1750560792919917600,10.86291748046875,-3.654749870300293,-2.965049982070923,-1.2386000156402588
1750560792929522400,10.8725224609375,-3.8123250007629395,-3.048099994659424,-1.5097500085830688
1750560792939127300,10.882127197265625,-3.509274959564209,-2.912524938583374,-1.635562539100647
1750560792948732200,10.891732177734376,-2.9094998836517334,-2.5326125621795654,-1.5256999731063843
1750560792958336800,10.901336669921875,-2.307112455368042,-1.9742250442504883,-1.1786500215530396
1750560792967941600,10.910941650390624,-1.9126249551773071,-1.3341624736785889,-0.6912124752998352
1750560792977546200,10.920546142578125,-1.715862512588501,-0.7147250175476074,-0.20858749747276306
1750560792987151000,10.930151123046874,-1.6303374767303467,-0.31638750433921814,0.19456249475479126
1750560792996755700,10.939755615234375,-1.6083375215530396,-0.14300000667572021,0.4499000012874603
1750560793006360300,10.9493603515625,-1.6303374767303467,-0.2810499966144562,0.5512375235557556
1750560793015965200,10.958965087890626,-1.6682875156402588,-0.7147250175476074,0.5024250149726868
1750560793025570000,10.968570068359375,-1.6132874488830566,-1.0799249410629272,0.31542500853538513
1750560793035174700,10.978174560546876,-1.4227124452590942,-1.115399956703186,0.11027500033378601
1750560793044779500,10.987779541015625,-1.12090003490448,-0.7709624767303467,0.0015124999918043613
1750560793054384000,10.997384033203126,-0.7422249913215637,-0.3018124997615814,0.04427500069141388
1750560793063989000,11.006989013671875,-0.430649995803833,0.12952500581741333,0.21656249463558197
1750560793073593600,11.016593505859374,-0.29260000586509705,0.3811500072479248,0.42294999957084656
1750560793083198500,11.026198486328125,-0.34017500281333923,0.43367499113082886,0.5781875252723694
1750560793092803300,11.03580322265625,-0.4782249927520752,0.3628624975681305,0.6429499983787537
1750560793102408200,11.045408203125,-0.6187499761581421,0.1588124930858612,0.6380000114440918
1750560793112012800,11.0550126953125,-0.7092249989509583,-0.14533749222755432,0.5707625150680542
1750560793121617700,11.06461767578125,-0.7177500128746033,-0.3310999870300293,0.44618749618530273
1750560793131222300,11.07422216796875,-0.6309875249862671,-0.36038750410079956,0.31542500853538513
1750560793140827100,11.0838271484375,-0.4856500029563904,-0.26633748412132263,0.2213750034570694
1750560793150431700,11.093431640625,-0.33041250705718994,-0.05623750016093254,0.18479999899864197
1750560793160036600,11.10303662109375,-0.23154999315738678,0.18576249480247498,0.18837499618530273
1750560793169641500,11.112641357421875,-0.20212499797344208,0.3018124997615814,0.19208750128746033
1750560793179246000,11.12224609375,-0.18754999339580536,0.2798124849796295,0.17613749206066132
1750560793188851000,11.131850830078125,-0.16307500004768372,0.10628750175237656,0.15908749401569366
1750560793198455600,11.14145556640625,-0.14231249690055847,-0.08799999952316284,0.13103750348091125
1750560793208060200,11.15106005859375,-0.13378749787807465,-0.23704999685287476,0.11151249706745148
1750560793217665000,11.1606650390625,-0.13626250624656677,-0.2516250014305115,0.11879999935626984
1750560793227270000,11.170269775390626,-0.13007499277591705,-0.13557499647140503,0.1443749964237213
1750560793236874500,11.17987451171875,-0.10326249897480011,0.05376249924302101,0.16279999911785126
1750560793246479000,11.18947900390625,-0.08002500236034393,0.21986250579357147,0.17008750140666962
1750560793256084200,11.199084228515625,-0.05926249921321869,0.3713875114917755,0.1615625023841858
1750560793265688800,11.208688720703124,-0.03973750025033951,0.3713875114917755,0.1615625023841858
1750560793275293700,11.218293701171875,-0.03231250122189522,0.17957499623298645,0.13956250250339508
1750560793284898300,11.227898193359374,-0.03973750025033951,-0.07452499866485596,0.09803749620914459
1750560793294503000,11.2375029296875,-0.06778749823570251,-0.26138749718666077,0.05156249925494194
1750560793304107800,11.247107666015625,-0.07150000333786011,-0.30662500858306885,0.01251249946653843
1750560793313712600,11.256712646484376,-0.05431250110268593,-0.20652499794960022,-0.004674999974668026
1750560793323317200,11.266317138671875,-0.02502499893307686,-0.006049999967217445,-0.002199999988079071
1750560793332922000,11.275922119140626,0.018975000828504562,0.2186249941587448,0.02474999986588955
1750560793342526700,11.285526611328125,0.045787498354911804,0.3713875114917755,0.06503749638795853
1750560793352131600,11.295131591796874,0.03849999979138374,0.37014999985694885,0.09556250274181366
1750560793361736400,11.304736328125,0.0006874999962747097,0.2358125001192093,0.08951249718666077
1750560793371341300,11.31434130859375,-0.03355000168085098,0.07081250101327896,0.056512501090765
1750560793380946000,11.32394580078125,-0.05678749829530716,-0.057475000619888306,0.016224998980760574
1750560793390550800,11.33355078125,-0.06407500058412552,-0.11728750169277191,-0.025437500327825546
1750560793400155100,11.343155029296875,-0.05073750019073486,-0.1685750037431717,-0.06572499871253967
1750560793409760300,11.35276025390625,-0.026262499392032623,-0.1685750037431717,-0.11824999749660492
1750560793419364900,11.36236474609375,-0.0005499999970197678,-0.1050499975681305,-0.147537499666214
1750560793428969500,11.371969482421875,0.009212499484419823,-0.015812499448657036,-0.11329999566078186
1750560793438574600,11.38157470703125,-0.0017874999903142452,0.12333749979734421,-0.04743750020861626
1750560793448179200,11.39117919921875,-0.022549999877810478,0.2712875008583069,0.018562499433755875
1750560793457784000,11.4007841796875,-0.03849999979138374,0.32615000009536743,0.07479999959468842
1750560793467388700,11.410388671875,-0.036024998873472214,0.2162874937057495,0.09308750182390213
1750560793476993300,11.4199931640625,-0.020075000822544098,0.03423750028014183,0.057750001549720764
1750560793486598100,11.42959814453125,-0.010312499478459358,-0.1307625025510788,-0.004674999974668026
1750560793496202800,11.43920263671875,-0.012787500396370888,-0.2186249941587448,-0.0705375000834465
1750560793505808000,11.448807861328126,-0.015262499451637268,-0.18933749198913574,-0.1060125008225441
1750560793515412500,11.45841259765625,-0.02502499893307686,-0.05004999786615372,-0.09006249904632568
1750560793525017300,11.468017333984376,-0.018975000828504562,0.12581250071525574,-0.026537500321865082
1750560793534622000,11.4776220703125,0.0006874999962747097,0.23086249828338623,0.052799999713897705
1750560793544226600,11.4872265625,0.021449999883770943,0.1905750036239624,0.08579999953508377
1750560793553831400,11.49683154296875,0.021449999883770943,0.06847500056028366,0.052799999713897705
1750560793563436000,11.50643603515625,0.007974999956786633,-0.08676250278949738,-0.004674999974668026
1750560793573041000,11.516041015625,-0.011549999937415123,-0.21752500534057617,-0.05472499877214432
1750560793582645800,11.525645751953125,-0.028737500309944153,-0.24186250567436218,-0.09129999577999115
1750560793592250600,11.535250732421876,-0.03973750025033951,-0.1845249980688095,-0.09501250088214874
1750560793601855200,11.544855224609375,-0.028737500309944153,-0.05252499878406525,-0.06572499871253967
1750560793611460000,11.554460205078126,-0.006737499963492155,0.10023749619722366,-0.011962499469518661
1750560793621064700,11.564064697265625,0.005499999970197678,0.1551000028848648,0.047987498342990875
1750560793630669600,11.573669677734374,0.010449999943375587,0.13199999928474426,0.08951249718666077
1750560793640274200,11.583274169921875,-0.0005499999970197678,0.07081250101327896,0.09803749620914459
1750560793649878800,11.592878662109374,-0.027499999850988388,0.0147124994546175,0.07851249724626541
1750560793659483600,11.602483642578125,-0.0518375001847744,-0.023237500339746475,0.05156249925494194
1750560793669088500,11.612088623046875,-0.058024998754262924,-0.07204999774694443,0.028324998915195465
1750560793678693400,11.621693359375,-0.04331250116229057,-0.11976250261068344,0.01251249946653843
1750560793688298000,11.631298095703125,-0.007974999956786633,-0.11604999750852585,0.007562499959021807
1750560793697902800,11.64090283203125,0.022687500342726707,-0.06599999964237213,0.013749999925494194
1750560793707507500,11.650507568359375,0.028737500309944153,0.01347499992698431,0.014987500384449959
1750560793717112300,11.6601123046875,0.0042624999769032,0.07576250284910202,0.02227500081062317
1750560793726717000,11.669717041015625,-0.03478749841451645,0.07452499866485596,0.02474999986588955
1750560793736321800,11.67932177734375,-0.06778749823570251,0.06847500056028366,0.008799999952316284
1750560793745926700,11.6889267578125,-0.08249999582767487,0.06228749826550484,-0.008249999955296516
1750560793755531500,11.698531494140624,-0.07259999960660934,0.05252499878406525,-0.014437500387430191
1750560793765136100,11.70813623046875,-0.045787498354911804,0.023237500339746475,0.002749999985098839
1750560793774740700,11.71774072265625,-0.021312499418854713,-0.0012374999932944775,0.028324998915195465
1750560793784345600,11.727345703125,0.0006874999962747097,-0.032999999821186066,0.03932499885559082
