time,seconds_elapsed,z,y,x
1750559006612957200,0.082957275390625,-0.45763298869132996,-0.5690460205078125,-0.7737900018692017
1750559006622561300,0.092561279296875,-0.2951579988002777,-0.3302929997444153,-0.9013749957084656
1750559006632165000,0.1021650390625,-0.24288499355316162,-0.18234799802303314,-0.8829230070114136
1750559006641769200,0.111769287109375,-0.20449799299240112,-0.14520999789237976,-0.7765629887580872
1750559006651372800,0.121372802734375,-0.07498300075531006,-0.3228749930858612,-0.5541300177574158
1750559006660977200,0.13097705078125,0.13939200341701508,-0.5522310137748718,-0.37119200825691223
1750559006670581000,0.1405810546875,0.41899800300598145,-0.7440760135650635,-0.26638901233673096
1750559006680184800,0.150184814453125,0.6058059930801392,-0.8564469814300537,-0.1677750051021576
1750559006689789000,0.159788818359375,0.5211619734764099,-0.820967972278595,-0.1221029981970787
1750559006699393000,0.16939306640625,0.4412580132484436,-0.7960339784622192,-0.036830998957157135
1750559006708996900,0.178996826171875,0.3636710047721863,-0.8153529763221741,0.11428599804639816
1750559006718601000,0.18860107421875,0.4827370047569275,-0.8316159844398499,0.3337259888648987
1750559006728204500,0.19820458984375,1.068693995475769,-1.003383994102478,0.4550130069255829
1750559006737808600,0.20780859375,1.7119970321655273,-1.2052220106124878,0.3836379945278168
1750559006747412700,0.217412841796875,1.994156002998352,-1.1631269454956055,0.14798599481582642
1750559006757016600,0.2270166015625,2.1313090324401855,-0.9789999723434448,-0.0901930034160614
1750559006766620400,0.236620361328125,2.0535120964050293,-0.8387129902839661,-0.21833500266075134
1750559006776224500,0.246224609375,1.9129829406738281,-0.693244993686676,-0.28689900040626526
1750559006785828400,0.255828369140625,1.7048120498657227,-0.5637050271034241,-0.29962000250816345
1750559006795432200,0.26543212890625,1.3521080017089844,-0.49734601378440857,-0.3164860010147095
1750559006805036300,0.275036376953125,0.912451982498169,-0.47565698623657227,-0.2978990077972412
1750559006814640000,0.28464013671875,0.42587798833847046,-0.421440988779068,-0.1979209929704666
1750559006824244200,0.294244140625,0.18787699937820435,-0.3764190077781677,-0.16129299998283386
1750559006833848000,0.30384814453125,0.13555899262428284,-0.34927400946617126,-0.17423699796199799
1750559006843452000,0.313451904296875,0.07512900233268738,-0.33768001198768616,-0.14483200013637543
1750559006853056000,0.323055908203125,0.023142000660300255,-0.3557949960231781,-0.1153390035033226
1750559006862660000,0.33266015625,0.10185600072145462,-0.36295801401138306,-0.11221999675035477
1750559006872264000,0.342263916015625,0.24120399355888367,-0.33933499455451965,-0.1268959939479828
1750559006881867800,0.35186767578125,0.32544299960136414,-0.33204200863838196,-0.09509100019931793
1750559006891472000,0.361471923828125,0.3115290105342865,-0.345786988735199,-0.0013549999566748738
1750559006901075700,0.37107568359375,0.29203900694847107,-0.3175390064716339,0.15218299627304077
1750559006910679800,0.3806796875,0.24304400384426117,-0.3409290015697479,0.24291899800300598
1750559006920283600,0.39028369140625,0.22871899604797363,-0.4037730097770691,0.3019849956035614
1750559006929887700,0.3998876953125,0.2763870060443878,-0.5306370258331299,0.3551580011844635
1750559006939491600,0.40949169921875,0.24343399703502655,-0.5241860151290894,0.393435001373291
1750559006949095700,0.419095703125,0.21796900033950806,-0.40877100825309753,0.3951449990272522
1750559006958699500,0.428699462890625,0.17181099951267242,-0.3410699963569641,0.31843599677085876
1750559006968303400,0.438303466796875,0.1369290053844452,-0.24805599451065063,0.14135199785232544
1750559006977907500,0.447907470703125,0.13135500252246857,-0.1808300018310547,0.03048500046133995
1750559006987511300,0.45751123046875,0.10975299775600433,-0.07473199814558029,-0.11867699772119522
1750559006997115400,0.467115478515625,0.27626198530197144,0.031787000596523285,-0.3673659861087799
1750559007006719200,0.47671923828125,0.5014489889144897,0.19452300667762756,-0.5787739753723145
1750559007016323300,0.4863232421875,0.4596869945526123,0.29361701011657715,-0.6423569917678833
1750559007025927200,0.49592724609375,0.2857789993286133,0.36170899868011475,-0.5747889876365662
1750559007035531000,0.505531005859375,0.1571819931268692,0.3844490051269531,-0.4297749996185303
1750559007045135000,0.515135009765625,0.08927900344133377,0.3181400001049042,-0.3163279891014099
1750559007054739000,0.524739013671875,0.10610099881887436,0.16804200410842896,-0.19904400408267975
1750559007064342800,0.5343427734375,0.20035000145435333,0.07097099721431732,-0.16361099481582642
1750559007073947000,0.54394677734375,0.34249401092529297,0.053713999688625336,-0.2112410068511963
1750559007083551000,0.553551025390625,0.42247000336647034,0.08948300033807755,-0.22313499450683594
1750559007093154600,0.563154541015625,0.27174898982048035,0.13754799962043762,-0.17236700654029846
1750559007102758700,0.572758544921875,0.018360000103712082,0.14585499465465546,-0.14040499925613403
1750559007112362500,0.582362548828125,-0.14607100188732147,0.11473499983549118,-0.03013399988412857
1750559007121966600,0.591966552734375,-0.3245620131492615,0.0873740017414093,0.03646399825811386
1750559007131570400,0.6015703125,-0.31345200538635254,0.04032700136303902,-0.07136499881744385
1750559007141174500,0.611174560546875,-0.264041006565094,0.09145499765872955,-0.25355198979377747
1750559007150778400,0.6207783203125,-0.31612199544906616,0.17461000382900238,-0.38535499572753906
1750559007160382500,0.630382568359375,-0.3939259946346283,0.24987399578094482,-0.3902930021286011
1750559007169986000,0.639986083984375,-0.4269759953022003,0.2616159915924072,-0.40600499510765076
1750559007179590100,0.649590087890625,-0.3145020008087158,0.23641599714756012,-0.36022600531578064
1750559007189194200,0.6591943359375,0.0806180015206337,0.104994997382164,-0.2854970097541809
1750559007198798000,0.668798095703125,0.46198800206184387,-0.04673999920487404,-0.26787999272346497
1750559007208402000,0.67840185546875,0.5350689888000488,-0.050147999078035355,-0.19508500397205353
1750559007218006000,0.688006103515625,0.5133810043334961,0.0526450015604496,-0.06920599937438965
1750559007227610000,0.697610107421875,0.3437100052833557,0.07520399987697601,0.01795800030231476
1750559007237214000,0.7072138671875,0.20249700546264648,0.08276700228452682,0.046838000416755676
1750559007246817800,0.71681787109375,0.23890599608421326,0.10876400023698807,0.011679000221192837
1750559007256422000,0.726421875,0.37656500935554504,0.1102449968457222,-0.10882999747991562
1750559007266025700,0.736025634765625,0.26379498839378357,0.07928700000047684,-0.17779499292373657
1750559007275629600,0.745629638671875,0.013067999854683876,0.13970500230789185,-0.13050399720668793
1750559007285233700,0.755233642578125,-0.16561900079250336,0.19170400500297546,-0.024445999413728714
1750559007294837500,0.76483740234375,-0.23605799674987793,0.15461300313472748,-0.040265001356601715
1750559007304441600,0.774441650390625,-0.2090039998292923,0.10668499767780304,-0.0347369983792305
1750559007314045400,0.78404541015625,-0.04229399934411049,-0.03687800094485283,0.0791660025715828
1750559007323649500,0.7936494140625,0.17410999536514282,-0.19054700434207916,0.15657100081443787
1750559007333253600,0.803253662109375,0.30835700035095215,-0.2157360017299652,0.22567600011825562
1750559007342857200,0.812857177734375,0.3772830069065094,-0.08444999903440475,0.19610799849033356
1750559007352461300,0.82246142578125,0.39923399686813354,-0.009397000074386597,0.13522100448608398
1750559007362065400,0.8320654296875,0.18395400047302246,0.04589400067925453,0.10765500366687775
1750559007371669200,0.841669189453125,-0.19050200283527374,0.16263799369335175,0.15546999871730804
1750559007381273300,0.8512734375,-0.31708401441574097,0.23621299862861633,0.1318960040807724
1750559007390877200,0.860877197265625,-0.37139201164245605,0.1680230051279068,-0.013779999688267708
1750559007400481300,0.870481201171875,-0.3636150062084198,0.15310099720954895,-0.21116000413894653
1750559007410085000,0.880085205078125,-0.18620799481868744,0.13956399261951447,-0.3756389915943146
1750559007419689000,0.88968896484375,-0.05071000009775162,0.17606399953365326,-0.44131699204444885
1750559007429293300,0.899293212890625,-0.022559000179171562,0.1623629927635193,-0.4143820106983185
1750559007438897000,0.90889697265625,-0.040421999990940094,0.16109000146389008,-0.2764120101928711
1750559007448501000,0.9185009765625,-0.05205199867486954,0.11980900168418884,-0.11353400349617004
1750559007458104800,0.928104736328125,-0.12035399675369263,0.05835999920964241,0.013662000186741352
1750559007467709000,0.937708984375,-0.1368969976902008,-0.021261999383568764,0.046209998428821564
1750559007477313000,0.94731298828125,-0.280460000038147,-0.08648700267076492,0.01955300010740757
1750559007486916600,0.95691650390625,-0.4401650130748749,-0.08313699811697006,-0.02352299913764
1750559007496520700,0.966520751953125,-0.4188239872455597,-0.04053400084376335,-0.01647000014781952
1750559007506124800,0.976124755859375,-0.16704599559307098,-0.06993900239467621,0.14585499465465546
1750559007515728600,0.985728759765625,0.06864000111818314,-0.1711370050907135,0.2306929975748062
1750559007525332700,0.995332763671875,0.3295249938964844,-0.18920999765396118,0.3268440067768097
1750559007534936600,1.0049365234375,0.3535290062427521,-0.3624269962310791,0.3470799922943115
1750559007544540400,1.01454052734375,0.31908899545669556,-0.330716997385025,0.19694800674915314
1750559007554144500,1.02414453125,0.3058289885520935,-0.16463999450206757,-0.02971000038087368
1750559007563748400,1.033748291015625,0.21995699405670166,-0.015042999759316444,-0.14975999295711517
1750559007573352400,1.0433525390625,0.11913300305604935,0.08417800068855286,-0.1691100001335144
1750559007582956300,1.052956298828125,-0.009848999790847301,0.024428000673651695,-0.01643499918282032
1750559007592560400,1.062560302734375,-0.1870650053024292,-0.109436996281147,0.20239600539207458
1750559007602164200,1.072164306640625,-0.19935399293899536,-0.16387400031089783,0.34077000617980957
1750559007611768300,1.081768310546875,-0.11680900305509567,-0.1501139998435974,0.3307720124721527
1750559007621372200,1.0913720703125,0.007579000201076269,-0.10862000286579132,0.1921360045671463
1750559007630976000,1.10097607421875,0.09968700259923935,-0.07545299828052521,0.10383900254964828
1750559007640580400,1.110580322265625,0.24600200355052948,-0.13916000723838806,0.15658000111579895
1750559007650184200,1.12018408203125,0.21575599908828735,-0.11970199644565582,0.20115700364112854
1750559007659788000,1.1297880859375,0.11635799705982208,0.018146999180316925,0.033222999423742294
1750559007669392100,1.13939208984375,0.13551700115203857,0.15625900030136108,-0.17489899694919586
1750559007678996000,1.148995849609375,-0.09811700135469437,0.18460600078105927,-0.2972260117530823
1750559007688599800,1.158599853515625,-0.37370601296424866,0.2514129877090454,-0.3377940058708191
1750559007698204000,1.168203857421875,-0.539044976234436,0.32969900965690613,-0.3874090015888214
1750559007707807700,1.177807861328125,-0.4174489974975586,0.22985799610614777,-0.3286220133304596
1750559007717411800,1.187411865234375,-0.25117000937461853,0.09852299839258194,-0.19103999435901642
1750559007727015700,1.197015625,-0.16849100589752197,-0.001108999946154654,-0.05360100045800209
1750559007736619800,1.206619873046875,-0.11069200187921524,-0.17114399373531342,0.11147300153970718
1750559007746223600,1.2162236328125,0.16808000206947327,-0.09463699907064438,0.032997000962495804
1750559007755827700,1.22582763671875,0.4159719944000244,-0.017650999128818512,-0.17459599673748016
1750559007765431600,1.235431640625,0.4381519854068756,-0.05716799944639206,-0.21918100118637085
1750559007775035400,1.245035400390625,0.2756899893283844,-0.11112900078296661,-0.1253650039434433
1750559007784639500,1.254639404296875,0.007046000100672245,-0.10537700355052948,0.019791999831795692
1750559007794243300,1.264243408203125,-0.27517399191856384,-0.05603000149130821,0.15165899693965912
1750559007803847400,1.273847412109375,-0.4971010088920593,-0.12496300041675568,0.1739950031042099
1750559007813451500,1.283451416015625,-0.48834601044654846,-0.1298999935388565,0.12404099851846695
1750559007823055000,1.29305517578125,-0.3584839999675751,-0.09009400010108948,0.036924999207258224
1750559007832659200,1.3026591796875,-0.5208100080490112,-0.09096399694681168,-0.020871000364422798
1750559007842263000,1.312262939453125,-0.49108800292015076,-0.11854399740695953,0.061657000333070755
1750559007851867100,1.3218671875,-0.12241800129413605,-0.17494599521160126,0.07075700163841248
1750559007861471200,1.33147119140625,0.38177499175071716,-0.17116299271583557,0.043754998594522476
1750559007871075000,1.341074951171875,0.4212369918823242,-0.18810200691223145,0.03384299948811531
1750559007880679200,1.35067919921875,0.22276000678539276,-0.07785499840974808,0.05308999866247177
1750559007890283000,1.360282958984375,-0.03484199941158295,0.05426900088787079,-0.03296099975705147
1750559007899887000,1.36988720703125,-0.317905992269516,0.13629400730133057,-0.19536399841308594
1750559007909491200,1.3794912109375,-0.48253700137138367,0.28303998708724976,-0.3584330081939697
1750559007919095000,1.389094970703125,-0.30600500106811523,0.012532999739050865,-0.18529799580574036
1750559007928699000,1.398698974609375,0.15480199456214905,-0.38543701171875,0.42180299758911133
1750559007938302700,1.408302734375,0.05651700124144554,0.4122219979763031,-0.17586900293827057
1750559007947906800,1.41790673828125,0.45761701464653015,0.24667799472808838,-0.16398899257183075
1750559007957510700,1.4275107421875,0.9737579822540283,-0.3083989918231964,0.06785400211811066
1750559007967114800,1.43711474609375,0.6393120288848877,-0.2162110060453415,-0.02563600055873394
1750559007976718800,1.44671875,-0.060419999063014984,0.12728999555110931,-0.10836700350046158
1750559007986322400,1.456322509765625,-0.36324599385261536,0.20104199647903442,-0.06655699759721756
1750559007995926500,1.465926513671875,-0.2033730000257492,0.1287979930639267,-0.09618200361728668
1750559008005530400,1.4755302734375,-0.09956599771976471,-0.43606001138687134,0.2292490005493164
1750559008015134500,1.485134521484375,0.25357601046562195,0.4365699887275696,-0.15636299550533295
1750559008024738300,1.49473828125,0.10461000353097916,0.5910080075263977,-0.3620130121707916
1750559008034342400,1.50434228515625,0.25346800684928894,0.12636399269104004,-0.22682100534439087
1750559008043946200,1.5139462890625,0.1932770013809204,-0.07329600304365158,-0.016265999525785446
1750559008053550000,1.523550048828125,0.18881699442863464,0.15389299392700195,-0.036747001111507416
1750559008063154200,1.533154296875,0.3133859932422638,0.18282799422740936,-0.1573529988527298
1750559008072758300,1.54275830078125,0.25426599383354187,0.07038699835538864,-0.22831200063228607
1750559008082362000,1.552362060546875,0.08545300364494324,0.11973399668931961,-0.26673200726509094
1750559008091966200,1.56196630859375,-0.007837999612092972,0.2243250012397766,-0.2426760047674179
1750559008101570000,1.571570068359375,-0.09857700020074844,0.2256689965724945,-0.28530600666999817
1750559008111174100,1.581174072265625,-0.22199800610542297,0.14685900509357452,-0.13596199452877045
1750559008120778000,1.590778076171875,-0.35966700315475464,0.012287000194191933,0.1809059977531433
1750559008130382000,1.600382080078125,-0.4184879958629608,-0.1366250067949295,0.4658850133419037
1750559008139986200,1.609986083984375,-0.2779560089111328,-0.3065800070762634,0.5972440242767334
1750559008149589800,1.61958984375,0.12067600339651108,-0.275395005941391,0.41695699095726013
1750559008159193900,1.62919384765625,0.4220049977302551,-0.0020759999752044678,0.026885999366641045
1750559008168798000,1.6387978515625,0.5071449875831604,0.2022850066423416,-0.2781969904899597
1750559008178401800,1.64840185546875,0.2567700147628784,0.2881450057029724,-0.3480910062789917
1750559008188006000,1.658005859375,-0.18562400341033936,-0.15595899522304535,0.1866060048341751
1750559008197609700,1.667609619140625,-0.35852399468421936,0.04140099883079529,0.042649999260902405
1750559008207213600,1.677213623046875,-0.5290989875793457,-0.04400499910116196,0.018216999247670174
1750559008216817700,1.686817626953125,-0.3436489999294281,-0.09197399765253067,0.13168899714946747
1750559008226421500,1.69642138671875,-0.09589999914169312,-0.09576600044965744,0.1643580049276352
1750559008236025600,1.706025634765625,0.09756799787282944,-0.14731599390506744,0.20157699286937714
1750559008245629700,1.715629638671875,0.09586600214242935,-0.2955929934978485,0.3800109922885895
1750559008255233500,1.725233642578125,0.06585700064897537,-0.37957900762557983,0.445250004529953
1750559008264837400,1.73483740234375,0.1296440064907074,-0.43707001209259033,0.5201529860496521
1750559008274441500,1.74444140625,0.25080201029777527,-0.22554799914360046,0.2515529990196228
1750559008284045600,1.754045654296875,0.40484899282455444,0.03726699948310852,-0.1077750027179718
1750559008293649200,1.763649169921875,0.2918739914894104,0.1711300015449524,-0.20728400349617004
1750559008303253200,1.773253173828125,0.052035000175237656,0.1549289971590042,-0.11695300042629242
1750559008312857300,1.782857421875,-0.06433799862861633,0.1245030015707016,-0.0491969995200634
1750559008322461200,1.792461181640625,-0.0873659998178482,0.1872429996728897,-0.1372089982032776
1750559008332065300,1.802065185546875,0.007400000002235174,0.1780019998550415,-0.16154900193214417
1750559008341669400,1.81166943359375,0.12417600303888321,0.14743199944496155,-0.1747789978981018
1750559008351273200,1.821273193359375,0.20666399598121643,0.17069900035858154,-0.24518099427223206
1750559008360877300,1.830877197265625,0.17684400081634521,0.23653599619865417,-0.2488439977169037
1750559008370481000,1.84048095703125,0.13885299861431122,0.1903959959745407,-0.18560999631881714
1750559008380085000,1.8500849609375,-0.05200599879026413,0.13607600331306458,-0.06740699708461761
1750559008389689000,1.859689208984375,-0.27368301153182983,0.12118600308895111,-0.008899999782443047
1750559008399293000,1.86929296875,-0.21417300403118134,0.0910710021853447,0.03695400059223175
1750559008408897000,1.87889697265625,-0.12052500247955322,0.05875200033187866,0.014639000408351421
1750559008418500900,1.8885009765625,-0.011384000070393085,0.10482099652290344,-0.07346999645233154
1750559008428105000,1.89810498046875,0.053626999258995056,0.11868199706077576,-0.12062100321054459
1750559008437709000,1.907708984375,0.0630979984998703,-0.005785000044852495,0.02469000034034252
1750559008447313000,1.91731298828125,0.11407899856567383,-0.17888200283050537,0.3327670097351074
1750559008456916700,1.926916748046875,0.08833099901676178,-0.23208999633789062,0.45640799403190613
1750559008466520800,1.936520751953125,0.05722799897193909,-0.20803099870681763,0.38477200269699097
1750559008476124700,1.946124755859375,0.10494700074195862,-0.07336200028657913,0.18466299772262573
1750559008485728500,1.955728515625,0.12610599398612976,-0.019581999629735947,-0.03957900032401085
1750559008495332600,1.96533251953125,0.14874200522899628,0.06360000371932983,-0.14433600008487701
1750559008504936400,1.9749365234375,0.14357499778270721,0.021236000582575798,-0.10743899643421173
1750559008514540500,1.98454052734375,0.02996399998664856,-0.006415000185370445,-0.06148900091648102
1750559008524144600,1.99414453125,0.015530000440776348,-0.00659599993377924,-0.02536099962890148
1750559008533748200,2.003748291015625,0.08710300177335739,-0.01345600001513958,-0.04138199985027313
1750559008543352600,2.0133525390625,0.10808999836444855,-0.0459510013461113,-0.07677800208330154
1750559008552956400,2.022956298828125,0.10895700007677078,-0.051061000674963,-0.0707859992980957
1750559008562560300,2.032560302734375,0.03607200086116791,0.005117999855428934,-0.08314400166273117
1750559008572164400,2.042164306640625,-0.08833199739456177,0.09745600074529648,-0.028663000091910362
1750559008581768200,2.051768310546875,-0.22067199647426605,0.08924899995326996,0.038322001695632935
1750559008591372300,2.061372314453125,-0.26618000864982605,0.07079599797725677,0.0483269989490509
1750559008600976100,2.07097607421875,-0.21922899782657623,0.07267999649047852,0.05149099975824356
1750559008610580200,2.080580322265625,-0.11125800013542175,0.03102399967610836,-0.018672000616788864
1750559008620184000,2.09018408203125,-0.04698700085282326,0.00012799999967683107,-0.08163999766111374
1750559008629788200,2.0997880859375,-0.05835700035095215,0.04715399816632271,-0.09385500103235245
1750559008639392300,2.109392333984375,-0.2025420069694519,0.09233500063419342,-0.08469600230455399
1750559008648996000,2.11899609375,-0.2939850091934204,0.09154800325632095,-0.04013499990105629
1750559008658600000,2.128599853515625,-0.3245370090007782,0.061090998351573944,-0.006053999997675419
1750559008668204000,2.1382041015625,-0.2766929864883423,0.014878000132739544,0.01798499934375286
1750559008677808000,2.14780810546875,-0.10574900358915329,0.011555000208318233,0.02256299927830696
1750559008687412000,2.157411865234375,-0.02562600001692772,-0.053568001836538315,0.0034799999557435513
1750559008697016000,2.16701611328125,0.0625469982624054,-0.09271000325679779,0.014831000007689
1750559008706619600,2.17661962890625,0.07844600081443787,-0.06904400140047073,0.0001720000000204891
1750559008716223700,2.1862236328125,0.12189199775457382,-0.006049999967217445,0.024915000423789024
1750559008725827800,2.195827880859375,0.018254000693559647,0.00471000000834465,0.07987699657678604
1750559008735431700,2.205431640625,-0.12458299845457077,-0.02497199922800064,0.15733399987220764
1750559008745035800,2.215035888671875,-0.16478200256824493,-0.1140659973025322,0.12236300110816956
1750559008754639600,2.2246396484375,0.008647000417113304,-0.14305000007152557,0.05828600004315376
1750559008764243700,2.23424365234375,0.08385200053453445,-0.14031299948692322,-0.03718600049614906
1750559008773847800,2.243847900390625,0.10676000267267227,-0.09472200274467468,-0.1379619985818863
1750559008783451600,2.25345166015625,0.022081999108195305,0.04583900049328804,-0.21191400289535522
1750559008793055700,2.2630556640625,0.0005179999861866236,0.11561399698257446,-0.2146490067243576
1750559008802659600,2.27265966796875,0.012961000204086304,0.043719999492168427,-0.09823700040578842
1750559008812263400,2.282263427734375,0.062196001410484314,-0.05510300025343895,0.09794200211763382
1750559008821867500,2.291867431640625,0.0507499985396862,-0.17190200090408325,0.2037779986858368
1750559008831471400,2.301471435546875,0.03751400113105774,-0.1575929969549179,0.15665499866008759
1750559008841075500,2.311075439453125,0.025654999539256096,-0.07079800218343735,0.05892600119113922
1750559008850679300,2.32067919921875,-0.0223229993134737,-0.015540000051259995,0.019185999408364296
1750559008860283400,2.330283447265625,-0.0561399981379509,0.027674999088048935,-0.03178099915385246
1750559008869887200,2.33988720703125,-0.08663199841976166,0.09353499859571457,-0.10306599736213684
1750559008879491300,2.3494912109375,-0.04779699817299843,0.16660599410533905,-0.2331099957227707
1750559008889095400,2.359095458984375,0.045566998422145844,0.11872100085020065,-0.2582260072231293
1750559008898699000,2.368698974609375,0.030393999069929123,0.05515899881720543,-0.16199100017547607
1750559008908303000,2.37830322265625,-0.09578800201416016,-0.01024600025266409,-0.02370000071823597
1750559008917907200,2.3879072265625,-0.06648900359869003,-0.09436800330877304,0.12273299694061279
1750559008927511000,2.397510986328125,0.02188899926841259,-0.09307999908924103,0.11100800335407257
1750559008937115100,2.407115234375,0.15301600098609924,-0.03584799915552139,0.10204900056123734
1750559008946719000,2.416718994140625,0.24525800347328186,-0.0040799998678267,0.03230699896812439
1750559008956323000,2.426322998046875,0.43513500690460205,0.0357539989054203,-0.019021999090909958
1750559008965927000,2.435927001953125,0.46877801418304443,0.03291599825024605,0.013484000228345394
1750559008975530800,2.44553076171875,0.26087498664855957,-0.028589000925421715,0.06329400092363358
1750559008985134800,2.455134765625,0.016681000590324402,-0.04315999895334244,0.1550849974155426
1750559008994738700,2.46473876953125,-0.06664299964904785,-0.03246299922466278,0.20922799408435822
1750559009004342800,2.4743427734375,-0.07457000017166138,-0.039468999952077866,0.17446500062942505
1750559009013947000,2.48394677734375,0.0669500008225441,0.03915499895811081,0.027300000190734863
1750559009023550700,2.49355078125,0.14032700657844543,0.05926699936389923,0.0064130001701414585
1750559009033154800,2.50315478515625,-0.040640998631715775,0.012489000335335732,0.04232500120997429
1750559009042758700,2.512758544921875,-0.24598300457000732,-0.006004000082612038,0.14759500324726105
1750559009052362800,2.52236279296875,-0.3372569978237152,-0.043056998401880264,0.1441670060157776
1750559009061966600,2.531966552734375,-0.22576099634170532,-0.03316099941730499,0.0571959987282753
1750559009071570400,2.5415703125,-0.04648299887776375,0.034304000437259674,-0.031964000314474106
1750559009081174500,2.551174560546875,0.1468230038881302,0.05002700164914131,-0.11062099784612656
1750559009090778400,2.5607783203125,0.2148510068655014,0.06672699749469757,-0.13225999474525452
1750559009100382500,2.570382568359375,0.14363999664783478,0.04023599997162819,-0.054016001522541046
1750559009109986600,2.579986572265625,0.061932001262903214,-0.0024139999877661467,-0.03590400144457817
1750559009119590400,2.58959033203125,0.047860000282526016,0.01413199957460165,-0.08804299682378769
1750559009129194500,2.599194580078125,0.00026000000070780516,0.004310000222176313,-0.08680900186300278
1750559009138798300,2.60879833984375,-0.0818609967827797,0.019229000434279442,-0.14637500047683716
1750559009148402200,2.618402099609375,-0.08826900273561478,0.0587569996714592,-0.13563799858093262
1750559009158006500,2.628006591796875,-0.13531599938869476,0.045497000217437744,-0.10989899933338165
1750559009167610400,2.6376103515625,-0.1723490059375763,0.055663999170064926,-0.08455699682235718
1750559009177214200,2.647214111328125,-0.057006001472473145,0.016930000856518745,-0.04399099946022034
1750559009186818300,2.656818359375,0.16296400129795074,0.025335999205708504,-0.03090899996459484
1750559009196422100,2.666422119140625,0.4047049880027771,0.015259999781847,-0.08956799656152725
1750559009206026000,2.67602587890625,0.4557439982891083,-0.026481999084353447,-0.08190499991178513
1750559009215630000,2.685630126953125,0.3724690079689026,-0.05180500075221062,0.03825199976563454
1750559009225234200,2.695234130859375,0.22286899387836456,-0.02389100007712841,0.08263099938631058
1750559009234838000,2.704838134765625,0.06084299832582474,-0.02754800021648407,0.13531599938869476
1750559009244442000,2.714442138671875,-0.12281899899244308,0.0015460000140592456,0.1110839992761612
1750559009254046000,2.7240458984375,-0.26621899008750916,0.04242299869656563,0.027800999581813812
1750559009263649800,2.73364990234375,-0.2567079961299896,0.12417799979448318,-0.10303299874067307
1750559009273254000,2.74325390625,-0.2969140112400055,0.06441699713468552,0.027053000405430794
1750559009282857700,2.752857666015625,-0.18041899800300598,0.0017729999963194132,0.1076669991016388
1750559009292461800,2.7624619140625,-0.08226999640464783,-0.013135000132024288,0.1556600034236908
1750559009302066000,2.77206591796875,0.0007019999902695417,0.016100000590085983,0.0788159966468811
1750559009311669800,2.781669677734375,0.02381799928843975,0.06938699632883072,-0.016973000019788742
1750559009321273900,2.79127392578125,-0.15696300566196442,0.06967700272798538,-0.05160599946975708
1750559009330877700,2.800877685546875,-0.21576200425624847,0.07215400040149689,-0.08273699879646301
1750559009340481800,2.810481689453125,-0.14470799267292023,0.012555000372231007,-0.08640199899673462
1750559009350085600,2.820085693359375,-0.04224000126123428,-0.01788399927318096,-0.08366599678993225
1750559009359689700,2.829689697265625,0.12860900163650513,0.005950000137090683,-0.06258899718523026
1750559009369293600,2.83929345703125,0.1297750025987625,0.06534299999475479,-0.06554800271987915
1750559009378897700,2.848897705078125,0.028615999966859818,0.13517700135707855,-0.054575998336076736
1750559009388501500,2.85850146484375,0.029536999762058258,0.11948200315237045,-0.06871800124645233
1750559009398105600,2.868105712890625,0.09218499809503555,0.054524000734090805,-0.09195400029420853
1750559009407709400,2.87770947265625,0.031125999987125397,-0.0014440000522881746,-0.07660699635744095
1750559009417313500,2.8873134765625,-0.004687999840825796,-0.02993899956345558,-0.03734099864959717
1750559009426917400,2.89691748046875,0.009573999792337418,0.03747599944472313,-0.01357599999755621
1750559009436521200,2.906521240234375,0.028207000344991684,0.05031200125813484,-0.025980999693274498
1750559009446125600,2.91612548828125,0.0016159999649971724,0.027024000883102417,-0.08253899961709976
1750559009455729400,2.9257294921875,-0.07991500198841095,0.007991000078618526,-0.04281200096011162
1750559009465333200,2.935333251953125,-0.11233600229024887,-0.022092999890446663,-0.012051000259816647
1750559009474937300,2.944937255859375,-0.022779999300837517,-0.04195300117135048,-0.04707099869847298
1750559009484541200,2.954541259765625,-0.010758000425994396,-0.017642000690102577,-0.043685998767614365
1750559009494145300,2.964145263671875,0.06076199933886528,-0.007278000004589558,-0.021239999681711197
1750559009503749400,2.973749267578125,0.16136400401592255,-0.10915499925613403,0.07313399761915207
1750559009513353000,2.98335302734375,0.0807270035147667,-0.11141800135374069,0.158037006855011
1750559009522957000,2.99295703125,-0.05052600055932999,-0.030758999288082123,0.18857400119304657
1750559009532561400,3.0025615234375,-0.07024800032377243,0.01927799917757511,0.11805900186300278
1750559009542165000,3.0121650390625,-0.12472400069236755,0.046643998473882675,-0.05734099820256233
1750559009551769000,3.02176904296875,-0.11006899923086166,0.06020500138401985,-0.1699790060520172
1750559009561373200,3.031373291015625,-0.021967999637126923,0.029694000259041786,-0.23217900097370148
1750559009570977000,3.04097705078125,0.0471469983458519,-0.007466000039130449,-0.17392699420452118
1750559009580580900,3.050580810546875,0.05968799814581871,-0.012063000351190567,-0.01916399970650673
1750559009590185000,3.06018505859375,0.06335200369358063,-0.03891099989414215,0.11823199689388275
1750559009599789000,3.0697890625,0.10620400309562683,-0.040102001279592514,0.15649999678134918
1750559009609393000,3.079392822265625,0.22913600504398346,0.01070099975913763,0.06746699661016464
1750559009618997000,3.0889970703125,0.27663499116897583,0.0031129999551922083,0.0835689976811409
1750559009628600800,3.098600830078125,0.26583701372146606,-0.05615900084376335,0.07615900039672852
1750559009638204700,3.10820458984375,0.24896200001239777,-0.09476500004529953,0.13448700308799744
1750559009647808800,3.117808837890625,0.19999299943447113,-0.09674099832773209,0.17773200571537018
1750559009657412900,3.127412841796875,0.18905900418758392,-0.08196999877691269,0.14505299925804138
1750559009667016700,3.1370166015625,0.07353699952363968,-0.016234999522566795,0.07146599888801575
1750559009676620800,3.146620849609375,-0.04123200103640556,-0.004941999912261963,0.03461899980902672
1750559009686224600,3.156224609375,-0.054625000804662704,-0.042447999119758606,-0.010219000279903412
1750559009695828700,3.165828857421875,-0.10644999891519547,-0.0391170009970665,-0.010728999972343445
1750559009705432300,3.175432373046875,-0.0482730008661747,-0.05673300102353096,0.008372999727725983
1750559009715036400,3.185036376953125,-0.08538799732923508,-0.10328900068998337,0.08296799659729004
1750559009724640500,3.194640625,-0.17807400226593018,-0.054009001702070236,0.16135799884796143
1750559009734244400,3.204244384765625,-0.29795899987220764,-0.030987000092864037,0.24312399327754974
1750559009743848200,3.21384814453125,-0.42927101254463196,0.00014899999951012433,0.17791399359703064
1750559009753452300,3.223452392578125,-0.3832319974899292,0.06670200079679489,0.0792350023984909
1750559009763056400,3.233056396484375,-0.20684899389743805,0.07077900320291519,0.030424999073147774
1750559009772660200,3.24266015625,-0.020339999347925186,-0.02017899975180626,0.020779000595211983
1750559009782264300,3.252264404296875,0.17086200416088104,0.01928899995982647,-0.1654140055179596
1750559009791868200,3.2618681640625,0.33738699555397034,0.15084999799728394,-0.34645000100135803
1750559009801472000,3.271471923828125,0.3451420068740845,0.21841000020503998,-0.44141700863838196
1750559009811076000,3.281076171875,0.1939769983291626,0.22860899567604065,-0.35975098609924316
1750559009820680000,3.290679931640625,0.13435900211334229,0.1874839961528778,-0.1464579999446869
1750559009830284000,3.300283935546875,0.1108120009303093,0.03416899964213371,0.009901000186800957
1750559009839888100,3.30988818359375,0.07379599660634995,-0.02417900040745735,0.07875999808311462
1750559009849492000,3.319491943359375,0.04296199977397919,0.006769000086933374,0.14116300642490387
1750559009859096000,3.329095947265625,0.009056000038981438,0.10015200078487396,-0.00750399986281991
1750559009868700000,3.338699951171875,0.12604199349880219,0.21265900135040283,-0.23617100715637207
1750559009878304000,3.348303955078125,0.16958700120449066,0.2095550000667572,-0.2939229905605316
1750559009887907800,3.357907958984375,0.1537950038909912,0.19627399742603302,-0.29600098729133606
1750559009897512000,3.367511962890625,0.14258599281311035,0.11393900215625763,-0.1945980042219162
1750559009907115800,3.37711572265625,0.01143800001591444,0.012546000070869923,-0.0010359999723732471
1750559009916719600,3.3867197265625,-0.06398700177669525,-0.04422900080680847,0.17295999825000763
1750559009926323700,3.39632373046875,-0.11901699751615524,-0.06390699744224548,0.27701300382614136
1750559009935927600,3.405927490234375,-0.06029200181365013,-0.05806500092148781,0.22588199377059937
1750559009945531600,3.41553173828125,0.03679699823260307,-0.06589099764823914,0.11246699839830399
1750559009955135700,3.4251357421875,0.046202000230550766,-0.0385890007019043,-0.031311001628637314
1750559009964739600,3.434739501953125,0.02738800086081028,-0.016963999718427658,-0.08242200314998627
1750559009974343700,3.44434375,0.021929999813437462,-0.0017760000191628933,-0.05009299889206886
1750559009983947500,3.453947509765625,-0.021189000457525253,-0.02349100075662136,0.14040499925613403
1750559009993551400,3.46355126953125,-0.09155800193548203,-0.03519999980926514,0.3297860026359558
1750559010003155500,3.473155517578125,-0.041067998856306076,-0.05977899953722954,0.3706960082054138
1750559010012759300,3.48275927734375,0.08399300277233124,-0.12193000316619873,0.13767500221729279
1750559010022363400,3.49236328125,0.04157600179314613,-0.05042700096964836,0.0035119999665766954
1750559010031967500,3.501967529296875,0.11654599756002426,-0.017108000814914703,-0.1953669935464859
1750559010041571300,3.5115712890625,0.12673300504684448,0.0189449992030859,-0.3345879912376404
1750559010051175200,3.521175048828125,0.08728200197219849,0.12323100119829178,-0.30383598804473877
1750559010060779300,3.530779296875,-0.02034199982881546,0.15828800201416016,-0.14567400515079498
1750559010070383400,3.54038330078125,-0.07084900140762329,0.07379700243473053,-0.00020199999562464654
1750559010079987200,3.5499873046875,-0.04947299882769585,0.013496000319719315,0.06781599670648575
1750559010089591300,3.55959130859375,-0.09394899755716324,-0.033486999571323395,0.1122720018029213
1750559010099195100,3.569195068359375,-0.06269100308418274,-0.026686999946832657,0.07491099834442139
1750559010108799200,3.57879931640625,-0.054965000599622726,0.020392000675201416,0.015962999314069748
1750559010118403300,3.5884033203125,-0.10094299912452698,0.029929999262094498,0.08240500092506409
1750559010128007200,3.598007080078125,-0.1514129936695099,0.06261099874973297,0.13439300656318665
1750559010137611000,3.607611083984375,-0.17258599400520325,0.020452000200748444,0.14959000051021576
1750559010147215000,3.617215087890625,-0.06933599710464478,-0.04502800107002258,0.11339700222015381
1750559010156819000,3.62681884765625,0.03972499817609787,-0.11558999866247177,0.08964599668979645
1750559010166423000,3.636423095703125,0.027387000620365143,-0.1482519954442978,0.07764200121164322
1750559010176027000,3.64602685546875,0.05540899932384491,-0.10150600224733353,0.08387400209903717
1750559010185631000,3.655630859375,0.043820999562740326,-0.02254199981689453,-0.002240000059828162
1750559010195234800,3.66523486328125,-0.029319999739527702,0.08627700060606003,-0.010672000236809254
1750559010204838700,3.674838623046875,-0.13367700576782227,0.048680998384952545,0.050776999443769455
1750559010214443000,3.684443115234375,-0.08956599980592728,-0.031589001417160034,0.07494500279426575
1750559010224046800,3.694046875,-0.0700019970536232,-0.03209200128912926,0.027197999879717827
1750559010233650700,3.703650634765625,-0.023615000769495964,-0.02353299967944622,-0.02848700061440468
1750559010243254800,3.7132548828125,-0.006936999969184399,-0.03532100096344948,-0.09850399941205978
1750559010252859000,3.72285888671875,-0.10331699997186661,-0.0038189999759197235,-0.06198100000619888
1750559010262462700,3.732462646484375,-0.0941620022058487,0.017859000712633133,-0.05477299913764
1750559010272066800,3.74206689453125,0.05814399942755699,-0.045249998569488525,0.0017600000137463212
1750559010281670700,3.751670654296875,0.19394700229167938,-0.12892299890518188,-0.028821999207139015
1750559010291274800,3.761274658203125,0.2823910117149353,-0.13853700459003448,-0.008627000264823437
1750559010300878600,3.770878662109375,0.23440299928188324,-0.16256800293922424,0.023429999127984047
1750559010310482400,3.780482421875,0.1262570023536682,-0.05542900040745735,0.002455000067129731
1750559010320086500,3.79008642578125,0.007195000071078539,0.06628400087356567,0.018086999654769897
1750559010329690600,3.799690673828125,-0.07214000076055527,0.07331900298595428,0.012350000441074371
1750559010339294500,3.80929443359375,-0.0776820033788681,0.01623000018298626,0.10663700103759766
1750559010348898600,3.818898681640625,-0.1067890003323555,-0.05566500127315521,0.18823599815368652
1750559010358502400,3.82850244140625,-0.07367800176143646,-0.07242099940776825,0.17602799832820892
1750559010368106500,3.8381064453125,-0.10364100337028503,-0.02397100068628788,0.0682850033044815
1750559010377710600,3.847710693359375,-0.16861000657081604,0.06847500056028366,-0.028704000636935234
1750559010387314400,3.857314453125,-0.1645669937133789,0.17302100360393524,-0.16624699532985687
1750559010396918500,3.86691845703125,-0.00899800006300211,0.16281600296497345,-0.27909401059150696
1750559010406522000,3.876522216796875,0.1349489986896515,0.0889040008187294,-0.271109014749527
1750559010416126200,3.886126220703125,0.12996600568294525,0.0016159999649971724,-0.2079939991235733
1750559010425730300,3.895730224609375,0.11566100269556046,-0.08559200167655945,-0.11259599775075912
1750559010435334100,3.905334228515625,0.03714200109243393,0.012861999683082104,0.007763999979943037
1750559010444938200,3.914938232421875,-0.07908499985933304,0.08572600036859512,-0.003137999912723899
1750559010454542000,3.9245419921875,-0.09346699714660645,0.09959100186824799,0.035663001239299774
1750559010464146200,3.934146240234375,0.029671000316739082,0.04369200021028519,0.043793000280857086
1750559010473750000,3.94375,0.19471700489521027,-0.036166001111269,0.019253000617027283
1750559010483354000,3.95335400390625,0.2855069935321808,-0.15815599262714386,0.07165300101041794
1750559010492958200,3.962958251953125,0.2992979884147644,-0.14077399671077728,0.08937499672174454
1750559010502562000,3.97256201171875,0.16990700364112854,-0.0008679999737069011,0.09294000267982483
1750559010512166000,3.982165771484375,0.052104998379945755,0.025575000792741776,0.045928001403808594
1750559010521770000,3.99177001953125,0.021846000105142593,0.05724700167775154,-0.06984300166368484
1750559010531373800,4.001373779296875,-0.031982000917196274,0.08091700077056885,-0.10272199660539627
1750559010540978200,4.010978271484375,-0.054294001311063766,0.07069700211286545,-0.15767499804496765
1750559010550582000,4.02058203125,-0.1046459972858429,0.055417001247406006,-0.2524090111255646
1750559010560185900,4.030185791015625,-0.14250099658966064,0.16160699725151062,-0.2714349925518036
1750559010569789700,4.039789794921875,-0.09151100367307663,0.17208200693130493,-0.2501699924468994
1750559010579393800,4.049393798828125,-0.0071749999187886715,0.128370001912117,-0.14878499507904053
1750559010588998000,4.058997802734375,-0.06069599837064743,0.062134999781847,-0.0007970000151544809
1750559010598601700,4.068601806640625,-0.01411799993366003,0.01788800023496151,0.08242200314998627
1750559010608205800,4.078205810546875,0.07545900344848633,-0.040111999958753586,0.11633399873971939
1750559010617810000,4.087809814453125,0.12309399992227554,-0.07258100062608719,0.06850100308656693
1750559010627413800,4.097413818359375,0.06747499853372574,-0.016447000205516815,-0.03664100170135498
1750559010637017600,4.107017578125,-0.08310899883508682,0.05459300056099892,-0.045226000249385834
1750559010646621400,4.116621337890625,-0.15439699590206146,0.0793130025267601,0.00863100029528141
1750559010656225500,4.1262255859375,-0.11913999915122986,0.076664999127388,0.08267199993133545
1750559010665829600,4.13582958984375,-0.07710400223731995,0.00785799976438284,0.1678840070962906
1750559010675433500,4.14543359375,0.027222000062465668,-0.10792899876832962,0.13591599464416504
1750559010685037600,4.15503759765625,0.12830199301242828,-0.20739500224590302,0.11747200042009354
1750559010694641400,4.164641357421875,0.12831099331378937,-0.2363249957561493,0.11015000194311142
1750559010704245500,4.17424560546875,0.13685500621795654,-0.13511399924755096,0.04159199818968773
1750559010713849600,4.183849609375,0.16145899891853333,-0.06701099872589111,0.009727999567985535
1750559010723453400,4.193453369140625,0.14263099431991577,-0.056387998163700104,-0.04531899839639664
1750559010733057300,4.203057373046875,0.049529001116752625,-0.013092000037431717,-0.0753839984536171
1750559010742661600,4.21266162109375,-0.06868500262498856,-0.0009609999833628535,-0.04606200009584427
1750559010752265200,4.22226513671875,-0.14605900645256042,-0.04452800005674362,-0.011106999590992928
1750559010761869300,4.231869384765625,-0.2815589904785156,-0.06381600350141525,-0.02195199951529503
1750559010771473200,4.24147314453125,-0.3960059881210327,-0.001550000044517219,-0.08121299743652344
1750559010781077200,4.2510771484375,-0.39144301414489746,0.07824300229549408,-0.018563000485301018
1750559010790681300,4.260681396484375,-0.31878799200057983,0.0786060020327568,0.043529000133275986
1750559010800285200,4.27028515625,-0.20678499341011047,-0.026294000446796417,0.13845400512218475
1750559010809889300,4.27988916015625,-0.0563960000872612,-0.06089000031352043,0.1417189985513687
1750559010819493000,4.2894931640625,-0.002088000066578388,-0.09260900318622589,0.0190069992095232
1750559010829097200,4.29909716796875,0.0573979988694191,-0.005400999914854765,-0.16095900535583496
1750559010838701000,4.308701171875,0.002870999975129962,0.07315000146627426,-0.2162269949913025
1750559010848305200,4.31830517578125,-0.1400279998779297,0.138606995344162,-0.27288201451301575
1750559010857909000,4.327908935546875,-0.2995139956474304,0.17229199409484863,-0.2961150109767914
1750559010867513000,4.33751318359375,-0.3833340108394623,0.1591079980134964,-0.23238499462604523
1750559010877117000,4.347116943359375,-0.4073899984359741,0.09635400027036667,-0.013259000144898891
1750559010886721000,4.356720947265625,-0.42197901010513306,0.0895249992609024,0.09970899671316147
1750559010896324900,4.366324951171875,-0.4908829927444458,0.10620400309562683,0.19440999627113342
1750559010905929000,4.375928955078125,-0.8070189952850342,0.16117599606513977,0.26011499762535095
1750559010915532800,4.38553271484375,-0.8574560284614563,0.2854419946670532,0.17101499438285828
1750559010925137000,4.395136962890625,-0.9949349761009216,0.34338700771331787,0.1876019984483719
1750559010934740700,4.40474072265625,-1.1155719757080078,0.2336210012435913,0.10848899930715561
1750559010944344600,4.414344482421875,-0.9859840273857117,0.14565999805927277,0.2203720062971115
1750559010953948700,4.42394873046875,-1.2958519458770752,0.10211600363254547,0.7012109756469727
1750559010963552800,4.433552734375,-1.813472032546997,0.08915799856185913,1.2260290384292603
1750559010973156600,4.443156494140625,-1.9348069429397583,0.33619800209999084,1.1606580018997192
1750559010982760700,4.4527607421875,0.5822010040283203,1.2110940217971802,0.10894100368022919
1750559010992364800,4.46236474609375,4.756811141967773,1.5322940349578857,-0.5111299753189087
1750559011001968600,4.47196875,10.777629852294922,1.6094399690628052,-1.509876012802124
1750559011011572700,4.48157275390625,17.269235610961914,0.609495997428894,-2.4716429710388184
1750559011021176600,4.491176513671875,18.79733657836914,-1.3993029594421387,-3.044990062713623
1750559011030780700,4.50078076171875,18.36910629272461,-3.0601470470428467,-1.9693200588226318
1750559011040384500,4.510384521484375,15.926406860351562,-3.9497759342193604,-0.30841898918151855
1750559011049988600,4.519988525390625,13.565727233886719,-4.174458980560303,0.02560500055551529
1750559011059592700,4.5295927734375,13.015987396240234,-4.222661972045898,-1.0734330415725708
1750559011069196500,4.539196533203125,10.627111434936523,-4.78127908706665,-2.1362171173095703
1750559011078800600,4.548800537109375,8.973166465759277,-5.047735214233398,-2.8621668815612793
1750559011088404500,4.558404541015625,8.795495986938477,-6.642312049865723,-2.0602030754089355
1750559011098008300,4.56800830078125,6.193519115447998,-7.701292991638184,-1.6603419780731201
1750559011107612400,4.5776123046875,2.8004229068756104,-7.349103927612305,-1.4744470119476318
1750559011117216300,4.58721630859375,-1.0573580265045166,-6.30079984664917,-1.817850947380066
1750559011126820400,4.5968203125,-6.010404109954834,-4.347620010375977,-1.763537049293518
1750559011136424200,4.606424072265625,-9.137425422668457,-3.4610369205474854,-0.8041319847106934
1750559011146028300,4.6160283203125,-10.668192863464355,-3.298504114151001,-0.002578000072389841
1750559011155632400,4.62563232421875,-11.27585220336914,-2.9928059577941895,0.7511789798736572
1750559011165236000,4.635236083984375,-11.877989768981934,-2.8080990314483643,1.1046589612960815
1750559011174840300,4.64484033203125,-12.239409446716309,-2.5901169776916504,1.2459700107574463
1750559011184444200,4.654444091796875,-12.701067924499512,-2.561392068862915,1.4507219791412354
1750559011194048000,4.664048095703125,-12.749527931213379,-2.576396942138672,1.3661160469055176
1750559011203652000,4.673652099609375,-11.726628303527832,-2.437894105911255,1.3714549541473389
1750559011213256000,4.683255859375,-10.424162864685059,-2.4480490684509277,1.1065789461135864
1750559011222860000,4.692860107421875,-9.425737380981445,-2.5658860206604004,0.9246090054512024
1750559011232464000,4.7024638671875,-8.486152648925781,-2.577244997024536,0.9046900272369385
1750559011242068000,4.71206787109375,-7.4990081787109375,-2.8586161136627197,0.8065580129623413
1750559011251672000,4.721672119140625,-6.789381980895996,-3.1510748863220215,0.8990020155906677
1750559011261276000,4.73127587890625,-6.33211088180542,-3.2966349124908447,1.0497230291366577
1750559011270880000,4.7408798828125,-6.095913887023926,-3.451077938079834,1.0256550312042236
1750559011280484000,4.750484130859375,-5.815083026885986,-3.6766750812530518,0.5448939800262451
1750559011290088000,4.760087890625,-4.278281211853027,-3.40726900100708,-0.7140290141105652
1750559011299691800,4.76969189453125,-1.3122040033340454,-2.7708370685577393,-1.601294994354248
1750559011309295900,4.7792958984375,0.6269699931144714,-2.6913719177246094,-1.6009830236434937
1750559011318899700,4.788899658203125,0.4044710099697113,-2.8120570182800293,-0.9709579944610596
1750559011328503800,4.79850390625,-1.2544490098953247,-3.160346031188965,-0.33430400490760803
1750559011338107600,4.808107666015625,-2.586134910583496,-3.874066114425659,0.12125299870967865
1750559011347711700,4.817711669921875,-2.8287830352783203,-4.490275859832764,-0.9153890013694763
1750559011357315800,4.82731591796875,1.6306610107421875,-3.7058160305023193,-3.1803719997406006
1750559011366919700,4.836919677734375,9.178820610046387,-3.2997689247131348,-2.260101079940796
1750559011376523800,4.846523681640625,13.08972454071045,-3.9931769371032715,-1.9016369581222534
1750559011386127600,4.856127685546875,14.247517585754395,-3.5324900150299072,-1.9528889656066895
1750559011395731700,4.865731689453125,12.875931739807129,-2.940412998199463,-0.8448169827461243
1750559011405335600,4.87533544921875,8.714218139648438,-2.8487548828125,0.06729999929666519
1750559011414939400,4.884939453125,4.9263081550598145,-2.436784029006958,0.6086680293083191
1750559011424543700,4.894543701171875,2.9035708904266357,-1.953557014465332,0.6934980154037476
1750559011434147600,4.904147705078125,1.4946010112762451,-1.7012369632720947,0.49622100591659546
1750559011443751400,4.91375146484375,1.376283049583435,-1.670454978942871,0.20527499914169312
1750559011453355300,4.923355224609375,4.127597808837891,-1.4742350578308105,-0.28231900930404663
1750559011462959400,4.93295947265625,7.270774841308594,-1.0425440073013306,-1.2250070571899414
1750559011472563500,4.9425634765625,8.441393852233887,-1.2855620384216309,-1.1169060468673706
1750559011482167300,4.952167236328125,7.227451801300049,-1.8271960020065308,-0.3256100118160248
1750559011491771400,4.961771484375,5.2003889083862305,-2.0760838985443115,0.5187879800796509
1750559011501375500,4.97137548828125,3.7353808879852295,-1.9728009700775146,0.6492570042610168
1750559011510979000,4.98097900390625,2.9389500617980957,-1.5913670063018799,0.06236699968576431
1750559011520583200,4.990583251953125,2.102250099182129,-1.0268199443817139,-0.5674110054969788
1750559011530187300,5.000187255859375,1.7295390367507935,-0.5651689767837524,-0.8551679849624634
1750559011539791400,5.009791259765625,1.5386309623718262,-0.41373199224472046,-0.9075440168380737
1750559011549395500,5.0193955078125,1.3691109418869019,-0.481454998254776,-0.7058449983596802
1750559011558999000,5.0289990234375,1.650141954421997,-0.47920700907707214,-0.6322590112686157
1750559011568603100,5.03860302734375,1.910159945487976,-0.5365710258483887,-0.4673070013523102
1750559011578207000,5.04820703125,1.5083080530166626,-0.5229910016059875,-0.2896910011768341
1750559011587811000,5.05781103515625,1.1044249534606934,-0.431784987449646,-0.14807799458503723
1750559011597415200,5.067415283203125,0.8943309783935547,-0.42036300897598267,-0.06751599907875061
1750559011607019000,5.07701904296875,0.8065230250358582,-0.49429601430892944,0.041561998426914215
1750559011616623000,5.086623046875,0.779017984867096,-0.5123410224914551,0.009310999885201454
1750559011626227000,5.09622705078125,0.6188499927520752,-0.5378040075302124,-0.0714000016450882
1750559011635830800,5.105830810546875,0.3610309958457947,-0.5147969722747803,-0.09835200011730194
1750559011645435100,5.11543505859375,0.30245599150657654,-0.38164201378822327,-0.1228799968957901
1750559011655039000,5.1250390625,0.5297589898109436,-0.41062700748443604,-0.04469599947333336
1750559011664642800,5.134642822265625,0.7122359871864319,-0.568494975566864,0.08956599980592728
1750559011674247000,5.144246826171875,0.6907100081443787,-0.5564680099487305,0.21392099559307098
1750559011683850800,5.153850830078125,0.3132149875164032,-0.5589720010757446,0.1789419949054718
1750559011693454800,5.163454833984375,-0.00954699981957674,-0.6299700140953064,0.10237299650907516
1750559011703058700,5.17305859375,-0.24028800427913666,-0.47863098978996277,-0.0023849999997764826
1750559011712662800,5.182662841796875,-0.27948400378227234,-0.32416701316833496,-0.16242699325084686
1750559011722267000,5.192266845703125,-0.15455099940299988,-0.19684100151062012,-0.33668699860572815
1750559011731870700,5.20187060546875,0.08005599677562714,-0.19815699756145477,-0.4421820044517517
1750559011741474800,5.211474853515625,0.2694840133190155,-0.2116989940404892,-0.40981701016426086
1750559011751078700,5.22107861328125,0.3774850070476532,-0.30441099405288696,-0.37028399109840393
1750559011760682800,5.230682861328125,0.4791330099105835,-0.28314799070358276,-0.4015659987926483
1750559011770286600,5.24028662109375,0.5282149910926819,-0.23805199563503265,-0.5673099756240845
1750559011779890400,5.249890380859375,0.2515380084514618,-0.1714169979095459,-0.5533599853515625
1750559011789494500,5.25949462890625,-0.10465200245380402,-0.19817399978637695,-0.3841080069541931
1750559011799098600,5.2690986328125,-0.39190199971199036,-0.1911350041627884,-0.2945599853992462
1750559011808702500,5.278702392578125,-0.5542140007019043,-0.20096099376678467,-0.24298599362373352
1750559011818306600,5.288306640625,-0.3435960114002228,-0.2606549859046936,-0.12650999426841736
1750559011827910400,5.297910400390625,-0.012713000178337097,-0.3766449987888336,0.009759999811649323
1750559011837514500,5.307514404296875,0.21366000175476074,-0.3783450126647949,-0.049508001655340195
1750559011847118300,5.317118408203125,0.3412899971008301,-0.46835801005363464,0.06516999751329422
1750559011856722400,5.326722412109375,0.26074498891830444,-0.5011990070343018,0.12816399335861206
1750559011866326500,5.336326416015625,0.17182999849319458,-0.4515349864959717,0.18812300264835358
1750559011875930400,5.345930419921875,0.021821999922394753,-0.4627690017223358,0.15154199302196503
1750559011885534200,5.3555341796875,-0.201541006565094,-0.4219140112400055,0.05643400177359581
1750559011895138300,5.36513818359375,-0.3440589904785156,-0.3970159888267517,0.02312600053846836
1750559011904742100,5.3747421875,-0.3782550096511841,-0.36543500423431396,0.038885001093149185
1750559011914346200,5.38434619140625,-0.3860909938812256,-0.34592100977897644,0.13884100317955017
1750559011923950000,5.3939501953125,-0.1500149965286255,-0.28530699014663696,0.15001699328422546
1750559011933554200,5.40355419921875,0.22779400646686554,-0.26290199160575867,0.07745800167322159
1750559011943158300,5.413158203125,0.4938510060310364,-0.33879798650741577,-0.018789999186992645
1750559011952762000,5.42276220703125,0.6235619783401489,-0.3163909912109375,0.04295099899172783
1750559011962366200,5.4323662109375,0.644527018070221,-0.36009499430656433,0.16453100740909576
1750559011971970000,5.441969970703125,0.49050500988960266,-0.36795100569725037,0.26026201248168945
1750559011981574100,5.45157421875,0.25005200505256653,-0.23716199398040771,0.2712790071964264
1750559011991178200,5.46117822265625,-0.026944000273942947,-0.09436800330877304,0.18701599538326263
1750559012000781800,5.47078173828125,-0.15211200714111328,0.014034000225365162,-0.012025999836623669
1750559012010386000,5.480385986328125,-0.16172799468040466,0.045506998896598816,-0.09868799895048141
1750559012019990000,5.489989990234375,-0.04819599911570549,0.08361800014972687,-0.23126499354839325
1750559012029593900,5.49959375,0.2829880118370056,0.12274900078773499,-0.342074990272522
1750559012039198000,5.509197998046875,0.3597069978713989,0.1003279983997345,-0.28076300024986267
1750559012048802000,5.518802001953125,0.18393300473690033,0.10234399884939194,-0.25316399335861206
1750559012058406000,5.528406005859375,0.1815820038318634,0.18921199440956116,-0.21533900499343872
1750559012068009700,5.538009765625,0.10549800097942352,0.17692700028419495,-0.09891600161790848
1750559012077613800,5.54761376953125,0.008611000142991543,0.1349020004272461,-0.06460600346326828
1750559012087218000,5.557218017578125,0.1022619977593422,0.12272900342941284,-0.031936001032590866
1750559012096821800,5.56682177734375,0.13934700191020966,0.021118000149726868,0.02802800014615059
1750559012106425900,5.57642578125,0.11944100260734558,-0.007044000085443258,0.18562699854373932
1750559012116029700,5.58602978515625,0.14993900060653687,-0.05005599930882454,0.3235740065574646
1750559012125633500,5.595633544921875,0.10771500319242477,-0.06821999698877335,0.3105109930038452
1750559012135237600,5.605237548828125,0.048082999885082245,0.01490699965506792,0.21060499548912048
1750559012144841700,5.614841796875,0.06780599802732468,-0.012082000263035297,0.11326300352811813
1750559012154445600,5.624445556640625,0.1217690035700798,-0.04193099960684776,0.10430099815130234
1750559012164049700,5.634049560546875,0.11656899750232697,-0.1152309998869896,0.058529000729322433
1750559012173653500,5.643653564453125,0.0589199997484684,-0.040167998522520065,-0.08735699951648712
1750559012183257600,5.653257568359375,-0.029664000496268272,0.07290100306272507,-0.17896200716495514
1750559012192861400,5.662861328125,-0.04012399911880493,0.040803998708724976,-0.13843199610710144
1750559012202465500,5.672465576171875,-0.027569999918341637,0.04052799940109253,-0.03493700176477432
1750559012212069600,5.682069580078125,0.11036700010299683,-0.017798999324440956,-0.02835099957883358
1750559012221673500,5.691673583984375,0.2802880108356476,-0.12921300530433655,0.01843000017106533
1750559012231277600,5.701277587890625,0.33097898960113525,-0.1690790057182312,0.023919999599456787
1750559012240881700,5.710881591796875,0.22240599989891052,-0.1601639986038208,0.026047000661492348
1750559012250485200,5.7204853515625,0.04331099987030029,-0.12693500518798828,0.04728100076317787
1750559012260089300,5.73008935546875,-0.17817099392414093,-0.02570199966430664,0.0007479999912902713
1750559012269693200,5.739693115234375,-0.35601499676704407,0.07443500310182571,-0.05593699961900711
1750559012279297300,5.74929736328125,-0.29909199476242065,-0.00005500000042957254,-0.01876699924468994
1750559012288901400,5.7589013671875,-0.09401699900627136,-0.05198099836707115,0.05926299840211868
1750559012298505200,5.768505126953125,0.05735800042748451,-0.11208199709653854,0.19558599591255188
1750559012308109300,5.778109375,0.1342869997024536,-0.1477310061454773,0.2443390041589737
1750559012317713400,5.78771337890625,0.19610300660133362,-0.019516000524163246,0.04804199934005737
1750559012327317200,5.797317138671875,0.2963689863681793,0.07761699706315994,-0.08369100093841553
1750559012336921300,5.80692138671875,0.3372899889945984,0.13595399260520935,-0.17693500220775604
1750559012346525200,5.816525146484375,0.21608200669288635,0.11871100217103958,-0.08512599766254425
1750559012356129000,5.82612890625,0.0417959988117218,0.11517299711704254,0.07166899740695953
1750559012365732900,5.83573291015625,-0.1260399967432022,0.059078000485897064,0.15244700014591217
1750559012375337200,5.845337158203125,-0.1737229973077774,0.05287100002169609,0.12448299676179886
1750559012384941000,5.854941162109375,-0.24756599962711334,0.06833299994468689,-0.03583500161767006
1750559012394545000,5.864544921875,-0.19093699753284454,0.06158300116658211,-0.1166979968547821
1750559012404149000,5.87414892578125,-0.04459799826145172,0.10938099771738052,-0.19297699630260468
1750559012413752800,5.8837529296875,0.007544000167399645,0.2011220008134842,-0.2130890041589737
1750559012423357000,5.89335693359375,-0.019941000267863274,0.18076099455356598,-0.19994999468326569
1750559012432961000,5.9029609375,0.10586000233888626,0.11991000175476074,-0.16221100091934204
1750559012442564900,5.91256494140625,0.1636209934949875,0.0792049989104271,-0.08610899746417999
1750559012452169000,5.9221689453125,0.08233500272035599,-0.019050000235438347,0.04130600020289421
1750559012461772800,5.931772705078125,0.02727399952709675,-0.07170899957418442,0.015003999695181847
1750559012471376600,5.941376708984375,-0.07688400149345398,-0.03246200084686279,0.05186900123953819
1750559012480980700,5.950980712890625,-0.20756900310516357,-0.046160999685525894,0.13562700152397156
1750559012490584800,5.960584716796875,-0.1471560001373291,-0.06878200173377991,0.19505000114440918
1750559012500188700,5.970188720703125,-0.08948200196027756,-0.06912899762392044,0.19602300226688385
1750559012509793000,5.97979296875,0.04458099976181984,-0.03290700167417526,0.04670099914073944
1750559012519396600,5.989396728515625,0.1648930013179779,-0.03745599836111069,-0.05249499902129173
1750559012529000700,5.999000732421875,0.15401700139045715,-0.056829001754522324,-0.07779800146818161
1750559012538604800,6.008604736328125,0.10528899729251862,-0.02432899922132492,-0.058848001062870026
1750559012548208600,6.018208740234375,0.02658100053668022,-0.0031789999920874834,0.044913001358509064
1750559012557812700,6.027812744140625,-0.06404399871826172,0.00559200020506978,0.07942400127649307
1750559012567416600,6.03741650390625,-0.14749500155448914,-0.012250999920070171,0.13210900127887726
1750559012577020700,6.047020751953125,-0.048645999282598495,-0.08009800314903259,0.08046100288629532
1750559012586624800,6.056624755859375,-0.03207800164818764,-0.08197499811649323,0.012296999804675579
1750559012596228600,6.066228515625,-0.07672599703073502,0.00133200001437217,-0.12887200713157654
1750559012605832700,6.075832763671875,0.003002000041306019,0.08975700289011002,-0.255746990442276
1750559012615436300,6.085436279296875,0.11200899630784988,0.12027200311422348,-0.19163699448108673
1750559012625040400,6.095040283203125,0.08868200331926346,0.06503800302743912,-0.10338400304317474
1750559012634644500,6.10464453125,0.05564599856734276,-0.011737000197172165,0.009932000190019608
1750559012644248300,6.114248291015625,0.06068800017237663,-0.07634799927473068,0.09025099873542786
1750559012653852400,6.123852294921875,-0.027451999485492706,-0.11040300130844116,0.17548300325870514
1750559012663456300,6.133456298828125,-0.04131000116467476,-0.09436099976301193,0.12590500712394714
1750559012673060400,6.143060302734375,-0.1050880029797554,-0.04988599941134453,-0.042823001742362976
1750559012682664200,6.152664306640625,-0.16884200274944305,0.03275600075721741,-0.12639600038528442
1750559012692268300,6.162268310546875,-0.20403000712394714,0.12495700269937515,-0.18509100377559662
1750559012701872400,6.171872314453125,-0.21079100668430328,0.15511199831962585,-0.13051100075244904
1750559012711476200,6.181476318359375,-0.19327199459075928,0.022367000579833984,-0.026655999943614006
1750559012721080300,6.191080322265625,-0.16726399958133698,-0.03492800146341324,0.057128001004457474
1750559012730684400,6.200684326171875,-0.10019300132989883,-0.10179799795150757,0.11426500231027603
1750559012740288300,6.210288330078125,0.06391599774360657,-0.05686800181865692,0.016627000644803047
1750559012749892000,6.21989208984375,0.12035399675369263,0.0694660022854805,-0.019780000671744347
1750559012759496200,6.22949609375,0.07637699693441391,0.08739300072193146,0.07621300220489502
1750559012769100000,6.23910009765625,-0.027279000729322433,0.04489799961447716,0.13079699873924255
1750559012778704100,6.2487041015625,-0.029167000204324722,0.039556000381708145,0.06810799986124039
1750559012788308000,6.258307861328125,0.038412999361753464,0.07275199890136719,-0.015697000548243523
1750559012797912000,6.267912109375,-0.11089099943637848,0.0785520002245903,-0.20984399318695068
1750559012807516200,6.27751611328125,-0.22644400596618652,0.19148699939250946,-0.2840070128440857
1750559012817120000,6.2871201171875,-0.29543501138687134,0.22159799933433533,-0.2189980000257492
1750559012826723800,6.296723876953125,-0.19958800077438354,0.1661510020494461,-0.11427199840545654
1750559012836328000,6.306327880859375,0.019142000004649162,0.026965999975800514,0.05832099914550781
1750559012845931800,6.315931884765625,0.1784610003232956,-0.126118004322052,0.1505039930343628
1750559012855535900,6.325535888671875,0.14212700724601746,-0.1932550072669983,0.10556899756193161
1750559012865139700,6.3351396484375,-0.041064001619815826,-0.09011100232601166,0.029921000823378563
1750559012874743800,6.344743896484375,-0.3251340091228485,-0.014151000417768955,0.05725900083780289
1750559012884347600,6.35434765625,-0.16415800154209137,-0.0024389999452978373,0.2802099883556366
1750559012893951700,6.36395166015625,0.11472000181674957,-0.10713300108909607,0.4496400058269501
1750559012903555600,6.3735556640625,0.026290999725461006,-0.14344899356365204,0.5333240032196045
1750559012913159700,6.38315966796875,-0.07487600296735764,-0.11496900022029877,0.518884003162384
1750559012922763800,6.392763671875,-0.0437919981777668,-0.05560699850320816,0.1474580019712448
1750559012932367600,6.40236767578125,0.38797301054000854,0.3478640019893646,-0.41450101137161255
1750559012941971700,6.4119716796875,1.4429370164871216,0.6427580118179321,-0.5989140272140503
1750559012951575800,6.421575927734375,3.2475619316101074,0.8071200251579285,-0.6574310064315796
1750559012961179400,6.431179443359375,7.076714992523193,0.388590008020401,-0.29339998960494995
1750559012970783500,6.440783447265625,9.298379898071289,-0.8262069821357727,0.21351100504398346
1750559012980387600,6.4503876953125,9.365290641784668,-1.7365260124206543,0.7332040071487427
1750559012989991700,6.45999169921875,8.89387035369873,-2.1597390174865723,1.2048699855804443
1750559012999595500,6.469595458984375,7.929712772369385,-1.9411799907684326,0.14005599915981293
1750559013009199600,6.47919970703125,9.337979316711426,-1.5927430391311646,-1.175686001777649
1750559013018803500,6.488803466796875,11.47152328491211,-2.4920809268951416,-1.4094330072402954
1750559013028407600,6.498407470703125,12.502517700195312,-3.755340099334717,-1.7911570072174072
1750559013038011400,6.508011474609375,12.642416954040527,-5.413332939147949,-1.4060499668121338
1750559013047615500,6.517615478515625,9.625426292419434,-7.056985855102539,-1.2643389701843262
1750559013057219300,6.52721923828125,5.248844146728516,-7.211191177368164,-1.5216809511184692
1750559013066823400,6.536823486328125,1.8270349502563477,-6.4302568435668945,-1.3599909543991089
1750559013076427500,6.546427490234375,-2.319917917251587,-4.918025016784668,-1.1282720565795898
1750559013086031000,6.556031005859375,-6.566469192504883,-3.342798948287964,-0.8933010101318359
1750559013095635200,6.56563525390625,-8.845279693603516,-2.4622368812561035,-0.596127986907959
1750559013105239000,6.575239013671875,-10.74870491027832,-1.5041240453720093,0.4643799960613251
1750559013114843100,6.584843017578125,-11.731016159057617,-1.0552619695663452,1.2634140253067017
1750559013124447000,6.594447021484375,-10.74599838256836,-0.7298650145530701,0.8200889825820923
1750559013134051000,6.604051025390625,-8.84090805053711,-0.4216980040073395,0.2724739909172058
1750559013143655200,6.6136552734375,-8.087677001953125,-0.8549789786338806,0.01622599922120571
1750559013153259000,6.623259033203125,-7.528389930725098,-1.2707250118255615,0.1868869960308075
1750559013162863000,6.632863037109375,-7.417076110839844,-1.497475028038025,0.3522399961948395
1750559013172467200,6.64246728515625,-7.574098110198975,-1.4159499406814575,0.6388429999351501
1750559013182071000,6.652071044921875,-7.850246906280518,-1.4475769996643066,0.9166370034217834
1750559013191675100,6.661675048828125,-8.338005065917969,-1.2424999475479126,1.0774240493774414
1750559013201278700,6.67127880859375,-9.273310661315918,-1.0300170183181763,1.1719850301742554
1750559013210882800,6.6808828125,-10.39187240600586,-0.9932770133018494,1.1632020473480225
1750559013220487000,6.69048681640625,-10.482994079589844,-1.271567940711975,1.0249539613723755
1750559013230090800,6.7000908203125,-9.799817085266113,-1.4552409648895264,1.027343988418579
1750559013239695000,6.709695068359375,-9.042055130004883,-1.7973719835281372,1.1972719430923462
1750559013249299000,6.719298828125,-7.872063159942627,-2.4089930057525635,1.1344820261001587
1750559013258902800,6.72890283203125,-6.852161884307861,-2.69979190826416,0.5130000114440918
1750559013268507000,6.7385068359375,-6.285904884338379,-2.606053113937378,-0.36501801013946533
1750559013278110700,6.74811083984375,-5.610383033752441,-2.376422882080078,-1.2088279724121094
1750559013287714800,6.75771484375,-5.670773029327393,-2.385219097137451,-1.4113130569458008
1750559013297318700,6.767318603515625,-5.771489143371582,-2.8427999019622803,-1.0838539600372314
1750559013306922800,6.7769228515625,-5.401282787322998,-4.256167888641357,-0.8215190172195435
1750559013316526800,6.78652685546875,-3.4916539192199707,-5.826000213623047,-0.7682449817657471
1750559013326130400,6.79613037109375,0.6785020232200623,-7.0657172203063965,-1.7564409971237183
1750559013335734800,6.80573486328125,7.0457258224487305,-5.993824005126953,-2.5237319469451904
1750559013345338600,6.815338623046875,10.704071998596191,-5.102250099182129,-1.4779549837112427
1750559013354942500,6.8249423828125,9.559715270996094,-4.247921943664551,-1.5179380178451538
1750559013364546600,6.834546630859375,9.610992431640625,-2.4947149753570557,-1.5888659954071045
1750559013374150400,6.844150390625,11.475882530212402,-2.6950008869171143,-0.025301000103354454
1750559013383754500,6.85375439453125,11.63829231262207,-3.621350049972534,0.9545130133628845
1750559013393358300,6.8633583984375,9.487068176269531,-3.6748709678649902,1.5160969495773315
1750559013402962400,6.87296240234375,6.686273097991943,-3.3253469467163086,2.0616700649261475
1750559013412566500,6.88256640625,5.02414608001709,-2.7532880306243896,1.9771629571914673
1750559013422170400,6.89217041015625,4.373391151428223,-2.3687920570373535,1.4895720481872559
1750559013431774500,6.9017744140625,4.184298038482666,-2.1849451065063477,0.7285429835319519
1750559013441378300,6.91137841796875,3.827209949493408,-1.9198180437088013,0.45186400413513184
1750559013450982400,6.920982421875,3.0604751110076904,-1.8674800395965576,0.5156480073928833
1750559013460586500,6.93058642578125,2.8759939670562744,-1.495393991470337,0.5336170196533203
1750559013470190300,6.9401904296875,3.1267049312591553,-1.1519349813461304,0.38874000310897827
1750559013479794200,6.949794189453125,3.2763140201568604,-1.0859179496765137,0.21137100458145142
1750559013489398300,6.959398193359375,2.660475969314575,-0.9443489909172058,0.021379999816417694
1750559013499002000,6.969002197265625,1.969269037246704,-0.603190004825592,-0.09412200003862381
1750559013508606200,6.978606201171875,1.6717109680175781,-0.3996489942073822,-0.08353699743747711
1750559013518210000,6.9882099609375,1.6652590036392212,-0.3148699998855591,-0.08577299863100052
1750559013527814100,6.997814208984375,1.8941839933395386,-0.24514999985694885,-0.022009000182151794
1750559013537418200,7.007418212890625,1.896252989768982,-0.36996200680732727,0.2818300127983093
1750559013547021800,7.017021728515625,2.256481885910034,-0.5990359783172607,0.6840850114822388
1750559013556626000,7.0266259765625,1.9643440246582031,-0.7671369910240173,0.6931819915771484
1750559013566229800,7.036229736328125,1.2056770324707031,-0.5880429744720459,0.41086798906326294
1750559013575833900,7.045833740234375,0.6289780139923096,-0.17417100071907043,-0.05593400076031685
1750559013585438000,7.05543798828125,0.3014569878578186,0.11751800030469894,-0.3456070125102997
1750559013595041800,7.065041748046875,0.1829500049352646,0.25061699748039246,-0.3911679983139038
1750559013604646000,7.07464599609375,0.2162349969148636,0.16731199622154236,-0.2154960036277771
1750559013614250000,7.08425,0.32989901304244995,0.012923999689519405,0.13435299694538116
1750559013623853800,7.093853759765625,0.4439229965209961,-0.09166000038385391,0.31870800256729126
1750559013633458000,7.1034580078125,0.6615049839019775,-0.1913750022649765,0.13547800481319427
1750559013643061800,7.113061767578125,0.7938899993896484,-0.2339390069246292,0.0018579999450594187
1750559013652665900,7.122665771484375,0.5909799933433533,-0.18062999844551086,-0.14890000224113464
1750559013662269700,7.132269775390625,0.22025200724601746,-0.13731400668621063,-0.12839999794960022
1750559013671873500,7.14187353515625,0.06620900332927704,-0.14821100234985352,-0.14303700625896454
1750559013681478000,7.151477783203125,0.11047299951314926,-0.25927698612213135,-0.01447100006043911
1750559013691081700,7.161081787109375,0.1219019964337349,-0.380282998085022,0.055093999952077866
1750559013700685800,7.170685791015625,0.4166019856929779,-0.474821001291275,0.13100400567054749
1750559013710289700,7.18028955078125,0.6438609957695007,-0.5990099906921387,0.18090100586414337
1750559013719893500,7.1898935546875,0.6472799777984619,-0.518409013748169,0.30379199981689453
1750559013729497600,7.19949755859375,0.4411320090293884,-0.48260098695755005,0.2772180140018463
1750559013739101700,7.209101806640625,0.4038040041923523,-0.38364601135253906,0.09296300262212753
1750559013748705500,7.21870556640625,0.4610790014266968,-0.3360559940338135,-0.047853998839855194
1750559013758309600,7.2283095703125,0.2212280035018921,-0.4011420011520386,-0.05300400033593178
1750559013767913500,7.23791357421875,0.09506399929523468,-0.25940999388694763,-0.3947179913520813
1750559013777517600,7.247517578125,0.11541099846363068,-0.11547599732875824,-0.5692980289459229
1750559013787121700,7.25712158203125,-0.11954999715089798,-0.140501007437706,-0.5606279969215393
1750559013796725500,7.2667255859375,-0.22006699442863464,-0.1855120062828064,-0.38190600275993347
1750559013806329300,7.276329345703125,-0.2680799961090088,-0.2523239850997925,-0.210440993309021
1750559013815933400,7.285933349609375,-0.31815698742866516,-0.29807600378990173,-0.062109000980854034
1750559013825537300,7.295537353515625,-0.3016049861907959,-0.32431700825691223,0.06240500137209892
1750559013835141400,7.305141357421875,-0.317577987909317,-0.34686601161956787,0.21667100489139557
1750559013844745200,7.3147451171875,-0.21929599344730377,-0.42095398902893066,0.29169100522994995
1750559013854349300,7.324349365234375,0.08212800323963165,-0.502776026725769,0.3203890025615692
1750559013863953200,7.333953125,0.300262987613678,-0.4930180013179779,0.2647869884967804
1750559013873557200,7.34355712890625,0.6585890054702759,-0.45686399936676025,0.0842830017209053
1750559013883161300,7.353161376953125,0.7805100083351135,-0.3254129886627197,0.011593000032007694
1750559013892765200,7.36276513671875,0.34069401025772095,-0.21384499967098236,-0.03332199901342392
1750559013902369300,7.372369384765625,-0.1201850026845932,-0.1292629987001419,-0.06657300144433975
1750559013911973000,7.38197314453125,-0.4756239950656891,-0.11071799695491791,-0.14162099361419678
1750559013921577200,7.3915771484375,-0.5583459734916687,-0.056161001324653625,-0.17235299944877625
1750559013931181000,7.40118115234375,-0.37158000469207764,-0.11670900136232376,-0.12047699838876724
1750559013940785000,7.410784912109375,-0.06937199831008911,-0.2692849934101105,-0.0042119999416172504
1750559013950389000,7.420388916015625,0.05975700169801712,-0.2722429931163788,0.16354000568389893
1750559013959993000,7.4299931640625,0.11877799779176712,-0.21976900100708008,0.2951990067958832
1750559013969597000,7.439596923828125,0.2354460060596466,-0.1578810065984726,0.3245840072631836
1750559013979201000,7.449200927734375,0.16674500703811646,-0.1528880000114441,0.3215320110321045
1750559013988804900,7.458804931640625,0.0859450027346611,-0.12429700046777725,0.273404985666275
1750559013998409000,7.468408935546875,0.020455999299883842,-0.15179599821567535,0.14987699687480927
1750559014008012800,7.4780126953125,-0.1243550032377243,-0.1862960010766983,-0.01167600043118
1750559014017617000,7.487616943359375,-0.13412800431251526,-0.04721499979496002,-0.23705700039863586
1750559014027220700,7.497220703125,-0.1496029943227768,0.22135800123214722,-0.39137500524520874
1750559014036824800,7.506824951171875,-0.14192600548267365,0.337211012840271,-0.42268699407577515
1750559014046428700,7.5164287109375,-0.2361370027065277,0.3581019937992096,-0.3021720051765442
1750559014056032800,7.52603271484375,-0.38057398796081543,0.28486499190330505,-0.13120800256729126
1750559014065636600,7.53563671875,-0.388496994972229,0.1781730055809021,-0.03803199902176857
1750559014075240700,7.54524072265625,-0.3030160069465637,0.022216999903321266,-0.0357699990272522
1750559014084844500,7.554844482421875,-0.23016400635242462,0.016047000885009766,-0.07747799903154373
1750559014094448600,7.56444873046875,-0.06838499754667282,0.0004419999895617366,-0.006409999914467335
1750559014104052500,7.574052490234375,-0.0051449998281896114,-0.031755998730659485,0.20461100339889526
1750559014113656600,7.583656494140625,-0.014100000262260437,-0.09032800048589706,0.4580569863319397
1750559014123260700,7.5932607421875,-0.11868900060653687,-0.1658570021390915,0.5832489728927612
1750559014132864500,7.602864501953125,0.11366000026464462,-0.23690199851989746,0.4149419963359833
1750559014142468600,7.612468505859375,0.4218420088291168,-0.243027001619339,0.2276040017604828
1750559014152072400,7.622072509765625,0.1459220051765442,-0.26182499527931213,0.1165739968419075
1750559014161676300,7.63167626953125,0.012741999700665474,-0.17550000548362732,0.10378199815750122
1750559014171280400,7.6412802734375,0.05282900109887123,-0.04492799937725067,0.050717998296022415
1750559014180884200,7.65088427734375,0.05096299946308136,-0.04197600111365318,-0.013669000007212162
1750559014190488300,7.66048828125,0.06189600005745888,-0.05382600054144859,-0.056435998529195786
1750559014200092400,7.670092529296875,0.40174600481987,-0.026882000267505646,-0.17503100633621216
1750559014209696300,7.6796962890625,0.5880849957466125,-0.08923699706792831,-0.1662919968366623
1750559014219300400,7.68930029296875,0.6113880276679993,-0.055649999529123306,-0.11585299670696259
1750559014228904200,7.698904296875,0.5791299939155579,0.06136099994182587,-0.11447799950838089
1750559014238508300,7.70850830078125,0.46324899792671204,0.06469999998807907,-0.11883600056171417
1750559014248112400,7.7181123046875,0.28370600938796997,0.11830499768257141,0.01964000053703785
1750559014257716200,7.72771630859375,0.14821100234985352,0.10519599914550781,0.006192999891936779
1750559014267320000,7.737320068359375,0.1320739984512329,0.09005499631166458,-0.09201399981975555
1750559014276924200,7.746924072265625,0.1220640018582344,0.18109199404716492,-0.21623200178146362
1750559014286528000,7.756528076171875,0.08393699675798416,0.17757700383663177,-0.18540999293327332
1750559014296132000,7.766132080078125,-0.05358799919486046,0.07891999930143356,0.07327499985694885
1750559014305736200,7.775736083984375,-0.147474005818367,-0.08020099997520447,0.2507149875164032
1750559014315340000,7.785340087890625,-0.1257839947938919,-0.06700800359249115,0.21952299773693085
1750559014324944000,7.79494384765625,0.028829999268054962,0.008481999859213829,-0.016070999205112457
1750559014334548000,7.8045478515625,0.10232699662446976,0.09132000058889389,-0.16019099950790405
1750559014344152000,7.814152099609375,0.0696600005030632,0.07904499769210815,-0.1457110047340393
1750559014353756000,7.823755859375,-0.07857000082731247,0.06887300312519073,-0.03534499928355217
1750559014363360000,7.833360107421875,-0.21225200593471527,0.057103998959064484,0.17377899587154388
1750559014372964000,7.842964111328125,-0.16936199367046356,0.012682000175118446,0.13872599601745605
1750559014382567700,7.852567626953125,0.09474500268697739,0.06683400273323059,-0.03253600001335144
1750559014392171800,7.862171875,0.15183599293231964,0.04107299819588661,-0.06185400113463402
1750559014401775900,7.87177587890625,0.06240300089120865,0.027612999081611633,-0.18330399692058563
1750559014411379700,7.881379638671875,-0.05174899846315384,0.034047000110149384,-0.24822500348091125
1750559014420983800,7.89098388671875,-0.12964299321174622,0.14000700414180756,-0.20963099598884583
1750559014430587600,7.900587646484375,-0.18327000737190247,0.15430499613285065,-0.184005007147789
1750559014440191700,7.910191650390625,-0.24585199356079102,0.09610699862241745,-0.0857509970664978
1750559014449795600,7.919795654296875,-0.1943950057029724,0.043841999024152756,0.021448999643325806
1750559014459399700,7.929399658203125,-0.06372299790382385,-0.03663799911737442,0.06255300343036652
1750559014469003800,7.939003662109375,0.1649630069732666,-0.06545700132846832,0.011374999769032001
1750559014478607600,7.948607666015625,0.2489060014486313,-0.06866700202226639,-0.07445699721574783
1750559014488211700,7.958211669921875,0.20348399877548218,-0.04321499913930893,-0.14196300506591797
1750559014497815800,7.96781591796875,0.06969399750232697,0.0456169992685318,-0.13762299716472626
1750559014507419600,7.977419677734375,-0.013822999782860279,0.05213499814271927,-0.03784999996423721
1750559014517023500,7.9870234375,-0.14308799803256989,0.06277699768543243,0.07036899775266647
1750559014526627300,7.99662744140625,-0.2495969980955124,0.059505000710487366,0.09533800184726715
1750559014536231400,8.0062314453125,-0.16394199430942535,0.025212999433279037,0.011544999666512012
1750559014545835300,8.015835205078124,-0.038054000586271286,0.0714849978685379,-0.13731299340724945
1750559014555439400,8.025439453125,-0.035948000848293304,0.01673799939453602,-0.14068900048732758
1750559014565043500,8.03504345703125,-0.10486800223588943,-0.0007190000033006072,-0.058389998972415924
1750559014574647300,8.044647216796875,-0.1337919980287552,0.01587199978530407,-0.02865999937057495
1750559014584251100,8.054251220703126,-0.02898699976503849,-0.007474999874830246,-0.009589999914169312
1750559014593855500,8.06385546875,-0.016634000465273857,-0.05560300126671791,0.0712060034275055
1750559014603459300,8.073459228515626,-0.11025600135326385,-0.07229900360107422,0.07242099940776825
1750559014613063200,8.083063232421875,-0.2860580086708069,-0.09841600060462952,0.09630399942398071
1750559014622667300,8.092667236328126,-0.3177820146083832,-0.08672299981117249,0.14133499562740326
1750559014632271000,8.10227099609375,-0.19217100739479065,-0.049842000007629395,0.1410129964351654
1750559014641875200,8.111875244140625,-0.12007500231266022,-0.12372100353240967,0.15369099378585815
1750559014651479000,8.12147900390625,0.005239999853074551,-0.10655199736356735,0.21292099356651306
1750559014661083100,8.131083251953125,-0.024459000676870346,-0.15914200246334076,0.23372100293636322
1750559014670687000,8.14068701171875,-0.10710100084543228,-0.14936700463294983,0.16664500534534454
1750559014680291000,8.150291015625,-0.0805480033159256,-0.07857300341129303,-0.0008660000166855752
1750559014689895200,8.159895263671874,0.11372700333595276,0.028480999171733856,-0.11506299674510956
1750559014699499000,8.1694990234375,0.21918199956417084,-0.024181999266147614,-0.05419600009918213
1750559014709103000,8.17910302734375,0.14695000648498535,-0.0025659999810159206,-0.0319099985063076
1750559014718707000,8.18870703125,0.03180000185966492,-0.012798000127077103,-0.005824999883770943
1750559014728310800,8.198310791015626,-0.055410001426935196,0.013411999680101871,-0.0696519985795021
1750559014737915000,8.207914794921875,-0.1965550035238266,0.016755999997258186,-0.12295299768447876
1750559014747518700,8.217518798828126,-0.24078699946403503,-0.004997000098228455,-0.04839099943637848
1750559014757122800,8.227122802734375,0.0017049999441951513,-0.046528998762369156,0.1771160066127777
1750559014766726700,8.2367265625,0.31558600068092346,-0.09535600244998932,0.40819498896598816
1750559014776330800,8.246330810546874,0.32148799300193787,-0.14020200073719025,0.41687700152397156
1750559014785934800,8.255934814453125,0.45593899488449097,-0.13132700324058533,0.3865709900856018
1750559014795538700,8.26553857421875,0.4281350076198578,-0.03807000070810318,0.22371000051498413
1750559014805142800,8.275142822265625,0.29507800936698914,-0.054026998579502106,0.1341490000486374
1750559014814746600,8.28474658203125,0.226965993642807,-0.006519000045955181,0.008321000263094902
1750559014824350500,8.2943505859375,-0.009680000133812428,0.010014000348746777,-0.06142900139093399
1750559014833954600,8.30395458984375,-0.06575699895620346,0.19240300357341766,-0.17386400699615479
1750559014843558400,8.313558349609375,0.2220969945192337,0.3597869873046875,-0.24104100465774536
1750559014853162500,8.32316259765625,0.5367040038108826,0.3609830141067505,-0.08517099916934967
1750559014862766600,8.3327666015625,1.044424057006836,0.40836599469184875,0.2066980004310608
1750559014872370400,8.342370361328125,2.6410319805145264,-0.028514999896287918,0.7610480189323425
1750559014881974500,8.351974609375,3.700809955596924,-0.4795359969139099,0.9947659969329834
1750559014891578400,8.361578369140625,4.082549095153809,-0.543595016002655,0.9351189732551575
1750559014901182500,8.371182373046874,4.881929874420166,-0.6880829930305481,0.9155139923095703
1750559014910786300,8.380786376953125,6.237714767456055,-0.3486199975013733,0.006630999967455864
1750559014920390100,8.39039013671875,9.879958152770996,0.3159579932689667,-1.527448058128357
1750559014929994200,8.399994140625,13.405195236206055,-0.5010679960250854,-2.504211902618408
1750559014939598300,8.409598388671874,13.399066925048828,-1.693640947341919,-3.4431140422821045
1750559014949202400,8.419202392578125,11.420919418334961,-2.9630300998687744,-2.627639055252075
1750559014958806500,8.428806640625,9.277555465698242,-3.9607040882110596,-1.5657620429992676
1750559014968410000,8.43841015625,7.838490009307861,-4.5760178565979,-1.4180279970169067
1750559014978014200,8.44801416015625,6.633825778961182,-5.298972129821777,-1.253517985343933
1750559014987618300,8.457618408203125,4.146853923797607,-6.2333598136901855,-0.3436500132083893
1750559014997222100,8.46722216796875,0.8904600143432617,-6.104137897491455,-0.3999600112438202
1750559015006826200,8.476826171875,-2.865920066833496,-4.921144962310791,-0.4724760055541992
1750559015016430000,8.48643017578125,-7.976599216461182,-3.079197883605957,-0.3019759953022003
1750559015026034200,8.4960341796875,-11.249199867248535,-1.5889689922332764,0.29730498790740967
1750559015035637800,8.5056376953125,-12.211082458496094,-0.9469419717788696,0.8557320237159729
1750559015045241900,8.515241943359374,-12.136401176452637,-0.8959540128707886,1.4080849885940552
1750559015054846000,8.524845947265625,-11.748336791992188,-1.3537349700927734,1.38100004196167
1750559015064449800,8.53444970703125,-11.185888290405273,-1.647765040397644,1.4114439487457275
1750559015074054000,8.544053955078125,-10.916006088256836,-1.4659429788589478,1.5296950340270996
1750559015083658000,8.553657958984376,-11.213279724121094,-1.5502170324325562,1.7112339735031128
1750559015093261800,8.56326171875,-11.764467239379883,-1.515442967414856,1.6926569938659668
1750559015102866000,8.572865966796876,-12.306479454040527,-1.1576030254364014,1.6294430494308472
1750559015112469800,8.5824697265625,-12.774221420288086,-0.9726449847221375,1.5751169919967651
1750559015122073900,8.592073974609375,-12.565698623657227,-1.325374960899353,1.1924810409545898
1750559015131677700,8.601677734375,-11.020208358764648,-1.8024719953536987,0.48361000418663025
1750559015141281800,8.61128173828125,-7.996391773223877,-2.245306968688965,-0.2486799955368042
1750559015150885600,8.6208857421875,-5.2942681312561035,-2.4768590927124023,-0.664680004119873
1750559015160489700,8.63048974609375,-3.43721604347229,-2.566131114959717,-0.7526689767837524
1750559015170093600,8.640093505859374,-2.204287052154541,-2.2094500064849854,-1.1293200254440308
1750559015179697700,8.64969775390625,-1.2223780155181885,-1.8963650465011597,-1.3779460191726685
1750559015189301500,8.659301513671876,-1.0470119714736938,-1.9129619598388672,-1.0718220472335815
1750559015198905600,8.668905517578125,-1.8936189413070679,-2.243880033493042,-0.6454150080680847
1750559015208509400,8.678509521484376,-2.7593400478363037,-2.6337730884552,-0.2032960057258606
1750559015218113500,8.688113525390625,-0.5378000140190125,-3.4604930877685547,0.10632000118494034
1750559015227717600,8.697717529296876,5.577079772949219,-3.2934999465942383,-0.3937700092792511
1750559015237321500,8.707321533203125,12.455696105957031,-3.034658908843994,-0.7851999998092651
1750559015246925300,8.71692529296875,15.295422554016113,-3.6534340381622314,-0.28596699237823486
1750559015256529400,8.726529296875,13.96200942993164,-3.8094100952148438,1.1793529987335205
1750559015266133200,8.73613330078125,10.415971755981445,-3.344999074935913,2.5078699588775635
1750559015275737300,8.7457373046875,6.7784929275512695,-2.7814669609069824,2.8552699089050293
1750559015285341200,8.755341064453125,4.669591903686523,-2.3095779418945312,2.6761600971221924
1750559015294945300,8.7649453125,3.0560240745544434,-1.6423859596252441,1.9194129705429077
1750559015304549400,8.77454931640625,1.4039069414138794,-1.0104379653930664,1.1391069889068604
1750559015314153200,8.7841533203125,0.19416099786758423,-0.27090299129486084,0.8095870018005371
1750559015323757300,8.79375732421875,0.12547899782657623,-0.09721899777650833,0.6468290090560913
1750559015333361200,8.803361083984376,1.0508379936218262,-0.33223599195480347,0.5708209872245789
1750559015342965000,8.812965087890625,1.053333044052124,-0.37766599655151367,0.43570300936698914
1750559015352569000,8.822569091796876,0.13755400478839874,-0.1759919971227646,0.3059149980545044
1750559015362173000,8.8321728515625,-0.17285899817943573,0.3350580036640167,0.04263199865818024
1750559015371777000,8.841777099609375,0.2416989952325821,0.5542920231819153,-0.10874199867248535
1750559015381381000,8.851381103515624,0.40500399470329285,0.5859990119934082,-0.1884859949350357
1750559015390985000,8.86098486328125,0.4492869973182678,0.5397329926490784,0.030107000842690468
1750559015400589000,8.870589111328124,0.6450620293617249,0.39848899841308594,0.1572059988975525
1750559015410193000,8.88019287109375,1.0738329887390137,0.23414500057697296,0.1566469967365265
1750559015419797000,8.889796875,1.5859520435333252,0.2407580018043518,-0.07931999862194061
1750559015429400800,8.89940087890625,1.6523070335388184,0.27445200085639954,-0.3626039922237396
1750559015439005000,8.9090048828125,1.2866920232772827,0.2930789887905121,-0.4153299927711487
1750559015448609000,8.918609130859375,0.747518002986908,0.31101199984550476,-0.39496099948883057
1750559015458212600,8.928212646484376,0.2517389953136444,0.22120800614356995,-0.4034450054168701
1750559015467817000,8.93781689453125,-0.15506699681282043,0.26285600662231445,-0.4955739974975586
1750559015477420500,8.947420654296875,-0.3116610050201416,0.35855600237846375,-0.5113480091094971
1750559015487024600,8.957024658203125,-0.19049300253391266,0.5024030208587646,-0.4923900067806244
1750559015496628500,8.96662841796875,-0.07678999751806259,0.4791939854621887,-0.4359549880027771
1750559015506232600,8.976232666015624,0.3160490095615387,0.3111959993839264,-0.4061320126056671
1750559015515836700,8.985836669921875,0.8626710176467896,0.22195099294185638,-0.28839200735092163
1750559015525440500,8.9954404296875,1.149507999420166,-0.016704000532627106,-0.03998599946498871
1750559015535044600,9.005044677734375,1.2521350383758545,-0.2217870056629181,0.0802220031619072
1750559015544648700,9.014648681640624,1.0905909538269043,-0.27752500772476196,0.07850400358438492
1750559015554252300,9.024252197265625,0.5218709707260132,-0.1538819968700409,0.061430998146533966
1750559015563856400,9.0338564453125,-0.02968199923634529,0.02142300084233284,0.12604300677776337
1750559015573460500,9.04346044921875,-0.38643500208854675,0.07352299988269806,0.19089099764823914
1750559015583064300,9.053064208984376,-0.5660390257835388,0.020377999171614647,0.16350600123405457
1750559015592668400,9.06266845703125,-0.39573198556900024,-0.047210000455379486,0.26161500811576843
1750559015602272300,9.072272216796875,-0.29389798641204834,-0.17066800594329834,0.33555999398231506
1750559015611876400,9.08187646484375,-0.06734000146389008,-0.205702006816864,0.3045459985733032
1750559015621480400,9.09148046875,-0.027806000784039497,-0.18057000637054443,0.1893559992313385
1750559015631084300,9.101084228515624,-0.00031800000579096377,-0.1552949994802475,0.006360999774187803
1750559015640688400,9.1106884765625,0.3665600121021271,-0.026341000571846962,-0.30440399050712585
1750559015650292200,9.120292236328124,0.5336290001869202,0.11348800361156464,-0.5078629851341248
1750559015659896300,9.129896240234375,0.10270000249147415,0.16438399255275726,-0.5554109811782837
1750559015669500200,9.139500244140624,-0.31147900223731995,0.1461700052022934,-0.5513569712638855
1750559015679104000,9.14910400390625,-0.5431730151176453,0.21188600361347198,-0.5948579907417297
1750559015688708400,9.158708251953126,-0.5871130228042603,0.23653200268745422,-0.5010660290718079
1750559015698312000,9.16831201171875,-0.4799239933490753,0.15575599670410156,-0.3923589885234833
1750559015707916000,9.177916015625,-0.14157499372959137,0.0708020031452179,-0.29320600628852844
1750559015717520100,9.18752001953125,0.23490400612354279,-0.07500699907541275,-0.09662000089883804
1750559015727124000,9.1971240234375,0.19877900183200836,-0.2620159983634949,0.048225000500679016
1750559015736728000,9.20672802734375,0.0014449999434873462,-0.3458090126514435,0.09556300193071365
1750559015746332000,9.216331787109375,-0.18623900413513184,-0.25702399015426636,-0.009441999718546867
1750559015755936000,9.22593603515625,-0.3060530126094818,-0.13507699966430664,-0.1326189935207367
1750559015765540000,9.2355400390625,-0.36399099230766296,-0.017083000391721725,-0.15045799314975739
1750559015775143700,9.245143798828124,-0.343284010887146,-0.01607999950647354,-0.02778100036084652
1750559015784747800,9.254747802734375,-0.352632999420166,-0.11949799954891205,0.21305300295352936
1750559015794351600,9.2643515625,-0.39284399151802063,-0.20675599575042725,0.43899300694465637
1750559015803955700,9.273955810546875,-0.2741979956626892,-0.29249098896980286,0.4700379967689514
1750559015813559600,9.2835595703125,-0.1117049977183342,-0.38158100843429565,0.46657100319862366
1750559015823163600,9.29316357421875,-0.08733300119638443,-0.46430298686027527,0.3317669928073883
1750559015832767700,9.302767822265626,-0.006668000016361475,-0.4093340039253235,0.24904599785804749
1750559015842371800,9.312371826171875,0.038405001163482666,-0.36887699365615845,0.1199060007929802
1750559015851975700,9.3219755859375,-0.006990000139921904,-0.28565001487731934,0.13514100015163422
1750559015861579500,9.33157958984375,-0.20982199907302856,-0.21243800222873688,0.19208499789237976
1750559015871183400,9.341183349609375,-0.38100600242614746,-0.13229900598526,0.17667099833488464
1750559015880787700,9.35078759765625,-0.3627449870109558,-0.023360000923275948,0.0041519999504089355
1750559015890391600,9.3603916015625,-0.25552400946617126,0.0015770000172778964,-0.10130099952220917
1750559015899995600,9.36999560546875,-0.17189499735832214,0.007100999820977449,-0.21535299718379974
1750559015909599500,9.379599609375,-0.027974000200629234,0.06265000253915787,-0.38047999143600464
1750559015919203600,9.38920361328125,-0.01484300009906292,0.14853200316429138,-0.3811799883842468
1750559015928807400,9.398807373046875,-0.14073899388313293,0.17223000526428223,-0.3097589910030365
1750559015938411300,9.408411376953126,-0.08572100102901459,0.13908100128173828,-0.15993300080299377
1750559015948015400,9.418015380859375,0.06327799707651138,0.06878399848937988,0.03856100142002106
1750559015957619500,9.427619384765626,0.32183700799942017,-0.11404100060462952,0.21029099822044373
1750559015967223000,9.43722314453125,0.53398597240448,-0.21696700155735016,0.2697890102863312
1750559015976827100,9.4468271484375,0.5277609825134277,-0.1752929985523224,0.16943000257015228
1750559015986431200,9.45643115234375,0.386929988861084,-0.06083400174975395,0.031077999621629715
1750559015996035000,9.46603515625,0.2492620050907135,0.11526499688625336,-0.028880000114440918
1750559016005639200,9.47563916015625,0.17613999545574188,0.23656299710273743,-0.14842799305915833
1750559016015243300,9.4852431640625,0.04673900082707405,0.19620299339294434,-0.09902399778366089
1750559016024847000,9.49484716796875,0.014127000235021114,0.10203800350427628,-0.091000996530056
1750559016034451200,9.504451171875,0.16122999787330627,0.04826600104570389,-0.01345400046557188
1750559016044055000,9.514054931640626,0.10047300159931183,-0.046886999160051346,0.023956000804901123
1750559016053659100,9.5236591796875,0.11682199686765671,-0.013415000401437283,0.06766600161790848
1750559016063263000,9.533262939453126,0.2300959974527359,-0.03375300019979477,0.06348299980163574
1750559016072866800,9.54286669921875,0.3651309907436371,-0.06626299768686295,0.1933699995279312
1750559016082471000,9.552470947265626,0.3710930049419403,-0.08951999992132187,0.32662099599838257
1750559016092075000,9.562074951171875,0.3506680130958557,-0.21080799400806427,0.4496000111103058
1750559016101678800,9.571678955078125,0.3239240050315857,-0.2656320035457611,0.43350300192832947
1750559016111282700,9.58128271484375,0.1689399927854538,-0.225615993142128,0.3714820146560669
1750559016120886800,9.59088671875,-0.04434899985790253,-0.09877800196409225,0.25991299748420715
1750559016130490600,9.60049072265625,-0.13432300090789795,0.04113699868321419,0.07295399904251099
1750559016140094700,9.6100947265625,-0.19777700304985046,0.13298900425434113,-0.038405001163482666
1750559016149698800,9.61969873046875,-0.24195300042629242,0.15533599257469177,-0.06417600065469742
1750559016159302700,9.629302734375,-0.15073899924755096,0.12865400314331055,-0.0570559985935688
1750559016168906800,9.63890673828125,0.05095199868083,0.05164000019431114,-0.12038400024175644
1750559016178510600,9.648510498046875,0.231782004237175,0.06272699683904648,-0.20422600209712982
1750559016188114400,9.658114501953126,0.27445799112319946,0.10186599940061569,-0.2227800041437149
1750559016197718800,9.66771875,0.13940399885177612,0.14606499671936035,-0.12270200252532959
1750559016207322600,9.677322509765625,-0.06646200269460678,0.10981599986553192,0.06393499672412872
1750559016216926500,9.686926513671875,-0.17502999305725098,0.12943199276924133,0.056575000286102295
1750559016226530600,9.696530517578125,-0.21947099268436432,0.13293099403381348,-0.014003000222146511
1750559016236134400,9.706134521484374,-0.12431599944829941,0.1599150002002716,-0.13254399597644806
1750559016245738500,9.715738525390625,0.044707998633384705,0.1564520001411438,-0.27090099453926086
1750559016255342300,9.72534228515625,-0.004548000171780586,0.1391180008649826,-0.309594988822937
1750559016264946400,9.734946533203125,-0.022857999429106712,0.09782800078392029,-0.18416200578212738
1750559016274550300,9.74455029296875,0.0023930000606924295,0.01746699959039688,-0.047155000269412994
1750559016284154000,9.754154052734375,0.027591999620199203,-0.019857000559568405,-0.027953999117016792
1750559016293758200,9.76375830078125,0.1417119950056076,-0.02867100015282631,-0.05885300040245056
1750559016303362000,9.773362060546875,0.1834229975938797,-0.051208000630140305,-0.06427399814128876
1750559016312966100,9.782966064453126,-0.03000600077211857,-0.08679500222206116,-0.053008001297712326
1750559016322570200,9.7925703125,-0.27882298827171326,-0.051238998770713806,0.0016980000073090196
1750559016332174300,9.80217431640625,-0.40469300746917725,-0.02837499976158142,-0.06958600133657455
1750559016341778200,9.811778076171874,-0.39193499088287354,0.03321399912238121,-0.11103899776935577
1750559016351382300,9.82138232421875,-0.4673979878425598,0.05600599944591522,-0.0034990001004189253
1750559016360986000,9.830986083984374,-0.5424420237541199,0.04217199981212616,0.1273290067911148
1750559016370590200,9.840590087890625,-0.4480710029602051,-0.004850999917834997,0.23267899453639984
1750559016380194000,9.850194091796874,-0.3101179897785187,-0.04049399867653847,0.2905929982662201
1750559016389798100,9.859798095703125,-0.0566210001707077,-0.11009199917316437,0.17825600504875183
1750559016399402200,9.86940234375,0.35239100456237793,-0.05708099901676178,0.032926999032497406
1750559016409006000,9.879006103515625,0.6574130058288574,-0.06247999891638756,-0.022123999893665314
1750559016418610000,9.88860986328125,0.6503220200538635,-0.07165999710559845,0.08687900006771088
1750559016428214000,9.898214111328125,0.5270950198173523,-0.09884099662303925,0.14997799694538116
1750559016437817900,9.90781787109375,0.3266949951648712,-0.08973299711942673,0.1361899971961975
1750559016447422000,9.917421875,0.21806600689888,-0.059911999851465225,-0.0247809998691082
1750559016457025800,9.92702587890625,0.16719600558280945,0.03910699859261513,-0.23690900206565857
1750559016466630000,9.9366298828125,0.1898059993982315,0.06238900125026703,-0.4308300018310547
1750559016476233700,9.946233642578125,0.23379899561405182,0.10495100170373917,-0.32656699419021606
1750559016485837600,9.955837646484374,0.10440400242805481,0.10494499653577805,-0.048815999180078506
1750559016495441700,9.965441650390625,-0.006512000225484371,0.040672000497579575,0.1620820015668869
1750559016505045500,9.97504541015625,-0.10572999715805054,-0.011397999711334705,0.2639380097389221
1750559016514649600,9.984649658203125,-0.20533399283885956,-0.02236800082027912,0.2545599937438965
1750559016524253700,9.994253662109376,-0.23513199388980865,-0.04323099926114082,0.1780720055103302
1750559016533857500,10.003857421875,-0.25308001041412354,-0.08062300086021423,0.0824659988284111
1750559016543461600,10.013461669921876,-0.2501220107078552,-0.047853998839855194,0.009747999720275402
1750559016553065500,10.0230654296875,-0.2956799864768982,-0.03599900007247925,0.052685000002384186
1750559016562669600,10.032669677734376,-0.3690190017223358,-0.05861600115895271,0.11778099834918976
1750559016572273400,10.0422734375,-0.2794159948825836,-0.07886099815368652,0.08538500219583511
1750559016581877200,10.051877197265625,-0.07639099657535553,-0.03756700083613396,0.024017000570893288
1750559016591481600,10.061481689453124,-0.059758998453617096,-0.06119899824261665,-0.005164999980479479
1750559016601085200,10.071085205078125,-0.08580999821424484,-0.0972139984369278,0.027685999870300293
1750559016610689300,10.080689208984374,-0.059174999594688416,-0.08772099763154984,0.015768999233841896
1750559016620293000,10.090293212890625,0.06000399962067604,-0.015080000273883343,0.01643200032413006
1750559016629897200,10.099897216796874,0.07398399710655212,0.009544000029563904,0.008262000046670437
1750559016639501300,10.109501220703125,0.16821900010108948,-0.005284000188112259,-0.06114700064063072
1750559016649105200,10.119105224609376,0.27062198519706726,-0.028085000813007355,-0.09628699719905853
1750559016658709200,10.128709228515625,0.26981499791145325,-0.0026499999221414328,-0.16848400235176086
1750559016668313000,10.13831298828125,0.3092089891433716,0.09271500259637833,-0.2606639862060547
1750559016677917200,10.147917236328125,0.24381199479103088,0.14431899785995483,-0.28238698840141296
1750559016687521300,10.157521240234376,0.031029999256134033,0.15618300437927246,-0.21173399686813354
1750559016697125000,10.167125,-0.08431500196456909,0.1755799949169159,-0.051203999668359756
1750559016706729000,10.17672900390625,-0.10025399923324585,0.11951500177383423,-0.0025790000800043344
1750559016716333000,10.1863330078125,-0.0722540020942688,0.11778800189495087,0.006622000131756067
1750559016725937000,10.19593701171875,-0.11811599880456924,0.07976499944925308,0.07507800310850143
1750559016735541000,10.205541015625,-0.23598599433898926,-0.025134000927209854,0.17366400361061096
1750559016745144800,10.215144775390625,-0.33971500396728516,-0.08911100029945374,0.24856700003147125
1750559016754749000,10.2247490234375,-0.3908880054950714,-0.06673400104045868,0.22246399521827698
1750559016764353000,10.23435302734375,-0.3164219856262207,-0.028471000492572784,0.12227799743413925
1750559016773956900,10.243956787109376,-0.3193950057029724,-0.027507999911904335,0.18443599343299866
1750559016783561000,10.25356103515625,-0.4449310004711151,-0.03573700040578842,0.2432660013437271
1750559016793164800,10.263164794921876,-0.649429976940155,-0.08003900200128555,0.31356000900268555
1750559016802769000,10.272768798828125,-1.0691850185394287,-0.21338100731372833,0.5532500147819519
1750559016812372700,10.282372802734375,-1.3473960161209106,-0.2902980148792267,0.7024499773979187
1750559016821976600,10.2919765625,-1.3735510110855103,-0.2282409965991974,0.4994269907474518
1750559016831580700,10.30158056640625,-1.1661180257797241,-0.20738700032234192,0.5039730072021484
1750559016841184500,10.3111845703125,-0.8525149822235107,-0.22201299667358398,0.23582099378108978
1750559016850788600,10.32078857421875,0.13321100175380707,0.1687840074300766,-0.09055899828672409
1750559016860392700,10.330392822265624,0.6264659762382507,0.21654200553894043,-0.14322100579738617
1750559016869996500,10.33999658203125,0.7705489993095398,0.22706499695777893,-0.13885299861431122
1750559016879600600,10.3496005859375,0.8415060043334961,0.25450098514556885,-0.22118300199508667
1750559016889204700,10.359204833984375,0.698261022567749,0.09469600021839142,-0.22089900076389313
1750559016898808600,10.36880859375,0.3291040062904358,0.12009300291538239,-0.2824989855289459
1750559016908412400,10.378412353515625,0.3432120084762573,0.33235499262809753,-0.3044919967651367
1750559016918016500,10.3880166015625,0.40704700350761414,0.41179201006889343,-0.13983599841594696
1750559016927620400,10.397620361328125,2.045443058013916,0.5774980187416077,-0.3202719986438751
1750559016937224400,10.407224365234375,5.680582046508789,0.569549024105072,-0.3861660063266754
1750559016946828300,10.416828369140624,9.243427276611328,-0.15011100471019745,-0.29759401082992554
1750559016956432400,10.426432373046875,11.558196067810059,-1.0786000490188599,-0.32872599363327026
1750559016966036200,10.4360361328125,11.607003211975098,-1.8385109901428223,0.08504100143909454
1750559016975640300,10.445640380859375,10.824175834655762,-1.906738042831421,0.14100100100040436
1750559016985244200,10.455244140625,10.535167694091797,-1.8086919784545898,-0.1467369943857193
1750559016994848000,10.464847900390625,10.149752616882324,-1.5184370279312134,-1.474226951599121
1750559017004452000,10.4744521484375,11.474061965942383,-1.2836229801177979,-3.362520933151245
1750559017014056200,10.48405615234375,12.433302879333496,-2.4690499305725098,-3.72216796875
1750559017023660000,10.493659912109376,10.056968688964844,-3.7532451152801514,-4.028102874755859
1750559017033264000,10.50326416015625,8.312540054321289,-5.037509918212891,-3.06542706489563
1750559017042868000,10.512867919921876,5.961582183837891,-6.266427040100098,-2.0387818813323975
1750559017052472000,10.52247216796875,1.946923017501831,-6.221622943878174,-1.7946560382843018
1750559017062076000,10.532075927734375,-1.2657150030136108,-5.251657009124756,-1.9566709995269775
1750559017071680000,10.541679931640624,-3.5026330947875977,-4.785134792327881,-1.762004017829895
1750559017081284000,10.5512841796875,-6.182098865509033,-4.364177227020264,-1.8754969835281372
1750559017090888000,10.560887939453124,-8.165146827697754,-3.720557928085327,-1.295274019241333
1750559017100492000,10.570491943359375,-8.9234619140625,-3.091491937637329,-1.5576080083847046
1750559017110096000,10.580095947265624,-7.263869762420654,-2.1302549839019775,-1.3397560119628906
1750559017119699700,10.58969970703125,-5.6290202140808105,-2.6293210983276367,0.07286900281906128
1750559017129303800,10.5993037109375,-6.035990238189697,-3.4685800075531006,0.9452829957008362
1750559017138907600,10.60890771484375,-5.970768928527832,-3.6457560062408447,1.882830023765564
1750559017148511700,10.61851171875,-5.641329765319824,-3.5373260974884033,2.0231618881225586
1750559017158115800,10.62811572265625,-6.957061767578125,-3.21213698387146,1.5834050178527832
1750559017167719700,10.6377197265625,-8.548815727233887,-2.616424083709717,1.7470170259475708
1750559017177323800,10.64732373046875,-9.36882209777832,-2.1709089279174805,2.1467690467834473
1750559017186927600,10.656927734375,-10.532690048217773,-2.005697011947632,2.5431439876556396
1750559017196531500,10.666531494140624,-11.894264221191406,-2.1816210746765137,3.005743980407715
1750559017206135600,10.676135498046875,-12.378580093383789,-2.162307024002075,2.9430270195007324
1750559017215739400,10.685739501953124,-11.849764823913574,-2.304680109024048,1.8552000522613525
1750559017225343500,10.695343505859375,-9.839208602905273,-2.669847011566162,0.6337270140647888
1750559017234947300,10.704947265625,-7.312619209289551,-3.071674108505249,0.2933180034160614
1750559017244551400,10.714551513671875,-5.779831886291504,-3.3877429962158203,0.21183399856090546
1750559017254155300,10.7241552734375,-4.883650779724121,-3.7936160564422607,0.32023099064826965
1750559017263759400,10.73375927734375,-5.091594219207764,-4.109610080718994,0.6309900283813477
1750559017273363500,10.743363525390626,-5.12025785446167,-4.2367987632751465,0.16005699336528778
1750559017282967000,10.752967041015625,-4.148591995239258,-5.428430080413818,-1.2356189489364624
1750559017292571400,10.7625712890625,-0.6651530265808105,-5.946609020233154,-4.537590026855469
1750559017302175200,10.77217529296875,6.5921831130981445,-4.475016117095947,-5.853443145751953
1750559017311779000,10.781779052734375,13.53389835357666,-4.319814205169678,-4.510217189788818
1750559017321383200,10.791383056640624,16.861492156982422,-4.921834945678711,-2.3955070972442627
1750559017330987000,10.800987060546875,17.478164672851562,-4.680476188659668,-1.5707440376281738
1750559017340591000,10.810591064453124,16.69617462158203,-4.120328903198242,-0.2886649966239929
1750559017350195000,10.82019482421875,14.204919815063477,-3.8103649616241455,0.9847059845924377
1750559017359799000,10.829799072265626,11.683294296264648,-3.551124095916748,1.2466520071029663
1750559017369403100,10.839403076171875,9.365304946899414,-2.8083629608154297,1.0213910341262817
1750559017379007000,10.849007080078126,7.056289196014404,-2.3314919471740723,0.8891940116882324
1750559017388610800,10.85861083984375,5.540316104888916,-2.161578893661499,0.7846770286560059
1750559017398215000,10.86821484375,4.576388835906982,-2.3150360584259033,0.7682139873504639
1750559017407819000,10.877819091796875,3.9208250045776367,-2.3262178897857666,0.8545950055122375
1750559017417422800,10.8874228515625,3.6929171085357666,-2.1893320083618164,1.1089379787445068
1750559017427027000,10.89702685546875,3.168942928314209,-2.012017011642456,1.2305699586868286
1750559017436630800,10.906630859375,2.7126948833465576,-1.514435052871704,1.0614540576934814
1750559017446235000,10.91623486328125,3.027308940887451,-1.365556001663208,0.9135389924049377
1750559017455838700,10.925838623046875,3.4554619789123535,-1.651453971862793,0.9715250134468079
1750559017465442800,10.93544287109375,3.3755760192871094,-1.7335669994354248,0.8564969897270203
1750559017475046700,10.945046630859375,3.3132879734039307,-1.4478310346603394,0.4810450077056885
1750559017484650800,10.954650634765626,3.0713400840759277,-1.320665955543518,0.06447699666023254
1750559017494254600,10.964254638671875,2.4761180877685547,-1.1882590055465698,0.003599999938160181
1750559017503858700,10.973858642578126,1.9497380256652832,-1.107285976409912,-0.06942299753427505
1750559017513462500,10.983462646484375,1.6376999616622925,-1.0241010189056396,-0.15125299990177155
1750559017523066600,10.993066650390626,1.583745002746582,-0.9968050122261047,-0.09507600218057632
1750559017532670700,11.002670654296875,1.860605001449585,-0.797544002532959,-0.14999499917030334
1750559017542274600,11.012274658203125,2.0264780521392822,-0.7880039811134338,-0.2360139936208725
1750559017551878700,11.021878662109375,1.9230680465698242,-0.6133580207824707,-0.541467010974884
1750559017561482500,11.031482421875,1.5626109838485718,-0.40108901262283325,-0.6718339920043945
1750559017571086600,11.041086669921874,1.2497789859771729,-0.3157449960708618,-0.5945109724998474
1750559017580690400,11.0506904296875,0.9780480265617371,-0.27571800351142883,-0.4869079887866974
1750559017590294500,11.06029443359375,0.9157729744911194,-0.3123379945755005,-0.3733449876308441
1750559017599898400,11.0698984375,0.98158198595047,-0.3814679980278015,-0.31995999813079834
1750559017609502500,11.07950244140625,1.07151198387146,-0.3693769872188568,-0.4511120021343231
1750559017619106300,11.089106201171875,1.0743039846420288,-0.3584659993648529,-0.5159109830856323
1750559017628710400,11.09871044921875,0.7604590058326721,-0.3432610034942627,-0.40505701303482056
1750559017638314200,11.108314208984375,0.38058099150657654,-0.33461999893188477,-0.287321001291275
1750559017647918300,11.11791845703125,0.04806499928236008,-0.2400750070810318,-0.15984000265598297
1750559017657522400,11.1275224609375,-0.4263469874858856,-0.2651520073413849,-0.05275899916887283
1750559017667126300,11.137126220703125,-0.5958529710769653,-0.40549999475479126,0.18649500608444214
1750559017676730400,11.14673046875,-0.4341279864311218,-0.572052001953125,0.36005398631095886
1750559017686334000,11.156333984375,0.030737999826669693,-0.6736000180244446,0.3763769865036011
1750559017695938000,11.16593798828125,0.3957580029964447,-0.758840024471283,0.3719159960746765
1750559017705542100,11.175542236328125,0.5628780126571655,-0.6056100130081177,0.11423800140619278
1750559017715146000,11.18514599609375,0.692251980304718,-0.3563680052757263,-0.21348699927330017
1750559017724750000,11.19475,0.6985939741134644,-0.24178099632263184,-0.48335000872612
1750559017734354000,11.20435400390625,0.6209369897842407,-0.20501600205898285,-0.5370849967002869
1750559017743958000,11.2139580078125,0.19803400337696075,-0.24313800036907196,-0.44678300619125366
1750559017753562000,11.22356201171875,-0.13937999308109283,-0.30844399333000183,-0.3682990074157715
1750559017763166000,11.233166015625,-0.015529000200331211,-0.2485640048980713,-0.38667699694633484
1750559017772770000,11.24277001953125,0.22664299607276917,-0.2933860123157501,-0.31690898537635803
1750559017782373600,11.25237353515625,0.3054310083389282,-0.37643900513648987,-0.15618599951267242
1750559017791978000,11.26197802734375,0.33761098980903625,-0.4225749969482422,0.009618000127375126
1750559017801581600,11.27158154296875,0.40191298723220825,-0.4840660095214844,0.1135760024189949
1750559017811185700,11.281185546875,0.5395749807357788,-0.4941900074481964,0.1695380061864853
1750559017820789500,11.29078955078125,0.6217010021209717,-0.4985769987106323,0.11915899813175201
1750559017830393600,11.3003935546875,0.4592759907245636,-0.4325680136680603,0.06722400337457657
1750559017839997700,11.309997802734374,0.3296169936656952,-0.312747985124588,0.07253500074148178
1750559017849601500,11.3196015625,0.0697460025548935,-0.22054100036621094,0.12779100239276886
1750559017859205600,11.32920556640625,-0.19166000187397003,-0.23205499351024628,0.2201330065727234
1750559017868809500,11.3388095703125,-0.29379698634147644,-0.2423740029335022,0.2311670035123825
1750559017878413300,11.348413330078126,-0.025668000802397728,-0.23755599558353424,0.20503300428390503
1750559017888017400,11.358017333984375,0.17405499517917633,-0.2865529954433441,0.20564299821853638
1750559017897621500,11.36762158203125,0.20476900041103363,-0.25511500239372253,0.13572299480438232
1750559017907225300,11.377225341796875,0.20215600728988647,-0.08971799910068512,0.032940998673439026
1750559017916829200,11.3868291015625,0.1083500012755394,0.040011998265981674,-0.06462600082159042
1750559017926433300,11.396433349609374,-0.042059000581502914,0.12823200225830078,-0.24210700392723083
1750559017936037400,11.406037353515625,-0.0014049999881535769,0.19309000670909882,-0.278670996427536
1750559017945641200,11.41564111328125,0.09615600109100342,0.11013299971818924,-0.24862299859523773
1750559017955245300,11.425245361328125,0.014759999699890614,0.08407200127840042,-0.22808900475502014
1750559017964849200,11.43484912109375,-0.0756789967417717,0.1316930055618286,-0.18203699588775635
1750559017974453200,11.444453369140625,0.021981000900268555,0.12514400482177734,-0.08058000355958939
1750559017984057300,11.454057373046876,-0.06428299844264984,0.0748480036854744,0.06890799850225449
1750559017993661200,11.4636611328125,-0.0600380003452301,0.03691999986767769,0.14377300441265106
1750559018003265000,11.47326513671875,0.048020001500844955,-0.10487999767065048,0.1953669935464859
1750559018012868900,11.482868896484375,0.028224999085068703,-0.10677699744701385,0.14629800617694855
1750559018022473000,11.492472900390625,0.010424000211060047,-0.017132999375462532,-0.03405800089240074
1750559018032077000,11.5020771484375,-0.09399200230836868,0.06587400287389755,-0.1492460072040558
1750559018041681000,11.511680908203125,-0.22812899947166443,0.04692799970507622,-0.10906899720430374
1750559018051284700,11.52128466796875,-0.08442699909210205,0.046980999410152435,-0.14705699682235718
1750559018060889000,11.53088916015625,0.11635500192642212,0.013756999745965004,-0.048503000289201736
1750559018070492700,11.54049267578125,0.22824199497699738,-0.12467099726200104,0.06737499684095383
1750559018080096800,11.5500966796875,0.22233699262142181,-0.19081799685955048,0.1489109992980957
1750559018089700900,11.559700927734376,0.09996899962425232,-0.18351499736309052,0.13470099866390228
1750559018099304700,11.5693046875,-0.058625999838113785,-0.10164500027894974,0.1678670048713684
1750559018108908800,11.57890869140625,-0.27944499254226685,-0.0030380000825971365,0.1770869940519333
1750559018118512600,11.5885126953125,-0.31254100799560547,0.03716700151562691,0.1859229952096939
1750559018128116700,11.59811669921875,-0.11745800077915192,-0.01906600035727024,0.12911300361156464
1750559018137720800,11.607720947265625,0.01955300010740757,-0.01958099938929081,0.03939399868249893
1750559018147324400,11.617324462890625,0.037687998265028,-0.10233999788761139,0.11702000349760056
1750559018156928500,11.626928466796874,0.19390800595283508,-0.17466899752616882,0.1329679936170578
1750559018166532400,11.636532470703125,0.429966002702713,-0.12551799416542053,-0.021733000874519348
1750559018176136400,11.646136474609374,0.40102601051330566,-0.017173999920487404,-0.14891299605369568
1750559018185740500,11.655740478515625,0.22083799540996552,0.08188000321388245,-0.13968400657176971
1750559018195344400,11.665344482421874,-0.014930999837815762,0.12375400215387344,-0.032051000744104385
1750559018204948500,11.674948486328125,-0.18706099689006805,0.10182499885559082,0.023182999342679977
1750559018214552300,11.68455224609375,-0.10137999802827835,0.020912999287247658,0.00785799976438284
1750559018224156400,11.694156494140625,0.2902120053768158,-0.03037099912762642,-0.02267099916934967
1750559018233760000,11.703760009765626,0.49121901392936707,-0.08947999775409698,-0.08094900101423264
1750559018243364400,11.7133642578125,0.5800949931144714,-0.05305600166320801,-0.049463000148534775
1750559018252968200,11.72296826171875,0.46538200974464417,0.002463999902829528,0.013743000105023384
1750559018262572000,11.732572021484375,0.30047398805618286,0.026451999321579933,0.09624700248241425
1750559018272176000,11.742176025390625,0.1814880073070526,0.12152499705553055,0.05447300150990486
1750559018281780000,11.751780029296874,-0.0020290000829845667,0.14436599612236023,-0.04611999914050102
1750559018291384000,11.761384033203125,-0.016008999198675156,0.18674999475479126,-0.2224700003862381
1750559018300988000,11.77098779296875,0.08053799718618393,0.2241310030221939,-0.2585490047931671
1750559018310592000,11.780592041015625,-0.06989800184965134,0.10145600140094757,-0.17656399309635162
1750559018320195800,11.79019580078125,-0.18273599445819855,0.08950600028038025,-0.10349400341510773
1750559018329800000,11.799800048828125,-0.20558500289916992,0.09764499962329865,0.030352000147104263
1750559018339404000,11.809404052734376,-0.16641800105571747,0.04857100173830986,0.14940400421619415
1750559018349008000,11.8190078125,0.008944000117480755,0.016690000891685486,0.2248149961233139
1750559018358612000,11.828612060546876,0.07756700366735458,-0.09743600338697433,0.25859999656677246
1750559018368215800,11.8382158203125,0.07965400069952011,-0.12101999670267105,0.15988600254058838
1750559018377819600,11.847819580078125,0.07634899765253067,-0.08892499655485153,0.013681000098586082
1750559018387423700,11.857423828125,-0.0016060000052675605,-0.08516699820756912,-0.0046720001846551895
1750559018397027600,11.867027587890625,-0.1995609998703003,-0.09324300289154053,-0.0202029999345541
