time,seconds_elapsed,z,y,x
1750559006612957200,0.082957275390625,0.017875000834465027,0.09102500230073929,0.16073749959468842
1750559006622561300,0.092561279296875,0.06173750013113022,0.06916250288486481,0.07768750190734863
1750559006632165000,0.1021650390625,0.11921250075101852,0.048262499272823334,0.009212499484419823
1750559006641769200,0.111769287109375,0.1839749962091446,0.05073750019073486,-0.05431250110268593
1750559006651372800,0.121372802734375,0.24502499401569366,0.08002500236034393,-0.11055000126361847
1750559006660977200,0.13097705078125,0.2853125035762787,0.1106875017285347,-0.16307500004768372
1750559006670581000,0.1405810546875,0.3073124885559082,0.12773749232292175,-0.20212499797344208
1750559006680184800,0.150184814453125,0.31831249594688416,0.11921250075101852,-0.23017500340938568
1750559006689789000,0.159788818359375,0.3232625126838684,0.09597499668598175,-0.2583625018596649
1750559006699393000,0.16939306640625,0.3330250084400177,0.09102500230073929,-0.2901250123977661
1750559006708996900,0.178996826171875,0.34402498602867126,0.09968750178813934,-0.32670000195503235
1750559006718601000,0.18860107421875,0.3488374948501587,0.14726249873638153,-0.37193748354911804
1750559006728204500,0.19820458984375,0.334262490272522,0.2217874974012375,-0.3964124917984009
1750559006737808600,0.20780859375,0.2829749882221222,0.23897500336170197,-0.37564998865127563
1750559006747412700,0.217412841796875,0.2217874974012375,0.19978749752044678,-0.31817498803138733
1750559006757016600,0.2270166015625,0.17544999718666077,0.15950000286102295,-0.23388749361038208
1750559006766620400,0.236620361328125,0.15097500383853912,0.13144999742507935,-0.1313125044107437
1750559006776224500,0.246224609375,0.14368750154972076,0.11921250075101852,-0.03355000168085098
1750559006785828400,0.255828369140625,0.14973749220371246,0.1106875017285347,0.05073750019073486
1750559006795432200,0.26543212890625,0.16321249306201935,0.09473749995231628,0.11797499656677246
1750559006805036300,0.275036376953125,0.18150000274181366,0.055687498301267624,0.14368750154972076
1750559006814640000,0.28464013671875,0.19126249849796295,0.007974999956786633,0.12044999748468399
1750559006824244200,0.294244140625,0.19002500176429749,-0.02502499893307686,0.06297499686479568
1750559006833848000,0.30384814453125,0.18768750131130219,-0.05678749829530716,0.0031624999828636646
1750559006843452000,0.313451904296875,0.18521249294281006,-0.0775500014424324,-0.04207500070333481
1750559006853056000,0.323055908203125,0.18150000274181366,-0.08483749628067017,-0.07507500052452087
1750559006862660000,0.33266015625,0.1779250055551529,-0.07383749634027481,-0.09955000132322311
1750559006872264000,0.342263916015625,0.1704999953508377,-0.06283749639987946,-0.11288750171661377
1750559006881867800,0.35186767578125,0.16926249861717224,-0.06283749639987946,-0.1153625026345253
1750559006891472000,0.361471923828125,0.16568750143051147,-0.06531249731779099,-0.11659999936819077
1750559006901075700,0.37107568359375,0.15344999730587006,-0.053075000643730164,-0.11055000126361847
1750559006910679800,0.3806796875,0.13021250069141388,-0.018837500363588333,-0.09088750183582306
1750559006920283600,0.39028369140625,0.10339999943971634,0.0494999997317791,-0.06283749639987946
1750559006929887700,0.3998876953125,0.07163749635219574,0.1069749966263771,-0.02983750030398369
1750559006939491600,0.40949169921875,0.028875000774860382,0.13378749787807465,-0.0042624999769032
1750559006949095700,0.419095703125,-0.018837500363588333,0.15702499449253082,0.016637500375509262
1750559006958699500,0.428699462890625,-0.06407500058412552,0.1863124966621399,0.04592499881982803
1750559006968303400,0.438303466796875,-0.10064999759197235,0.21821250021457672,0.06544999778270721
1750559006977907500,0.447907470703125,-0.12759999930858612,0.22907499969005585,0.07273750007152557
1750559006987511300,0.45751123046875,-0.15193749964237213,0.23154999315738678,0.07026249915361404
1750559006997115400,0.467115478515625,-0.16541250050067902,0.23278750479221344,0.060499999672174454
1750559007006719200,0.47671923828125,-0.16417500376701355,0.2059749960899353,0.06173750013113022
1750559007016323300,0.4863232421875,-0.14093749225139618,0.15578749775886536,0.0752125009894371
1750559007025927200,0.49592724609375,-0.11288750171661377,0.11426249891519547,0.0812624990940094
1750559007035531000,0.505531005859375,-0.08841250091791153,0.08868750184774399,0.0789249986410141
1750559007045135000,0.515135009765625,-0.06888750195503235,0.07150000333786011,0.07273750007152557
1750559007054739000,0.524739013671875,-0.0518375001847744,0.05321250110864639,0.060499999672174454
1750559007064342800,0.5343427734375,-0.05431250110268593,0.023924998939037323,0.0471624992787838
1750559007073947000,0.54394677734375,-0.05912499874830246,-0.021312499418854713,0.03616249933838844
1750559007083551000,0.553551025390625,-0.06641250103712082,-0.08483749628067017,0.03368749842047691
1750559007093154600,0.563154541015625,-0.07507500052452087,-0.13859999179840088,0.04221250116825104
1750559007102758700,0.572758544921875,-0.07741250097751617,-0.14231249690055847,0.055687498301267624
1750559007112362500,0.582362548828125,-0.07631249725818634,-0.10312499850988388,0.07273750007152557
1750559007121966600,0.591966552734375,-0.08112499862909317,-0.03478749841451645,0.09226249903440475
1750559007131570400,0.6015703125,-0.089649997651577,0.03973750025033951,0.10326249897480011
1750559007141174500,0.611174560546875,-0.09336250275373459,0.07768750190734863,0.10202500224113464
1750559007150778400,0.6207783203125,-0.08483749628067017,0.07768750190734863,0.08621250092983246
1750559007160382500,0.630382568359375,-0.06641250103712082,0.06792499870061874,0.0494999997317791
1750559007169986000,0.639986083984375,-0.048124998807907104,0.060499999672174454,0.0019249999895691872
1750559007179590100,0.649590087890625,-0.022549999877810478,0.05926249921321869,-0.048124998807907104
1750559007189194200,0.6591943359375,0.004399999976158142,0.06297499686479568,-0.08236250281333923
1750559007198798000,0.668798095703125,0.017875000834465027,0.027499999850988388,-0.08607500046491623
1750559007208402000,0.67840185546875,0.027637500315904617,-0.04936249926686287,-0.07631249725818634
1750559007218006000,0.688006103515625,0.028875000774860382,-0.10683749616146088,-0.06283749639987946
1750559007227610000,0.697610107421875,0.017875000834465027,-0.13488750159740448,-0.036024998873472214
1750559007237214000,0.7072138671875,0.009212499484419823,-0.1093124970793724,-0.005362499970942736
1750559007246817800,0.71681787109375,-0.004124999977648258,-0.03478749841451645,0.03492499887943268
1750559007256422000,0.726421875,-0.012787500396370888,0.022687500342726707,0.08621250092983246
1750559007266025700,0.736025634765625,-0.010312499478459358,0.03368749842047691,0.13144999742507935
1750559007275629600,0.745629638671875,-0.006599999964237213,0.031212499365210533,0.14726249873638153
1750559007285233700,0.755233642578125,-0.0017874999903142452,0.025162499397993088,0.13626250624656677
1750559007294837500,0.76483740234375,0.0019249999895691872,0.015399999916553497,0.11192499846220016
1750559007304441600,0.774441650390625,0.008112499490380287,0.010449999943375587,0.0849749967455864
1750559007314045400,0.78404541015625,0.011687500402331352,-0.0030249999836087227,0.055687498301267624
1750559007323649500,0.7936494140625,-0.0005499999970197678,-0.053075000643730164,0.025162499397993088
1750559007333253600,0.803253662109375,-0.02488750033080578,-0.1288374960422516,-0.0017874999903142452
1750559007342857200,0.812857177734375,-0.0518375001847744,-0.19483749568462372,-0.012787500396370888
1750559007352461300,0.82246142578125,-0.07136250287294388,-0.22659999132156372,-0.0017874999903142452
1750559007362065400,0.8320654296875,-0.08236250281333923,-0.2204124927520752,0.03492499887943268
1750559007371669200,0.841669189453125,-0.0798875018954277,-0.1288374960422516,0.08373750001192093
1750559007381273300,0.8512734375,-0.07631249725818634,0.025162499397993088,0.1264999955892563
1750559007390877200,0.860877197265625,-0.07136250287294388,0.1545500010251999,0.1522125005722046
1750559007400481300,0.870481201171875,-0.06531249731779099,0.2303124964237213,0.14973749220371246
1750559007410085000,0.880085205078125,-0.050599999725818634,0.24255000054836273,0.12168750166893005
1750559007419689000,0.88968896484375,-0.02983750030398369,0.18521249294281006,0.08373750001192093
1750559007429293300,0.899293212890625,-0.004124999977648258,0.0812624990940094,0.04097500070929527
1750559007438897000,0.90889697265625,0.025162499397993088,-0.022549999877810478,-0.005362499970942736
1750559007448501000,0.9185009765625,0.04468749836087227,-0.10559999942779541,-0.03959999978542328
1750559007458104800,0.928104736328125,0.05692499876022339,-0.1288374960422516,-0.04936249926686287
1750559007467709000,0.937708984375,0.06544999778270721,-0.09955000132322311,-0.040837500244379044
1750559007477313000,0.94731298828125,0.06668750196695328,-0.04455000162124634,-0.022549999877810478
1750559007486916600,0.95691650390625,0.0752125009894371,0.029975000768899918,-0.014024999924004078
1750559007496520700,0.966520751953125,0.09116250276565552,0.10573749989271164,-0.023787500336766243
1750559007506124800,0.976124755859375,0.10573749989271164,0.13378749787807465,-0.04331250116229057
1750559007515728600,0.985728759765625,0.10339999943971634,0.10821250081062317,-0.05678749829530716
1750559007525332700,0.995332763671875,0.09844999760389328,0.04592499881982803,-0.06407500058412552
1750559007534936600,1.0049365234375,0.07273750007152557,-0.053075000643730164,-0.06888750195503235
1750559007544540400,1.01454052734375,0.028875000774860382,-0.14588749408721924,-0.08483749628067017
1750559007554144500,1.02414453125,0.0006874999962747097,-0.20941250026226044,-0.09088750183582306
1750559007563748400,1.033748291015625,-0.004124999977648258,-0.2424124926328659,-0.0873124971985817
1750559007573352400,1.0433525390625,0.011687500402331352,-0.25341248512268066,-0.08236250281333923
1750559007582956300,1.052956298828125,0.026399999856948853,-0.22893749177455902,-0.06888750195503235
1750559007592560400,1.062560302734375,0.03244999796152115,-0.17641249299049377,-0.050599999725818634
1750559007602164200,1.072164306640625,0.018975000828504562,-0.09831249713897705,-0.04455000162124634
1750559007611768300,1.081768310546875,-0.011549999937415123,-0.036024998873472214,-0.03959999978542328
1750559007621372200,1.0913720703125,-0.038362499326467514,0.005499999970197678,-0.031075000762939453
1750559007630976000,1.10097607421875,-0.057887498289346695,0.023924998939037323,-0.016362499445676804
1750559007640580400,1.110580322265625,-0.07383749634027481,0.014162499457597733,0.0019249999895691872
1750559007650184200,1.12018408203125,-0.10064999759197235,-0.012787500396370888,0.028737500309944153
1750559007659788000,1.1297880859375,-0.1214125007390976,-0.007837500423192978,0.05692499876022339
1750559007669392100,1.13939208984375,-0.12017499655485153,0.025162499397993088,0.08868750184774399
1750559007678996000,1.148995849609375,-0.10188750177621841,0.06173750013113022,0.12292499840259552
1750559007688599800,1.158599853515625,-0.07507500052452087,0.1289750039577484,0.1326874941587448
1750559007698204000,1.168203857421875,-0.04331250116229057,0.19978749752044678,0.11302500218153
1750559007707807700,1.177807861328125,-0.012787500396370888,0.24131250381469727,0.07644999772310257
1750559007717411800,1.187411865234375,0.016637500375509262,0.23154999315738678,0.03739999979734421
1750559007727015700,1.197015625,0.031212499365210533,0.18754999339580536,-0.0005499999970197678
1750559007736619800,1.206619873046875,0.03244999796152115,0.1545500010251999,-0.028599999845027924
1750559007746223600,1.2162236328125,0.021449999883770943,0.14121249318122864,-0.04455000162124634
1750559007755827700,1.22582763671875,0.026399999856948853,0.1106875017285347,-0.03478749841451645
1750559007765431600,1.235431640625,0.03863750025629997,0.06297499686479568,-0.011549999937415123
1750559007775035400,1.245035400390625,0.04839999973773956,0.006737499963492155,0.0056374999694526196
1750559007784639500,1.254639404296875,0.04468749836087227,-0.031075000762939453,0.0031624999828636646
1750559007794243300,1.264243408203125,0.03863750025629997,-0.02736249938607216,-0.009074999950826168
1750559007803847400,1.273847412109375,0.026399999856948853,0.03368749842047691,-0.015124999918043613
1750559007813451500,1.283451416015625,0.017875000834465027,0.1264999955892563,-0.021312499418854713
1750559007823055000,1.29305517578125,0.010449999943375587,0.1839749962091446,-0.028599999845027924
1750559007832659200,1.3026591796875,0.010449999943375587,0.1839749962091446,-0.0518375001847744
1750559007842263000,1.312262939453125,0.017875000834465027,0.15950000286102295,-0.11055000126361847
1750559007851867100,1.3218671875,0.012924999929964542,0.0849749967455864,-0.18617500364780426
1750559007861471200,1.33147119140625,0.008112499490380287,-0.02983750030398369,-0.23512500524520874
1750559007871075000,1.341074951171875,0.0031624999828636646,-0.16788749396800995,-0.2424124926328659
1750559007880679200,1.35067919921875,-0.013887500390410423,-0.22659999132156372,-0.22288750112056732
1750559007890283000,1.360282958984375,-0.021312499418854713,-0.20336249470710754,-0.1886499971151352
1750559007899887000,1.36988720703125,-0.007837500423192978,-0.09831249713897705,-0.14464999735355377
1750559007909491200,1.3794912109375,0.023924998939037323,0.0752125009894371,-0.09088750183582306
1750559007919095000,1.389094970703125,0.06173750013113022,0.24997499585151672,-0.045787498354911804
1750559007928699000,1.398698974609375,-0.006599999964237213,0.24626250565052032,-0.0518375001847744
1750559007938302700,1.408302734375,-0.050599999725818634,0.20954999327659607,-0.036024998873472214
1750559007947906800,1.41790673828125,-0.01759999990463257,0.23526249825954437,-0.012787500396370888
1750559007957510700,1.4275107421875,-0.0017874999903142452,0.1106875017285347,-0.014024999924004078
1750559007967114800,1.43711474609375,-0.03712499886751175,-0.1373624950647354,-0.04207500070333481
1750559007976718800,1.44671875,-0.045649997889995575,-0.2521750032901764,-0.06655000150203705
1750559007986322400,1.456322509765625,-0.03959999978542328,-0.18617500364780426,-0.07383749634027481
1750559007995926500,1.465926513671875,-0.035887498408555984,-0.0518375001847744,-0.06407500058412552
1750559008005530400,1.4755302734375,-0.045649997889995575,0.08744999766349792,-0.014024999924004078
1750559008015134500,1.485134521484375,-0.07136250287294388,0.2377374917268753,0.10573749989271164
1750559008024738300,1.49473828125,-0.02488750033080578,0.2853125035762787,0.1424500048160553
1750559008034342400,1.50434228515625,0.016637500375509262,0.24997499585151672,0.09721250087022781
1750559008043946200,1.5139462890625,0.018975000828504562,0.1387374997138977,0.06544999778270721
1750559008053550000,1.523550048828125,0.004399999976158142,0.09844999760389328,0.06544999778270721
1750559008063154200,1.533154296875,0.010449999943375587,0.05692499876022339,0.05926249921321869
1750559008072758300,1.54275830078125,0.025162499397993088,-0.020075000822544098,0.04221250116825104
1750559008082362000,1.552362060546875,0.04221250116825104,-0.09336250275373459,0.017737500369548798
1750559008091966200,1.56196630859375,0.06792499870061874,-0.1434125006198883,-0.01759999990463257
1750559008101570000,1.571570068359375,0.09473749995231628,-0.18617500364780426,-0.060362499207258224
1750559008111174100,1.581174072265625,0.12292499840259552,-0.20941250026226044,-0.10064999759197235
1750559008120778000,1.590778076171875,0.13516250252723694,-0.18136249482631683,-0.12388750165700912
1750559008130382000,1.600382080078125,0.11550000309944153,-0.09707500040531158,-0.12388750165700912
1750559008139986200,1.609986083984375,0.06544999778270721,0.014162499457597733,-0.1116499975323677
1750559008149589800,1.61958984375,0.0006874999962747097,0.07397499680519104,-0.09459999948740005
1750559008159193900,1.62919384765625,-0.04455000162124634,0.03973750025033951,-0.0775500014424324
1750559008168798000,1.6387978515625,-0.031075000762939453,0.014162499457597733,-0.03712499886751175
1750559008178401800,1.64840185546875,0.03863750025629997,0.028737500309944153,0.031212499365210533
1750559008188006000,1.658005859375,0.07768750190734863,0.10092499852180481,0.07026249915361404
1750559008197609700,1.667609619140625,0.04468749836087227,0.19731250405311584,0.09721250087022781
1750559008207213600,1.677213623046875,0.04963750019669533,0.3293125033378601,0.11797499656677246
1750559008216817700,1.686817626953125,0.0471624992787838,0.4515500068664551,0.12402500212192535
1750559008226421500,1.69642138671875,0.022687500342726707,0.4918375015258789,0.12526249885559082
1750559008236025600,1.706025634765625,0.0019249999895691872,0.4465999901294708,0.11192499846220016
1750559008245629700,1.715629638671875,-0.022549999877810478,0.31459999084472656,0.07273750007152557
1750559008255233500,1.725233642578125,-0.06641250103712082,0.13750000298023224,0.0019249999895691872
1750559008264837600,1.734837646484375,-0.13241249322891235,-0.03478749841451645,-0.07259999960660934
1750559008274441500,1.74444140625,-0.18369999527931213,-0.16183750331401825,-0.1214125007390976
1750559008284045600,1.754045654296875,-0.1788875013589859,-0.21683749556541443,-0.11783749610185623
1750559008293649200,1.763649169921875,-0.13983750343322754,-0.2204124927520752,-0.07507500052452087
1750559008303253200,1.773253173828125,-0.10188750177621841,-0.14959999918937683,-0.022549999877810478
1750559008312857300,1.782857421875,-0.08236250281333923,-0.04455000162124634,0.023924998939037323
1750559008322461200,1.792461181640625,-0.06764999777078629,0.0471624992787838,0.055687498301267624
1750559008332065300,1.802065185546875,-0.053075000643730164,0.09473749995231628,0.07026249915361404
1750559008341669400,1.81166943359375,-0.04207500070333481,0.07273750007152557,0.06421250104904175
1750559008351273200,1.821273193359375,-0.028599999845027924,0.0031624999828636646,0.04468749836087227
1750559008360877300,1.830877197265625,-0.005362499970942736,-0.0775500014424324,0.020212499424815178
1750559008370481000,1.84048095703125,0.018975000828504562,-0.141075000166893,0.0006874999962747097
1750559008380085000,1.8500849609375,0.03368749842047691,-0.1788875013589859,-0.010312499478459358
1750559008389689000,1.859689208984375,0.04097500070929527,-0.15936249494552612,-0.022549999877810478
1750559008399293000,1.86929296875,0.04839999973773956,-0.11055000126361847,-0.038362499326467514
1750559008408897000,1.87889697265625,0.04963750019669533,-0.07136250287294388,-0.04331250116229057
1750559008418500900,1.8885009765625,0.05939999967813492,-0.04455000162124634,-0.04207500070333481
1750559008428105000,1.89810498046875,0.07644999772310257,-0.036024998873472214,-0.03355000168085098
1750559008437709000,1.907708984375,0.09116250276565552,-0.04207500070333481,-0.026124998927116394
1750559008447313000,1.91731298828125,0.07768750190734863,-0.05555000156164169,-0.022549999877810478
1750559008456916700,1.926916748046875,0.03739999979734421,-0.07259999960660934,-0.018837500363588333
1750559008466520800,1.936520751953125,-0.006599999964237213,-0.07878749817609787,-0.022549999877810478
1750559008476124700,1.946124755859375,-0.03959999978542328,-0.07507500052452087,-0.022549999877810478
1750559008485728500,1.955728515625,-0.053075000643730164,-0.05555000156164169,-0.0042624999769032
1750559008495332600,1.96533251953125,-0.040837500244379044,-0.023787500336766243,0.017737500369548798
1750559008504936400,1.9749365234375,-0.02736249938607216,-0.0030249999836087227,0.03739999979734421
1750559008514540500,1.98454052734375,-0.018837500363588333,-0.0017874999903142452,0.043449997901916504
1750559008524144600,1.99414453125,-0.009074999950826168,-0.0030249999836087227,0.03368749842047691
1750559008533748200,2.003748291015625,-0.006599999964237213,-0.022549999877810478,0.021449999883770943
1750559008543352600,2.0133525390625,-0.007837500423192978,-0.05431250110268593,0.012924999929964542
1750559008552956400,2.022956298828125,-0.009074999950826168,-0.08855000138282776,0.012924999929964542
1750559008562560300,2.032560302734375,-0.009074999950826168,-0.10807500034570694,0.017737500369548798
1750559008572164400,2.042164306640625,-0.0017874999903142452,-0.1116499975323677,0.022687500342726707
1750559008581768200,2.051768310546875,0.004399999976158142,-0.09831249713897705,0.020212499424815178
1750559008591372300,2.061372314453125,0.006874999962747097,-0.07012499868869781,0.010449999943375587
1750559008600976100,2.07097607421875,0.008112499490380287,-0.031075000762939453,0.004399999976158142
1750559008610580200,2.080580322265625,0.014162499457597733,0.0019249999895691872,0.0031624999828636646
1750559008620184000,2.09018408203125,0.017875000834465027,0.011687500402331352,0.0019249999895691872
1750559008629788200,2.0997880859375,0.022687500342726707,0.0006874999962747097,0.0019249999895691872
1750559008639392300,2.109392333984375,0.028875000774860382,-0.016362499445676804,-0.005362499970942736
1750559008648996000,2.11899609375,0.03739999979734421,-0.023787500336766243,-0.02736249938607216
1750559008658600000,2.128599853515625,0.04221250116825104,-0.026262499392032623,-0.050599999725818634
1750559008668204000,2.1382041015625,0.0471624992787838,-0.014024999924004078,-0.07631249725818634
1750559008677808000,2.14780810546875,0.05073750019073486,-0.007837500423192978,-0.09088750183582306
1750559008687412000,2.157411865234375,0.05197500064969063,-0.014024999924004078,-0.09707500040531158
1750559008697016000,2.16701611328125,0.04839999973773956,-0.01759999990463257,-0.09707500040531158
1750559008706619600,2.17661962890625,0.04097500070929527,-0.031075000762939453,-0.09336250275373459
1750559008716223700,2.1862236328125,0.03616249933838844,-0.038362499326467514,-0.08112499862909317
1750559008725827800,2.195827880859375,0.03616249933838844,-0.04455000162124634,-0.06283749639987946
1750559008735431700,2.205431640625,0.03244999796152115,-0.03355000168085098,-0.0518375001847744
1750559008745035800,2.215035888671875,0.022687500342726707,-0.0030249999836087227,-0.0518375001847744
1750559008754639600,2.2246396484375,0.011687500402331352,0.028737500309944153,-0.04936249926686287
1750559008764243700,2.23424365234375,-0.0028874999843537807,0.03492499887943268,-0.03959999978542328
1750559008773847800,2.243847900390625,-0.009074999950826168,0.022687500342726707,-0.03712499886751175
1750559008783451600,2.25345166015625,-0.0028874999843537807,-0.005362499970942736,-0.045787498354911804
1750559008793055700,2.2630556640625,0.015399999916553497,-0.018837500363588333,-0.057887498289346695
1750559008802659600,2.27265966796875,0.031212499365210533,-0.026262499392032623,-0.06283749639987946
1750559008812263400,2.282263427734375,0.03616249933838844,-0.021312499418854713,-0.05912499874830246
1750559008821867500,2.291867431640625,0.025162499397993088,-0.007837500423192978,-0.04455000162124634
1750559008831471400,2.301471435546875,0.0019249999895691872,0.016499999910593033,-0.028599999845027924
1750559008841075500,2.311075439453125,-0.010312499478459358,0.03726249933242798,-0.010312499478459358
1750559008850679300,2.32067919921875,-0.01759999990463257,0.05444999784231186,-0.0005499999970197678
1750559008860283400,2.330283447265625,-0.021312499418854713,0.07397499680519104,0.006737499963492155
1750559008869887200,2.33988720703125,-0.020075000822544098,0.09721250087022781,0.015399999916553497
1750559008879491300,2.3494912109375,-0.006599999964237213,0.11797499656677246,0.018975000828504562
1750559008889095400,2.359095458984375,0.017875000834465027,0.11302500218153,0.015399999916553497
1750559008898699000,2.368698974609375,0.04097500070929527,0.06297499686479568,0.0006874999962747097
1750559008908303000,2.37830322265625,0.04839999973773956,0.004399999976158142,-0.03478749841451645
1750559008917907200,2.3879072265625,0.043449997901916504,-0.04455000162124634,-0.08112499862909317
1750559008927511000,2.397510986328125,0.028875000774860382,-0.07383749634027481,-0.11288750171661377
1750559008937115100,2.407115234375,0.021449999883770943,-0.07507500052452087,-0.12031249701976776
1750559008946719000,2.416718994140625,0.018975000828504562,-0.050599999725818634,-0.10312499850988388
1750559008956323000,2.426322998046875,0.020212499424815178,-0.016362499445676804,-0.06655000150203705
1750559008965927000,2.435927001953125,0.025162499397993088,0.009212499484419823,-0.012787500396370888
1750559008975530800,2.44553076171875,0.028875000774860382,0.023924998939037323,0.03492499887943268
1750559008985134800,2.455134765625,0.022687500342726707,0.03244999796152115,0.04839999973773956
1750559008994738700,2.46473876953125,0.011687500402331352,0.029975000768899918,0.03739999979734421
1750559009004342800,2.4743427734375,-0.005362499970942736,0.012924999929964542,0.017737500369548798
1750559009013947000,2.48394677734375,-0.013887500390410423,-0.006599999964237213,0.0031624999828636646
1750559009023550700,2.49355078125,-0.010312499478459358,-0.028599999845027924,0.0056374999694526196
1750559009033154800,2.50315478515625,-0.006599999964237213,-0.04331250116229057,0.015399999916553497
1750559009042758700,2.512758544921875,-0.009074999950826168,-0.040837500244379044,0.010449999943375587
1750559009052362800,2.52236279296875,-0.021312499418854713,-0.020075000822544098,-0.011549999937415123
1750559009061966600,2.531966552734375,-0.03464999794960022,0.007974999956786633,-0.03355000168085098
1750559009071570400,2.5415703125,-0.038362499326467514,0.023924998939037323,-0.040837500244379044
1750559009081174500,2.551174560546875,-0.03355000168085098,0.03616249933838844,-0.031075000762939453
1750559009090778400,2.5607783203125,-0.021312499418854713,0.03368749842047691,-0.0042624999769032
1750559009100382500,2.570382568359375,-0.010312499478459358,0.021449999883770943,0.017737500369548798
1750559009109986600,2.579986572265625,-0.011549999937415123,0.009212499484419823,0.022687500342726707
1750559009119590400,2.58959033203125,-0.010312499478459358,-0.007837500423192978,0.015399999916553497
1750559009129194500,2.599194580078125,-0.009074999950826168,-0.02736249938607216,0.0056374999694526196
1750559009138798300,2.60879833984375,-0.010312499478459358,-0.03478749841451645,-0.0042624999769032
1750559009148402200,2.618402099609375,-0.0028874999843537807,-0.028599999845027924,-0.016362499445676804
1750559009158006500,2.628006591796875,0.006874999962747097,-0.022549999877810478,-0.02502499893307686
1750559009167610400,2.6376103515625,0.014162499457597733,-0.007837500423192978,-0.036024998873472214
1750559009177214200,2.647214111328125,0.021449999883770943,0.012924999929964542,-0.048124998807907104
1750559009186818300,2.656818359375,0.023924998939037323,0.020212499424815178,-0.048124998807907104
1750559009196422100,2.666422119140625,0.025162499397993088,0.014162499457597733,-0.026124998927116394
1750559009206026000,2.67602587890625,0.026399999856948853,-0.0030249999836087227,0.0056374999694526196
1750559009215630000,2.685630126953125,0.021449999883770943,-0.026262499392032623,0.03973750025033951
1750559009225234200,2.695234130859375,0.010449999943375587,-0.04455000162124634,0.05926249921321869
1750559009234838000,2.704838134765625,0.0019249999895691872,-0.05555000156164169,0.06544999778270721
1750559009244442000,2.714442138671875,-0.007837500423192978,-0.060362499207258224,0.05926249921321869
1750559009254046000,2.7240458984375,-0.010312499478459358,-0.05678749829530716,0.04097500070929527
1750559009263649800,2.73364990234375,-0.0017874999903142452,-0.036024998873472214,0.020212499424815178
1750559009273254000,2.74325390625,0.009212499484419823,-0.020075000822544098,0.010449999943375587
1750559009282857700,2.752857666015625,0.008112499490380287,0.015399999916553497,0.0019249999895691872
1750559009292461800,2.7624619140625,-0.006599999964237213,0.028737500309944153,0.0056374999694526196
1750559009302066000,2.77206591796875,-0.021312499418854713,0.031212499365210533,0.010449999943375587
1750559009311669800,2.781669677734375,-0.02488750033080578,0.014162499457597733,0.017737500369548798
1750559009321273900,2.79127392578125,-0.020075000822544098,-0.007837500423192978,0.016637500375509262
1750559009330877700,2.800877685546875,-0.012787500396370888,-0.0005499999970197678,-0.0030249999836087227
1750559009340481800,2.810481689453125,-0.006599999964237213,0.005499999970197678,-0.022549999877810478
1750559009350085600,2.820085693359375,-0.004124999977648258,0.006737499963492155,-0.03355000168085098
1750559009359689700,2.829689697265625,-0.0028874999843537807,0.009212499484419823,-0.03478749841451645
1750559009369293600,2.83929345703125,-0.0017874999903142452,0.006737499963492155,-0.020075000822544098
1750559009378897700,2.848897705078125,0.0056374999694526196,0.017737500369548798,-0.0017874999903142452
1750559009388501500,2.85850146484375,0.011687500402331352,0.03616249933838844,0.004399999976158142
1750559009398105600,2.868105712890625,0.016637500375509262,0.027499999850988388,0.004399999976158142
1750559009407709400,2.87770947265625,0.018975000828504562,-0.011549999937415123,-0.009074999950826168
1750559009417313500,2.8873134765625,0.018975000828504562,-0.053075000643730164,-0.03355000168085098
1750559009426917400,2.89691748046875,0.016637500375509262,-0.07507500052452087,-0.05431250110268593
1750559009436521200,2.906521240234375,0.015399999916553497,-0.07631249725818634,-0.05431250110268593
1750559009446125600,2.91612548828125,0.021449999883770943,-0.058024998754262924,-0.04455000162124634
1750559009455729400,2.9257294921875,0.031212499365210533,-0.03478749841451645,-0.02983750030398369
1750559009465333200,2.935333251953125,0.03616249933838844,-0.0030249999836087227,-0.02736249938607216
1750559009474937300,2.944937255859375,0.03739999979734421,0.017737500369548798,-0.028599999845027924
1750559009484541200,2.954541259765625,0.03863750025629997,0.015399999916553497,-0.02983750030398369
1750559009494145300,2.964145263671875,0.04097500070929527,0.022687500342726707,-0.02736249938607216
1750559009503749400,2.973749267578125,0.03863750025629997,0.023924998939037323,-0.016362499445676804
1750559009513353000,2.98335302734375,0.023924998939037323,0.017737500369548798,0.0056374999694526196
1750559009522957000,2.99295703125,0.0056374999694526196,0.03492499887943268,0.020212499424815178
1750559009532561400,3.0025615234375,-0.009074999950826168,0.06544999778270721,0.027499999850988388
1750559009542165000,3.0121650390625,-0.013887500390410423,0.0752125009894371,0.022687500342726707
1750559009551769000,3.02176904296875,-0.005362499970942736,0.07026249915361404,0.004399999976158142
1750559009561373200,3.031373291015625,0.011687500402331352,0.05321250110864639,-0.018837500363588333
1750559009570977000,3.04097705078125,0.03244999796152115,0.028737500309944153,-0.038362499326467514
1750559009580580900,3.050580810546875,0.04468749836087227,0.009212499484419823,-0.04936249926686287
1750559009590185000,3.06018505859375,0.04839999973773956,0.005499999970197678,-0.05431250110268593
1750559009599789000,3.0697890625,0.04468749836087227,0.007974999956786633,-0.05431250110268593
1750559009609393000,3.079392822265625,0.04468749836087227,0.006737499963492155,-0.0518375001847744
1750559009618997000,3.0889970703125,0.0471624992787838,-0.015262499451637268,-0.04936249926686287
1750559009628600800,3.098600830078125,0.04592499881982803,-0.03712499886751175,-0.04702499881386757
1750559009638204700,3.10820458984375,0.03987500071525574,-0.050599999725818634,-0.04331250116229057
1750559009647808800,3.117808837890625,0.023924998939037323,-0.05555000156164169,-0.03231250122189522
1750559009657412900,3.127412841796875,0.0056374999694526196,-0.038362499326467514,-0.012787500396370888
1750559009667016700,3.1370166015625,-0.004124999977648258,-0.009074999950826168,0.018975000828504562
1750559009676620800,3.146620849609375,-0.0028874999843537807,0.023924998939037323,0.03849999979138374
1750559009686224600,3.156224609375,-0.0005499999970197678,0.03616249933838844,0.04097500070929527
1750559009695828700,3.165828857421875,0.0006874999962747097,0.018975000828504562,0.026399999856948853
1750559009705432300,3.175432373046875,0.0031624999828636646,-0.0042624999769032,0.006737499963492155
1750559009715036400,3.185036376953125,0.0031624999828636646,-0.038362499326467514,-0.009074999950826168
1750559009724640500,3.194640625,-0.0017874999903142452,-0.05431250110268593,-0.015124999918043613
1750559009734244400,3.204244384765625,-0.011549999937415123,-0.036024998873472214,-0.010312499478459358
1750559009743848200,3.21384814453125,-0.02736249938607216,0.026399999856948853,0.0006874999962747097
1750559009753452300,3.223452392578125,-0.038362499326467514,0.10202500224113464,0.0031624999828636646
1750559009763056400,3.233056396484375,-0.04331250116229057,0.1545500010251999,0.004399999976158142
1750559009772660200,3.24266015625,-0.0518375001847744,0.17297500371932983,0.004399999976158142
1750559009782264300,3.252264404296875,-0.06764999777078629,0.15344999730587006,0.0031624999828636646
1750559009791868200,3.2618681640625,-0.06159999966621399,0.10944999754428864,0.0031624999828636646
1750559009801472000,3.271471923828125,-0.03959999978542328,0.05926249921321869,0.011687500402331352
1750559009811076000,3.281076171875,-0.009074999950826168,0.010449999943375587,0.009212499484419823
1750559009820680000,3.290679931640625,0.011687500402331352,-0.012787500396370888,-0.0042624999769032
1750559009830284000,3.300283935546875,0.014162499457597733,-0.031075000762939453,-0.014024999924004078
1750559009839888100,3.30988818359375,0.004399999976158142,-0.036024998873472214,-0.018837500363588333
1750559009849492000,3.319491943359375,-0.011549999937415123,-0.01759999990463257,-0.010312499478459358
1750559009859096000,3.329095947265625,-0.026124998927116394,0.025162499397993088,0.004399999976158142
1750559009868700000,3.338699951171875,-0.020075000822544098,0.06297499686479568,0.022687500342726707
1750559009878304000,3.348303955078125,0.004399999976158142,0.07150000333786011,0.04592499881982803
1750559009887907800,3.357907958984375,0.03244999796152115,0.05073750019073486,0.0494999997317791
1750559009897512000,3.367511962890625,0.055687498301267624,-0.0030249999836087227,0.03616249933838844
1750559009907115800,3.37711572265625,0.06544999778270721,-0.07012499868869781,0.007974999956786633
1750559009916719600,3.3867197265625,0.06173750013113022,-0.11659999936819077,-0.02736249938607216
1750559009926323700,3.39632373046875,0.0471624992787838,-0.1251250058412552,-0.050599999725818634
1750559009935927600,3.405927490234375,0.028875000774860382,-0.09707500040531158,-0.05912499874830246
1750559009945531600,3.41553173828125,0.017875000834465027,-0.06778749823570251,-0.0518375001847744
1750559009955135700,3.4251357421875,0.017875000834465027,-0.03959999978542328,-0.028599999845027924
1750559009964739600,3.434739501953125,0.028875000774860382,-0.012787500396370888,-0.011549999937415123
1750559009974343700,3.44434375,0.043449997901916504,0.0006874999962747097,0.0006874999962747097
1750559009983947500,3.453947509765625,0.04839999973773956,0.0019249999895691872,0.006737499963492155
1750559009993551400,3.46355126953125,0.03863750025629997,0.010449999943375587,0.004399999976158142
1750559010003155500,3.473155517578125,0.015399999916553497,0.03726249933242798,0.0031624999828636646
1750559010012759300,3.48275927734375,-0.005362499970942736,0.05926249921321869,0.012924999929964542
1750559010022363400,3.49236328125,-0.01759999990463257,0.05926249921321869,0.023924998939037323
1750559010031967500,3.501967529296875,-0.021312499418854713,0.060499999672174454,0.020212499424815178
1750559010041571300,3.5115712890625,-0.01759999990463257,0.025162499397993088,0.014162499457597733
1750559010051175200,3.521175048828125,0.004399999976158142,-0.007837500423192978,0.009212499484419823
1750559010060779300,3.530779296875,0.027637500315904617,-0.028599999845027924,0.004399999976158142
1750559010070383400,3.54038330078125,0.04097500070929527,-0.03355000168085098,0.0006874999962747097
1750559010079987200,3.5499873046875,0.04592499881982803,-0.038362499326467514,-0.0030249999836087227
1750559010089591300,3.55959130859375,0.04468749836087227,-0.04702499881386757,-0.005362499970942736
1750559010099195100,3.569195068359375,0.03492499887943268,-0.0518375001847744,-0.009074999950826168
1750559010108799200,3.57879931640625,0.031212499365210533,-0.06283749639987946,-0.014024999924004078
1750559010118403300,3.5884033203125,0.027637500315904617,-0.06407500058412552,-0.011549999937415123
1750559010128007200,3.598007080078125,0.021449999883770943,-0.045787498354911804,-0.009074999950826168
1750559010137611000,3.607611083984375,0.015399999916553497,0.0019249999895691872,0.0019249999895691872
1750559010147215000,3.617215087890625,0.011687500402331352,0.06173750013113022,0.016637500375509262
1750559010156819000,3.62681884765625,0.014162499457597733,0.09226249903440475,0.03244999796152115
1750559010166423000,3.636423095703125,0.010449999943375587,0.08249999582767487,0.03368749842047691
1750559010176027000,3.64602685546875,0.0031624999828636646,0.04097500070929527,0.018975000828504562
1750559010185631000,3.655630859375,-0.0028874999843537807,-0.018837500363588333,-0.0042624999769032
1750559010195234800,3.66523486328125,-0.0017874999903142452,-0.06531249731779099,-0.021312499418854713
1750559010204838700,3.674838623046875,0.0006874999962747097,-0.06531249731779099,-0.02502499893307686
1750559010214443000,3.684443115234375,-0.0017874999903142452,-0.02736249938607216,-0.01759999990463257
1750559010224046800,3.694046875,-0.007837500423192978,0.015399999916553497,-0.0005499999970197678
1750559010233650700,3.703650634765625,-0.010312499478459358,0.0494999997317791,0.009212499484419823
1750559010243254800,3.7132548828125,-0.010312499478459358,0.048262499272823334,0.007974999956786633
1750559010252859000,3.72285888671875,-0.004124999977648258,0.027499999850988388,-0.006599999964237213
1750559010262462700,3.732462646484375,0.0031624999828636646,0.017737500369548798,-0.031075000762939453
1750559010272066800,3.74206689453125,0.008112499490380287,0.016499999910593033,-0.04331250116229057
1750559010281670700,3.751670654296875,0.011687500402331352,0.004399999976158142,-0.040837500244379044
1750559010291274800,3.761274658203125,0.014162499457597733,-0.018837500363588333,-0.03231250122189522
1750559010300878600,3.770878662109375,0.010449999943375587,-0.05431250110268593,-0.02502499893307686
1750559010310482400,3.780482421875,0.0031624999828636646,-0.0873124971985817,-0.028599999845027924
1750559010320086500,3.79008642578125,0.0019249999895691872,-0.10188750177621841,-0.031075000762939453
1750559010329690600,3.799690673828125,0.0006874999962747097,-0.07878749817609787,-0.026124998927116394
1750559010339294500,3.80929443359375,-0.0005499999970197678,-0.031075000762939453,-0.011549999937415123
1750559010348898600,3.818898681640625,-0.009074999950826168,0.026399999856948853,0.011687500402331352
1750559010358502400,3.82850244140625,-0.023787500336766243,0.07768750190734863,0.031212499365210533
1750559010368106500,3.8381064453125,-0.03712499886751175,0.08621250092983246,0.03973750025033951
1750559010377710600,3.847710693359375,-0.04455000162124634,0.06421250104904175,0.022687500342726707
1750559010387314400,3.857314453125,-0.04207500070333481,0.03616249933838844,-0.009074999950826168
1750559010396918500,3.86691845703125,-0.028599999845027924,0.021449999883770943,-0.03478749841451645
1750559010406522000,3.876522216796875,-0.012787500396370888,0.0019249999895691872,-0.04455000162124634
1750559010416126200,3.886126220703125,-0.0005499999970197678,-0.011549999937415123,-0.038362499326467514
1750559010425730300,3.895730224609375,0.006874999962747097,-0.018837500363588333,-0.03355000168085098
1750559010435334100,3.905334228515625,0.004399999976158142,-0.03478749841451645,-0.03478749841451645
1750559010444938200,3.914938232421875,0.0031624999828636646,-0.04331250116229057,-0.03959999978542328
1750559010454542000,3.9245419921875,0.0019249999895691872,-0.031075000762939453,-0.0518375001847744
1750559010464146200,3.934146240234375,-0.0005499999970197678,-0.010312499478459358,-0.05555000156164169
1750559010473750000,3.94375,-0.0028874999843537807,0.006737499963492155,-0.045787498354911804
1750559010483354000,3.95335400390625,-0.010312499478459358,0.006737499963492155,-0.028599999845027924
1750559010492958200,3.962958251953125,-0.02488750033080578,0.0006874999962747097,-0.0030249999836087227
1750559010502562000,3.97256201171875,-0.038362499326467514,0.006737499963492155,0.025162499397993088
1750559010512166000,3.982165771484375,-0.04455000162124634,0.04592499881982803,0.05692499876022339
1750559010521770000,3.99177001953125,-0.04331250116229057,0.09226249903440475,0.08373750001192093
1750559010531373800,4.001373779296875,-0.03355000168085098,0.10573749989271164,0.09473749995231628
1750559010540978200,4.010978271484375,-0.02488750033080578,0.08373750001192093,0.07644999772310257
1750559010550582000,4.02058203125,-0.015124999918043613,0.021449999883770943,0.03739999979734421
1750559010560185900,4.030185791015625,0.0019249999895691872,-0.03959999978542328,-0.010312499478459358
1750559010569789700,4.039789794921875,0.015399999916553497,-0.0835999995470047,-0.050599999725818634
1750559010579393800,4.049393798828125,0.027637500315904617,-0.10807500034570694,-0.06778749823570251
1750559010588998000,4.058997802734375,0.03492499887943268,-0.10312499850988388,-0.060362499207258224
1750559010598601700,4.068601806640625,0.03492499887943268,-0.06159999966621399,-0.04207500070333481
1750559010608205800,4.078205810546875,0.03244999796152115,-0.023787500336766243,-0.021312499418854713
1750559010617810000,4.087809814453125,0.025162499397993088,-0.005362499970942736,-0.0030249999836087227
1750559010627413800,4.097413818359375,0.020212499424815178,-0.01759999990463257,0.0056374999694526196
1750559010637017600,4.107017578125,0.022687500342726707,-0.03478749841451645,0.0006874999962747097
1750559010646621400,4.116621337890625,0.027637500315904617,-0.03231250122189522,-0.012787500396370888
1750559010656225500,4.1262255859375,0.031212499365210533,-0.01759999990463257,-0.02502499893307686
1750559010665829600,4.13582958984375,0.031212499365210533,0.010449999943375587,-0.02502499893307686
1750559010675433500,4.14543359375,0.029975000768899918,0.03973750025033951,-0.020075000822544098
1750559010685037600,4.15503759765625,0.022687500342726707,0.031212499365210533,-0.021312499418854713
1750559010694641400,4.164641357421875,0.008112499490380287,-0.005362499970942736,-0.03355000168085098
1750559010704245500,4.17424560546875,-0.007837500423192978,-0.048124998807907104,-0.048124998807907104
1750559010713849600,4.183849609375,-0.015124999918043613,-0.07136250287294388,-0.04936249926686287
1750559010723453400,4.193453369140625,-0.018837500363588333,-0.05678749829530716,-0.023787500336766243
1750559010733057300,4.203057373046875,-0.012787500396370888,-0.016362499445676804,0.016637500375509262
1750559010742661600,4.21266162109375,-0.0028874999843537807,0.04221250116825104,0.05321250110864639
1750559010752265200,4.22226513671875,0.0056374999694526196,0.08621250092983246,0.07150000333786011
1750559010761869300,4.231869384765625,0.008112499490380287,0.07026249915361404,0.060499999672174454
1750559010771473200,4.24147314453125,0.006874999962747097,0.010449999943375587,0.009212499484419823
1750559010781077200,4.2510771484375,0.006874999962747097,-0.06159999966621399,-0.05431250110268593
1750559010790681300,4.260681396484375,0.008112499490380287,-0.10078749805688858,-0.09955000132322311
1750559010800285200,4.27028515625,0.006874999962747097,-0.09212499856948853,-0.1093124970793724
1750559010809889300,4.27988916015625,-0.004124999977648258,-0.038362499326467514,-0.08236250281333923
1750559010819493000,4.2894931640625,-0.015124999918043613,0.020212499424815178,-0.04207500070333481
1750559010829097200,4.29909716796875,-0.013887500390410423,0.06297499686479568,-0.012787500396370888
1750559010838701000,4.308701171875,-0.004124999977648258,0.05692499876022339,-0.0030249999836087227
1750559010848305200,4.31830517578125,0.008112499490380287,0.025162499397993088,-0.020075000822544098
1750559010857909000,4.327908935546875,0.028875000774860382,-0.03355000168085098,-0.06655000150203705
1750559010867513000,4.33751318359375,0.05197500064969063,-0.10078749805688858,-0.13612499833106995
1750559010877117000,4.347116943359375,0.07039999961853027,-0.16060000658035278,-0.20336249470710754
1750559010886721000,4.356720947265625,0.07163749635219574,-0.19717499613761902,-0.2583625018596649
1750559010896324900,4.366324951171875,0.07039999961853027,-0.24117499589920044,-0.3156999945640564
1750559010905929000,4.375928955078125,0.06063750013709068,-0.28517499566078186,-0.3889875113964081
1750559010915532800,4.38553271484375,0.05197500064969063,-0.255887508392334,-0.46722498536109924
1750559010925137000,4.395136962890625,0.04963750019669533,-0.18988749384880066,-0.5112249851226807
1750559010934740700,4.40474072265625,0.05197500064969063,-0.038362499326467514,-0.5515124797821045
1750559010944344600,4.414344482421875,0.05321250110864639,0.13997499644756317,-0.5905625224113464
1750559010953948700,4.42394873046875,0.03492499887943268,0.2780250012874603,-0.640749990940094
1750559010963552800,4.433552734375,-0.02736249938607216,0.4405499994754791,-0.7470374703407288
1750559010973156600,4.443156494140625,-0.12636250257492065,0.6164125204086304,-0.9058499932289124
1750559010982760700,4.4527607421875,-0.133650004863739,0.8375124931335449,-1.0609500408172607
1750559010992364800,4.46236474609375,-0.04207500070333481,0.8925125002861023,-1.0194250345230103
1750559011001968600,4.47196875,0.08744999766349792,0.8790374994277954,-0.7250375151634216
1750559011011572700,4.48157275390625,0.19373749196529388,0.6811749935150146,0.05692499876022339
1750559011021176600,4.491176513671875,0.3110249936580658,0.3793624937534332,1.3799500465393066
1750559011030780700,4.50078076171875,0.41359999775886536,0.5651249885559082,2.9193999767303467
1750559011040384500,4.510384521484375,0.3806000053882599,0.9389874935150146,4.392712593078613
1750559011049988600,4.519988525390625,0.2572624981403351,1.388474941253662,5.478825092315674
1750559011059592700,4.5295927734375,0.18768750131130219,1.6022875308990479,6.238787651062012
1750559011069196500,4.539196533203125,0.24873749911785126,1.2810875177383423,6.772562503814697
1750559011078800600,4.548800537109375,0.43931248784065247,0.8449375033378601,6.887512683868408
1750559011088404500,4.558404541015625,0.600600004196167,0.18150000274181366,6.82756233215332
1750559011098008300,4.56800830078125,0.5908374786376953,-0.7885624766349792,6.727462291717529
1750559011107612400,4.5776123046875,0.5003625154495239,-1.5998125076293945,6.440362453460693
1750559011117216300,4.58721630859375,0.4123624861240387,-2.2325875759124756,6.027450084686279
1750559011126820400,4.5968203125,0.414837509393692,-2.4488749504089355,5.55334997177124
1750559011136424200,4.606424072265625,0.5028374791145325,-2.1470625400543213,4.996200084686279
1750559011146028300,4.6160283203125,0.5431249737739563,-1.7011499404907227,4.316949844360352
1750559011155632400,4.62563232421875,0.5541250109672546,-1.3517625331878662,3.5619375705718994
1750559011165236000,4.635236083984375,0.5138375163078308,-1.1697125434875488,2.8033499717712402
1750559011174840300,4.64484033203125,0.4735499918460846,-1.0439000129699707,2.0373375415802
1750559011184444200,4.654444091796875,0.43078750371932983,-1.0023750066757202,1.2639000415802002
1750559011194048000,4.664048095703125,0.390500009059906,-0.9596124887466431,0.4478375017642975
1750559011203652000,4.673652099609375,0.35983750224113464,-0.8875625133514404,-0.3438875079154968
1750559011213256000,4.683255859375,0.3330250084400177,-0.8215624690055847,-1.0023750066757202
1750559011222860000,4.692860107421875,0.3195500075817108,-0.6945124864578247,-1.4970999956130981
1750559011232464000,4.7024638671875,0.3073124885559082,-0.5026999711990356,-1.8759125471115112
1750559011242068000,4.71206787109375,0.2755500078201294,-0.31817498803138733,-2.2191123962402344
1750559011251672000,4.721672119140625,0.21697500348091125,-0.22288750112056732,-2.589400053024292
1750559011261276000,4.73127587890625,0.11797499656677246,-0.18741250038146973,-3.005887508392334
1750559011270880000,4.7408798828125,-0.015124999918043613,-0.12155000120401382,-3.4482250213623047
1750559011280484000,4.750484130859375,-0.14093749225139618,0.04592499881982803,-3.85013747215271
1750559011290088000,4.760087890625,-0.21188749372959137,0.44288748502731323,-4.150712490081787
1750559011299691800,4.76969189453125,-0.19841249287128448,0.8436999917030334,-4.23981237411499
1750559011309295900,4.7792958984375,-0.1568875014781952,0.8974624872207642,-4.142187595367432
1750559011318899700,4.788899658203125,-0.17641249299049377,0.7019374966621399,-4.040712356567383
1750559011328503800,4.79850390625,-0.25946250557899475,0.5418875217437744,-4.084712505340576
1750559011338107600,4.808107666015625,-0.3694624900817871,0.44536250829696655,-4.3375749588012695
1750559011347711700,4.817711669921875,-0.47079998254776,0.40012499690055847,-4.743199825286865
1750559011357315800,4.82731591796875,-0.3144625127315521,0.6176499724388123,-5.176875114440918
1750559011366919700,4.836919677734375,-0.013887500390410423,0.6456999778747559,-5.091350078582764
1750559011376523800,4.846523681640625,0.09473749995231628,0.3110249936580658,-4.371812343597412
1750559011386127600,4.856127685546875,0.18645000457763672,0.116737499833107,-3.35898756980896
1750559011395731700,4.865731689453125,0.2755500078201294,0.13021250069141388,-2.2081124782562256
1750559011405335600,4.87533544921875,0.23154999315738678,0.295074999332428,-1.245474934577942
1750559011414939400,4.884939453125,0.12292499840259552,0.7092249989509583,-0.6895624995231628
1750559011424543700,4.894543701171875,-0.012787500396370888,1.1638000011444092,-0.46351251006126404
1750559011434147600,4.904147705078125,-0.12264999747276306,1.35794997215271,-0.48069998621940613
1750559011443751400,4.91375146484375,-0.1691250056028366,1.3714250326156616,-0.7213249802589417
1750559011453355300,4.923355224609375,-0.1825999915599823,1.3054250478744507,-0.9461374878883362
1750559011462959400,4.93295947265625,-0.11412499845027924,1.008562445640564,-0.8655624985694885
1750559011472563500,4.9425634765625,0.014162499457597733,0.552887499332428,-0.5282750129699707
1750559011482167300,4.952167236328125,0.07273750007152557,0.12168750166893005,-0.13612499833106995
1750559011491771400,4.961771484375,0.022687500342726707,-0.1251250058412552,0.13378749787807465
1750559011501375500,4.97137548828125,-0.09941250085830688,-0.1825999915599823,0.2560249865055084
1750559011510979000,4.98097900390625,-0.20336249470710754,-0.12155000120401382,0.32202500104904175
1750559011520583200,4.990583251953125,-0.22165000438690186,0.014162499457597733,0.3843125104904175
1750559011530187300,5.000187255859375,-0.17159999907016754,0.1985500007867813,0.4185499846935272
1750559011539791400,5.009791259765625,-0.09707500040531158,0.29026249051094055,0.41359999775886536
1750559011549395500,5.0193955078125,-0.026124998927116394,0.2670249938964844,0.3610749840736389
1750559011558999000,5.0289990234375,0.021449999883770943,0.13378749787807465,0.26455000042915344
1750559011568603100,5.03860302734375,0.05197500064969063,-0.13859999179840088,0.1667875051498413
1750559011578207000,5.04820703125,0.06297499686479568,-0.4012250006198883,0.09473749995231628
1750559011587811000,5.05781103515625,0.05939999967813492,-0.5026999711990356,0.055687498301267624
1750559011597415200,5.067415283203125,0.05816249921917915,-0.4452250003814697,0.06792499870061874
1750559011607019000,5.07701904296875,0.05321250110864639,-0.2619374990463257,0.13378749787807465
1750559011616623000,5.086623046875,0.04468749836087227,-0.03231250122189522,0.2303124964237213
1750559011626227000,5.09622705078125,0.03863750025629997,0.13626250624656677,0.30250000953674316
1750559011635830800,5.105830810546875,0.029975000768899918,0.2059749960899353,0.31831249594688416
1750559011645435100,5.11543505859375,0.023924998939037323,0.20954999327659607,0.27678748965263367
1750559011655039000,5.1250390625,0.018975000828504562,0.14726249873638153,0.2217874974012375
1750559011664642800,5.134642822265625,0.010449999943375587,0.03492499887943268,0.17544999718666077
1750559011674247000,5.144246826171875,-0.020075000822544098,-0.0835999995470047,0.148499995470047
1750559011683850800,5.153850830078125,-0.04688749834895134,-0.16307500004768372,0.1264999955892563
1750559011693454800,5.163454833984375,-0.07741250097751617,-0.17159999907016754,0.09226249903440475
1750559011703058700,5.17305859375,-0.10683749616146088,-0.12388750165700912,0.06297499686479568
1750559011712662800,5.182662841796875,-0.1190750002861023,-0.02983750030398369,0.04592499881982803
1750559011722267000,5.192266845703125,-0.11412499845027924,0.06916250288486481,0.04097500070929527
1750559011731870700,5.20187060546875,-0.09212499856948853,0.14973749220371246,0.055687498301267624
1750559011741474800,5.211474853515625,-0.06407500058412552,0.19126249849796295,0.0812624990940094
1750559011751078700,5.22107861328125,-0.04331250116229057,0.1802625060081482,0.09226249903440475
1750559011760682800,5.230682861328125,-0.026124998927116394,0.10326249897480011,0.0849749967455864
1750559011770286600,5.24028662109375,-0.006599999964237213,-0.02983750030398369,0.05926249921321869
1750559011779890400,5.249890380859375,0.018975000828504562,-0.18741250038146973,0.018975000828504562
1750559011789494500,5.25949462890625,0.04221250116825104,-0.2644124925136566,-0.026124998927116394
1750559011799098600,5.2690986328125,0.055687498301267624,-0.24736249446868896,-0.05912499874830246
1750559011808702500,5.278702392578125,0.06916250288486481,-0.15331250429153442,-0.07878749817609787
1750559011818306600,5.288306640625,0.0849749967455864,-0.02736249938607216,-0.09088750183582306
1750559011827910400,5.297910400390625,0.08621250092983246,0.05816249921917915,-0.07878749817609787
1750559011837514500,5.307514404296875,0.0849749967455864,0.09226249903440475,-0.05555000156164169
1750559011847118300,5.317118408203125,0.08016250282526016,0.0752125009894371,-0.03231250122189522
1750559011856722400,5.326722412109375,0.06544999778270721,0.025162499397993088,-0.01759999990463257
1750559011866326500,5.336326416015625,0.04839999973773956,-0.018837500363588333,-0.01759999990463257
1750559011875930400,5.345930419921875,0.031212499365210533,-0.0518375001847744,-0.026124998927116394
1750559011885534200,5.3555341796875,0.021449999883770943,-0.07878749817609787,-0.050599999725818634
1750559011895138300,5.36513818359375,0.021449999883770943,-0.07383749634027481,-0.08483749628067017
1750559011904742100,5.3747421875,0.022687500342726707,-0.04207500070333481,-0.11412499845027924
1750559011914346200,5.38434619140625,0.023924998939037323,0.004399999976158142,-0.13488750159740448
1750559011923950000,5.3939501953125,0.017875000834465027,0.05816249921917915,-0.15207499265670776
1750559011933554200,5.40355419921875,0.011687500402331352,0.08868750184774399,-0.14959999918937683
1750559011943158300,5.413158203125,0.009212499484419823,0.0752125009894371,-0.12388750165700912
1750559011952762000,5.42276220703125,0.011687500402331352,0.05073750019073486,-0.089649997651577
1750559011962366200,5.4323662109375,0.004399999976158142,0.03492499887943268,-0.04331250116229057
1750559011971970000,5.441969970703125,-0.01759999990463257,0.026399999856948853,0.0056374999694526196
1750559011981574100,5.45157421875,-0.04207500070333481,0.04097500070929527,0.04221250116825104
1750559011991178200,5.46117822265625,-0.06283749639987946,0.07150000333786011,0.05692499876022339
1750559012000781800,5.47078173828125,-0.06764999777078629,0.10092499852180481,0.04221250116825104
1750559012010386000,5.480385986328125,-0.06407500058412552,0.09473749995231628,0.007974999956786633
1750559012019990000,5.489989990234375,-0.05555000156164169,0.07150000333786011,-0.03712499886751175
1750559012029593900,5.49959375,-0.038362499326467514,0.022687500342726707,-0.07259999960660934
1750559012039198000,5.509197998046875,-0.016362499445676804,-0.0518375001847744,-0.0775500014424324
1750559012048802000,5.518802001953125,-0.0005499999970197678,-0.0873124971985817,-0.07136250287294388
1750559012058406000,5.528406005859375,0.020212499424815178,-0.06531249731779099,-0.05912499874830246
1750559012068009700,5.538009765625,0.03863750025629997,-0.028599999845027924,-0.03712499886751175
1750559012077613800,5.54761376953125,0.04839999973773956,0.011687500402331352,-0.02502499893307686
1750559012087218000,5.557218017578125,0.05816249921917915,0.04468749836087227,-0.021312499418854713
1750559012096821800,5.56682177734375,0.06668750196695328,0.048262499272823334,-0.018837500363588333
1750559012106425900,5.57642578125,0.06297499686479568,0.029975000768899918,-0.022549999877810478
1750559012116029700,5.58602978515625,0.05073750019073486,0.004399999976158142,-0.02983750030398369
1750559012125633500,5.595633544921875,0.022687500342726707,-0.018837500363588333,-0.031075000762939453
1750559012135237600,5.605237548828125,0.0056374999694526196,-0.02502499893307686,-0.031075000762939453
1750559012144841700,5.614841796875,-0.0005499999970197678,-0.007837500423192978,-0.028599999845027924
1750559012154445600,5.624445556640625,-0.004124999977648258,0.005499999970197678,-0.022549999877810478
1750559012164049700,5.634049560546875,-0.013887500390410423,0.012924999929964542,-0.016362499445676804
1750559012173653500,5.643653564453125,-0.020075000822544098,0.012924999929964542,-0.01759999990463257
1750559012183257600,5.653257568359375,-0.011549999937415123,0.007974999956786633,-0.02983750030398369
1750559012192861400,5.662861328125,0.0031624999828636646,0.004399999976158142,-0.04702499881386757
1750559012202465500,5.672465576171875,0.015399999916553497,0.005499999970197678,-0.057887498289346695
1750559012212069600,5.682069580078125,0.022687500342726707,0.017737500369548798,-0.05555000156164169
1750559012221673500,5.691673583984375,0.025162499397993088,0.027499999850988388,-0.031075000762939453
1750559012231277600,5.701277587890625,0.021449999883770943,0.017737500369548798,0.0031624999828636646
1750559012240881700,5.710881591796875,0.016637500375509262,-0.006599999964237213,0.03244999796152115
1750559012250485200,5.7204853515625,0.010449999943375587,-0.020075000822544098,0.0471624992787838
1750559012260089300,5.73008935546875,0.0056374999694526196,-0.02983750030398369,0.04221250116825104
1750559012269693200,5.739693115234375,0.009212499484419823,-0.021312499418854713,0.016637500375509262
1750559012279297300,5.74929736328125,0.021449999883770943,0.0031624999828636646,-0.020075000822544098
1750559012288901400,5.7589013671875,0.027637500315904617,0.009212499484419823,-0.05555000156164169
1750559012298505200,5.768505126953125,0.025162499397993088,-0.015262499451637268,-0.07507500052452087
1750559012308109300,5.778109375,0.004399999976158142,-0.045787498354911804,-0.08236250281333923
1750559012317713400,5.78771337890625,-0.020075000822544098,-0.06283749639987946,-0.0775500014424324
1750559012327317200,5.797317138671875,-0.02488750033080578,-0.058024998754262924,-0.05431250110268593
1750559012336921300,5.80692138671875,-0.01759999990463257,-0.03959999978542328,-0.009074999950826168
1750559012346525200,5.816525146484375,-0.005362499970942736,-0.010312499478459358,0.04221250116825104
1750559012356129000,5.82612890625,0.0006874999962747097,0.022687500342726707,0.07644999772310257
1750559012365732900,5.83573291015625,-0.006599999964237213,0.048262499272823334,0.08249999582767487
1750559012375337200,5.845337158203125,-0.01759999990463257,0.04592499881982803,0.06297499686479568
1750559012384941000,5.854941162109375,-0.022549999877810478,0.005499999970197678,0.021449999883770943
1750559012394545000,5.864544921875,-0.021312499418854713,-0.04702499881386757,-0.03231250122189522
1750559012404149000,5.87414892578125,-0.018837500363588333,-0.10078749805688858,-0.07383749634027481
1750559012413752800,5.8837529296875,-0.010312499478459358,-0.12636250257492065,-0.0798875018954277
1750559012423357000,5.89335693359375,0.004399999976158142,-0.09707500040531158,-0.06283749639987946
1750559012432961000,5.9029609375,0.020212499424815178,-0.04702499881386757,-0.03355000168085098
1750559012442564900,5.91256494140625,0.03492499887943268,-0.009074999950826168,-0.0017874999903142452
1750559012452169000,5.9221689453125,0.03987500071525574,-0.005362499970942736,0.016637500375509262
1750559012461772800,5.931772705078125,0.03616249933838844,-0.020075000822544098,0.007974999956786633
1750559012471376600,5.941376708984375,0.03368749842047691,-0.060362499207258224,-0.012787500396370888
1750559012480980700,5.950980712890625,0.029975000768899918,-0.07631249725818634,-0.04207500070333481
1750559012490584800,5.960584716796875,0.021449999883770943,-0.06283749639987946,-0.06283749639987946
1750559012500188700,5.970188720703125,0.0031624999828636646,-0.040837500244379044,-0.06283749639987946
1750559012509793000,5.97979296875,-0.010312499478459358,0.004399999976158142,-0.04331250116229057
1750559012519396600,5.989396728515625,-0.007837500423192978,0.028737500309944153,-0.014024999924004078
1750559012529000700,5.999000732421875,-0.004124999977648258,0.021449999883770943,0.009212499484419823
1750559012538604800,6.008604736328125,0.0006874999962747097,0.009212499484419823,0.018975000828504562
1750559012548208600,6.018208740234375,0.0031624999828636646,0.0031624999828636646,0.027499999850988388
1750559012557812700,6.027812744140625,-0.0017874999903142452,0.017737500369548798,0.03368749842047691
1750559012567416600,6.03741650390625,-0.006599999964237213,0.03973750025033951,0.028737500309944153
1750559012577020700,6.047020751953125,-0.018837500363588333,0.043449997901916504,0.011687500402331352
1750559012586624800,6.056624755859375,-0.028599999845027924,0.0019249999895691872,-0.011549999937415123
1750559012596228600,6.066228515625,-0.02983750030398369,-0.04455000162124634,-0.04331250116229057
1750559012605832700,6.075832763671875,-0.020075000822544098,-0.07631249725818634,-0.06655000150203705
1750559012615436300,6.085436279296875,0.0031624999828636646,-0.08607500046491623,-0.06778749823570251
1750559012625040400,6.095040283203125,0.015399999916553497,-0.07631249725818634,-0.048124998807907104
1750559012634644500,6.10464453125,0.015399999916553497,-0.04455000162124634,-0.022549999877810478
1750559012644248300,6.114248291015625,0.009212499484419823,-0.0017874999903142452,0.009212499484419823
1750559012653852400,6.123852294921875,0.0006874999962747097,0.029975000768899918,0.03616249933838844
1750559012663456300,6.133456298828125,-0.020075000822544098,0.05926249921321869,0.0494999997317791
1750559012673060400,6.143060302734375,-0.02983750030398369,0.048262499272823334,0.043449997901916504
1750559012682664200,6.152664306640625,-0.028599999845027924,0.010449999943375587,0.016637500375509262
1750559012692268300,6.162268310546875,-0.018837500363588333,-0.02502499893307686,-0.015124999918043613
1750559012701872400,6.171872314453125,0.0019249999895691872,-0.036024998873472214,-0.040837500244379044
1750559012711476200,6.181476318359375,0.016637500375509262,-0.022549999877810478,-0.05431250110268593
1750559012721080300,6.191080322265625,0.020212499424815178,-0.005362499970942736,-0.06283749639987946
1750559012730684400,6.200684326171875,0.015399999916553497,-0.0042624999769032,-0.07383749634027481
1750559012740288300,6.210288330078125,0.0056374999694526196,-0.022549999877810478,-0.08483749628067017
1750559012749892000,6.21989208984375,0.006874999962747097,-0.058024998754262924,-0.08607500046491623
1750559012759496200,6.22949609375,0.008112499490380287,-0.07631249725818634,-0.0775500014424324
1750559012769100000,6.23910009765625,0.0006874999962747097,-0.06283749639987946,-0.06655000150203705
1750559012778704100,6.2487041015625,-0.009074999950826168,-0.023787500336766243,-0.053075000643730164
1750559012788308000,6.258307861328125,-0.011549999937415123,0.0031624999828636646,-0.036024998873472214
1750559012797912000,6.267912109375,-0.010312499478459358,-0.009074999950826168,-0.036024998873472214
1750559012807516200,6.27751611328125,0.008112499490380287,-0.040837500244379044,-0.06407500058412552
1750559012817120000,6.2871201171875,0.029975000768899918,-0.07631249725818634,-0.10559999942779541
1750559012826723800,6.296723876953125,0.0471624992787838,-0.09583749622106552,-0.14836250245571136
1750559012836328000,6.306327880859375,0.05444999784231186,-0.09831249713897705,-0.17036250233650208
1750559012845931800,6.315931884765625,0.0471624992787838,-0.08855000138282776,-0.16060000658035278
1750559012855535900,6.325535888671875,0.03368749842047691,-0.08112499862909317,-0.1373624950647354
1750559012865139700,6.3351396484375,0.025162499397993088,-0.09088750183582306,-0.133650004863739
1750559012874743800,6.344743896484375,0.026399999856948853,-0.09707500040531158,-0.15812499821186066
1750559012884347600,6.35434765625,0.027637500315904617,-0.07259999960660934,-0.2008875012397766
1750559012893951700,6.36395166015625,0.0031624999828636646,-0.04936249926686287,-0.20817500352859497
1750559012903555600,6.3735556640625,-0.038362499326467514,-0.015262499451637268,-0.1788875013589859
1750559012913159700,6.38315966796875,-0.08112499862909317,0.06668750196695328,-0.15936249494552612
1750559012922763800,6.392763671875,-0.13241249322891235,0.13750000298023224,-0.16060000658035278
1750559012932367600,6.40236767578125,-0.1311749964952469,0.21697500348091125,-0.16664999723434448
1750559012941971700,6.4119716796875,-0.08112499862909317,0.3097875118255615,-0.11288750171661377
1750559012951575800,6.421575927734375,0.015399999916553497,0.4600749909877777,0.014162499457597733
1750559012961179400,6.431179443359375,0.10449999570846558,0.6591749787330627,0.3195500075817108
1750559012970783500,6.440783447265625,0.07768750190734863,0.675125002861023,0.9634624719619751
1750559012980387600,6.4503876953125,0.0019249999895691872,0.7825124859809875,1.7782875299453735
1750559012989991700,6.45999169921875,-0.14588749408721924,1.0513249635696411,2.585824966430664
1750559012999595500,6.469595458984375,-0.30098751187324524,1.36166250705719,3.3053624629974365
1750559013009199600,6.47919970703125,-0.255887508392334,1.733049988746643,3.9040374755859375
1750559013018803500,6.488803466796875,-0.13488750159740448,1.8345249891281128,4.615049839019775
1750559013028407600,6.498407470703125,-0.015124999918043613,1.729337453842163,5.395774841308594
1750559013038011400,6.508011474609375,0.05939999967813492,1.4056625366210938,6.1593122482299805
1750559013047615500,6.517615478515625,0.05197500064969063,0.8045125007629395,6.779987335205078
1750559013057219300,6.52721923828125,0.04097500070929527,0.27431249618530273,7.04013729095459
1750559013066823400,6.536823486328125,0.05073750019073486,-0.141075000166893,7.023087501525879
1750559013076427500,6.546427490234375,0.04097500070929527,-0.5502749681472778,6.781224727630615
1750559013086031000,6.556031005859375,0.05816249921917915,-0.7567999958992004,6.268074989318848
1750559013095635200,6.56563525390625,0.15702499449253082,-0.7788000106811523,5.5142998695373535
1750559013105239000,6.575239013671875,0.25244998931884766,-0.8020374774932861,4.58204984664917
1750559013114843100,6.584843017578125,0.2890250086784363,-0.8703749775886536,3.5485999584198
1750559013124447000,6.594447021484375,0.27073749899864197,-0.9436625242233276,2.5125374794006348
1750559013134051000,6.604051025390625,0.3110249936580658,-1.1611875295639038,1.662237524986267
1750559013143655200,6.6136552734375,0.39902499318122864,-1.483762502670288,1.0060875415802002
1750559013153259000,6.623259033203125,0.45278748869895935,-1.7146250009536743,0.45883750915527344
1750559013162863000,6.632863037109375,0.4723125100135803,-1.8306750059127808,0.029975000768899918
1750559013172467200,6.64246728515625,0.47712498903274536,-1.7476249933242798,-0.2924624979496002
1750559013182071000,6.652071044921875,0.4661250114440918,-1.537387490272522,-0.549037516117096
1750559013191675100,6.661675048828125,0.4417875111103058,-1.2405250072479248,-0.7873250246047974
1750559013201278700,6.67127880859375,0.4197874963283539,-0.9083250164985657,-1.0499500036239624
1750559013210882800,6.6808828125,0.39160001277923584,-0.4879874885082245,-1.3932875394821167
1750559013220487000,6.69048681640625,0.34773749113082886,-0.03712499886751175,-1.8196749687194824
1750559013230090800,6.7000908203125,0.2877874970436096,0.26826250553131104,-2.302299976348877
1750559013239695000,6.709695068359375,0.2059749960899353,0.39160001277923584,-2.8007373809814453
1750559013249299000,6.719298828125,0.0752125009894371,0.3793624937534332,-3.2857000827789307
1750559013258902800,6.72890283203125,-0.060362499207258224,0.28283751010894775,-3.7646124362945557
1750559013268507000,6.7385068359375,-0.11659999936819077,0.18273749947547913,-4.222762584686279
1750559013278110700,6.74811083984375,-0.08841250091791153,0.08621250092983246,-4.6369123458862305
1750559013287714800,6.75771484375,-0.012787500396370888,0.009212499484419823,-5.023012638092041
1750559013297318700,6.767318603515625,0.08016250282526016,0.0031624999828636646,-5.440875053405762
1750559013306922800,6.7769228515625,0.15592500567436218,-0.023787500336766243,-5.941649913787842
1750559013316526800,6.78652685546875,0.2096875011920929,-0.133650004863739,-6.490274906158447
1750559013326130400,6.79613037109375,0.259737491607666,-0.41964998841285706,-6.943474769592285
1750559013335734800,6.80573486328125,0.43326249718666077,-0.806850016117096,-6.993662357330322
1750559013345338600,6.815338623046875,0.6164125204086304,-1.35423743724823,-6.32527494430542
1750559013354942500,6.8249423828125,0.6934124827384949,-1.6058624982833862,-5.360162258148193
1750559013364546600,6.834546630859375,0.9035124778747559,-1.1489499807357788,-4.484149932861328
1750559013374150400,6.844150390625,1.0965625047683716,-0.38417500257492065,-3.4750375747680664
1750559013383754500,6.85375439453125,1.0195624828338623,0.3232625126838684,-2.265587568283081
1750559013393358300,6.8633583984375,0.8522250056266785,0.954800009727478,-1.1159499883651733
1750559013402962400,6.87296240234375,0.6421250104904175,1.562000036239624,-0.27293750643730164
1750559013412566500,6.88256640625,0.41359999775886536,2.065387487411499,0.22055000066757202
1750559013422170400,6.89217041015625,0.23278750479221344,2.231487512588501,0.43683749437332153
1750559013431774500,6.9017744140625,0.12773749232292175,1.978624939918518,0.4503124952316284
1750559013441378300,6.91137841796875,0.09968750178813934,1.3861374855041504,0.31459999084472656
1750559013450982400,6.920982421875,0.07039999961853027,0.6604124903678894,0.07644999772310257
1750559013460586500,6.93058642578125,0.018975000828504562,0.05197500064969063,-0.18383750319480896
1750559013470190300,6.9401904296875,-0.021312499418854713,-0.30841249227523804,-0.319412499666214
1750559013479794200,6.949794189453125,-0.040837500244379044,-0.4427500069141388,-0.28036248683929443
1750559013489398300,6.959398193359375,-0.045649997889995575,-0.4184125065803528,-0.13983750343322754
1750559013499002000,6.969002197265625,-0.028599999845027924,-0.22288750112056732,0.023924998939037323
1750559013508606200,6.978606201171875,0.0019249999895691872,0.043449997901916504,0.1742125004529953
1750559013518210000,6.9882099609375,0.026399999856948853,0.24255000054836273,0.2890250086784363
1750559013527814100,6.997814208984375,0.05197500064969063,0.3255999982357025,0.358599990606308
1750559013537418200,7.007418212890625,0.07768750190734863,0.30855000019073486,0.3940750062465668
1750559013547021800,7.017021728515625,0.05816249921917915,0.26455000042915344,0.41359999775886536
1750559013556626000,7.0266259765625,-0.0028874999843537807,0.10573749989271164,0.4343625009059906
1750559013566229800,7.036229736328125,-0.06407500058412552,-0.05431250110268593,0.3940750062465668
1750559013575833900,7.045833740234375,-0.09831249713897705,-0.15331250429153442,0.3110249936580658
1750559013585438000,7.05543798828125,-0.08607500046491623,-0.17407499253749847,0.22426250576972961
1750559013595041800,7.065041748046875,-0.04455000162124634,-0.1153625026345253,0.16197499632835388
1750559013604646000,7.07464599609375,-0.0017874999903142452,-0.016362499445676804,0.1264999955892563
1750559013614250000,7.08425,0.021449999883770943,0.09102500230073929,0.11797499656677246
1750559013623853800,7.093853759765625,0.015399999916553497,0.18521249294281006,0.12292499840259552
1750559013633458000,7.1034580078125,-0.0017874999903142452,0.23897500336170197,0.13021250069141388
1750559013643061800,7.113061767578125,-0.006599999964237213,0.1839749962091446,0.13144999742507935
1750559013652665900,7.122665771484375,-0.005362499970942736,0.05444999784231186,0.10202500224113464
1750559013662269700,7.132269775390625,0.014162499457597733,-0.0775500014424324,0.04097500070929527
1750559013671873500,7.14187353515625,0.03863750025629997,-0.14464999735355377,-0.036024998873472214
1750559013681478000,7.151477783203125,0.05939999967813492,-0.16788749396800995,-0.09583749622106552
1750559013691081700,7.161081787109375,0.06792499870061874,-0.13255000114440918,-0.12264999747276306
1750559013700685800,7.170685791015625,0.06063750013709068,-0.04207500070333481,-0.1116499975323677
1750559013710289700,7.18028955078125,0.04097500070929527,0.028737500309944153,-0.05912499874830246
1750559013719893500,7.1898935546875,0.012924999929964542,0.06916250288486481,0.009212499484419823
1750559013729497600,7.19949755859375,-0.020075000822544098,0.10573749989271164,0.07150000333786011
1750559013739101700,7.209101806640625,-0.04207500070333481,0.14368750154972076,0.11550000309944153
1750559013748705500,7.21870556640625,-0.04455000162124634,0.15578749775886536,0.15468749403953552
1750559013758309600,7.2283095703125,-0.045649997889995575,0.1387374997138977,0.18754999339580536
1750559013767913500,7.23791357421875,-0.040837500244379044,0.12526249885559082,0.1839749962091446
1750559013777517600,7.247517578125,-0.011549999937415123,0.06297499686479568,0.15950000286102295
1750559013787121700,7.25712158203125,0.028875000774860382,-0.023787500336766243,0.11426249891519547
1750559013796725500,7.2667255859375,0.055687498301267624,-0.09336250275373459,0.04839999973773956
1750559013806329300,7.276329345703125,0.06668750196695328,-0.1508374959230423,-0.015124999918043613
1750559013815933400,7.285933349609375,0.07039999961853027,-0.17036250233650208,-0.06159999966621399
1750559013825537300,7.295537353515625,0.06792499870061874,-0.14464999735355377,-0.08236250281333923
1750559013835141400,7.305141357421875,0.06544999778270721,-0.09831249713897705,-0.09088750183582306
1750559013844745200,7.3147451171875,0.05444999784231186,-0.031075000762939453,-0.09583749622106552
1750559013854349300,7.324349365234375,0.03368749842047691,0.023924998939037323,-0.0835999995470047
1750559013863953200,7.333953125,0.006874999962747097,0.05444999784231186,-0.0518375001847744
1750559013873557200,7.34355712890625,-0.021312499418854713,0.0812624990940094,-0.006599999964237213
1750559013883161300,7.353161376953125,-0.03959999978542328,0.07026249915361404,0.06668750196695328
1750559013892765200,7.36276513671875,-0.053075000643730164,0.05692499876022339,0.1350249946117401
1750559013902369300,7.372369384765625,-0.053075000643730164,0.07150000333786011,0.15702499449253082
1750559013911973000,7.38197314453125,-0.04688749834895134,0.07150000333786011,0.13021250069141388
1750559013921577200,7.3915771484375,-0.028599999845027924,0.06421250104904175,0.06544999778270721
1750559013931181000,7.40118115234375,-0.006599999964237213,0.04468749836087227,-0.006599999964237213
1750559013940785000,7.410784912109375,0.009212499484419823,0.005499999970197678,-0.05912499874830246
1750559013950389000,7.420388916015625,0.010449999943375587,-0.03355000168085098,-0.0775500014424324
1750559013959993000,7.4299931640625,-0.005362499970942736,-0.04331250116229057,-0.07136250287294388
1750559013969597000,7.439596923828125,-0.02488750033080578,-0.03355000168085098,-0.045787498354911804
1750559013979201000,7.449200927734375,-0.048124998807907104,-0.031075000762939453,-0.010312499478459358
1750559013988804900,7.458804931640625,-0.07259999960660934,-0.006599999964237213,0.017737500369548798
1750559013998409000,7.468408935546875,-0.089649997651577,0.03849999979138374,0.05073750019073486
1750559014008012800,7.4780126953125,-0.10436250269412994,0.0849749967455864,0.08249999582767487
1750559014017617000,7.487616943359375,-0.10807500034570694,0.13021250069141388,0.10092499852180481
1750559014027220700,7.497220703125,-0.09088750183582306,0.13626250624656677,0.10573749989271164
1750559014036824800,7.506824951171875,-0.05912499874830246,0.11426249891519547,0.09226249903440475
1750559014046428700,7.5164287109375,-0.026124998927116394,0.06421250104904175,0.06916250288486481
1750559014056032800,7.52603271484375,0.0031624999828636646,0.017737500369548798,0.029975000768899918
1750559014065636600,7.53563671875,0.020212499424815178,-0.011549999937415123,-0.018837500363588333
1750559014075240700,7.54524072265625,0.03368749842047691,-0.04455000162124634,-0.06283749639987946
1750559014084844500,7.554844482421875,0.0471624992787838,-0.08483749628067017,-0.09955000132322311
1750559014094448600,7.56444873046875,0.06668750196695328,-0.13007499277591705,-0.13241249322891235
1750559014104052500,7.574052490234375,0.07397499680519104,-0.19112500548362732,-0.15331250429153442
1750559014113656600,7.583656494140625,0.06792499870061874,-0.21559999883174896,-0.15812499821186066
1750559014123260700,7.5932607421875,0.04963750019669533,-0.18988749384880066,-0.14959999918937683
1750559014132864500,7.602864501953125,0.021449999883770943,-0.09955000132322311,-0.12388750165700912
1750559014142468600,7.612468505859375,0.0056374999694526196,-0.02983750030398369,-0.06283749639987946
1750559014152072400,7.622072509765625,-0.009074999950826168,0.010449999943375587,-0.0017874999903142452
1750559014161676300,7.63167626953125,-0.021312499418854713,0.06916250288486481,0.011687500402331352
1750559014171280400,7.6412802734375,-0.03464999794960022,0.09721250087022781,-0.0030249999836087227
1750559014180884200,7.65088427734375,-0.04688749834895134,0.09597499668598175,-0.02736249938607216
1750559014190488300,7.66048828125,-0.0518375001847744,0.09597499668598175,-0.053075000643730164
1750559014200092400,7.670092529296875,-0.048124998807907104,0.09597499668598175,-0.07259999960660934
1750559014209696300,7.6796962890625,-0.03712499886751175,0.05073750019073486,-0.06531249731779099
1750559014219300400,7.68930029296875,-0.03464999794960022,0.006737499963492155,-0.0518375001847744
1750559014228904200,7.698904296875,-0.038362499326467514,-0.023787500336766243,-0.02983750030398369
1750559014238508300,7.70850830078125,-0.04331250116229057,-0.040837500244379044,-0.0005499999970197678
1750559014248112400,7.7181123046875,-0.048124998807907104,-0.03959999978542328,0.021449999883770943
1750559014257716200,7.72771630859375,-0.060362499207258224,-0.007837500423192978,0.04097500070929527
1750559014267320000,7.737320068359375,-0.06641250103712082,0.04221250116825104,0.06668750196695328
1750559014276924200,7.746924072265625,-0.045649997889995575,0.07644999772310257,0.09226249903440475
1750559014286528000,7.756528076171875,-0.012787500396370888,0.07768750190734863,0.10202500224113464
1750559014296132000,7.766132080078125,0.009212499484419823,0.031212499365210533,0.08373750001192093
1750559014305736200,7.775736083984375,0.004399999976158142,-0.031075000762939453,0.03739999979734421
1750559014315340000,7.785340087890625,-0.022549999877810478,-0.0835999995470047,-0.015124999918043613
1750559014324944000,7.79494384765625,-0.04207500070333481,-0.10807500034570694,-0.04455000162124634
1750559014334548000,7.8045478515625,-0.03959999978542328,-0.10078749805688858,-0.038362499326467514
1750559014344152000,7.814152099609375,-0.02983750030398369,-0.06778749823570251,-0.012787500396370888
1750559014353756000,7.823755859375,-0.021312499418854713,-0.031075000762939453,0.011687500402331352
1750559014363360000,7.833360107421875,-0.018837500363588333,0.017737500369548798,0.028737500309944153
1750559014372964000,7.842964111328125,-0.03355000168085098,0.06668750196695328,0.03739999979734421
1750559014382567700,7.852567626953125,-0.03959999978542328,0.09350000321865082,0.05073750019073486
1750559014392171800,7.862171875,-0.03712499886751175,0.0789249986410141,0.07026249915361404
1750559014401775900,7.87177587890625,-0.038362499326467514,0.05692499876022339,0.07397499680519104
1750559014411379700,7.881379638671875,-0.03355000168085098,0.022687500342726707,0.05816249921917915
1750559014420983800,7.89098388671875,-0.022549999877810478,-0.020075000822544098,0.025162499397993088
1750559014430587600,7.900587646484375,-0.013887500390410423,-0.0518375001847744,-0.009074999950826168
1750559014440191700,7.910191650390625,-0.006599999964237213,-0.06531249731779099,-0.03712499886751175
1750559014449795600,7.919795654296875,-0.005362499970942736,-0.048124998807907104,-0.04936249926686287
1750559014459399700,7.929399658203125,-0.009074999950826168,-0.0017874999903142452,-0.03712499886751175
1750559014469003800,7.939003662109375,-0.015124999918043613,0.04592499881982803,-0.009074999950826168
1750559014478607600,7.948607666015625,-0.020075000822544098,0.05321250110864639,0.021449999883770943
1750559014488211700,7.958211669921875,-0.01759999990463257,0.029975000768899918,0.03739999979734421
1750559014497815800,7.96781591796875,-0.011549999937415123,-0.006599999964237213,0.03616249933838844
1750559014507419600,7.977419677734375,-0.0005499999970197678,-0.03712499886751175,0.027499999850988388
1750559014517023500,7.9870234375,0.0056374999694526196,-0.050599999725818634,0.021449999883770943
1750559014526627300,7.99662744140625,0.009212499484419823,-0.02502499893307686,0.017737500369548798
1750559014536231400,8.0062314453125,0.010449999943375587,0.018975000828504562,0.015399999916553497
1750559014545835300,8.015835205078124,0.021449999883770943,0.018975000828504562,0.011687500402331352
1750559014555439400,8.025439453125,0.03616249933838844,-0.016362499445676804,-0.0030249999836087227
1750559014565043500,8.03504345703125,0.03987500071525574,-0.060362499207258224,-0.028599999845027924
1750559014574647300,8.044647216796875,0.03492499887943268,-0.08483749628067017,-0.05431250110268593
1750559014584251100,8.054251220703126,0.03368749842047691,-0.08236250281333923,-0.06283749639987946
1750559014593855500,8.06385546875,0.03739999979734421,-0.06655000150203705,-0.048124998807907104
1750559014603459300,8.073459228515626,0.03616249933838844,-0.040837500244379044,-0.02983750030398369
1750559014613063200,8.083063232421875,0.04221250116825104,-0.016362499445676804,-0.02983750030398369
1750559014622667300,8.092667236328126,0.03987500071525574,0.0019249999895691872,-0.05431250110268593
1750559014632271000,8.10227099609375,0.03368749842047691,0.0019249999895691872,-0.08483749628067017
1750559014641875200,8.111875244140625,0.026399999856948853,-0.015262499451637268,-0.1093124970793724
1750559014651479000,8.12147900390625,0.016637500375509262,-0.03231250122189522,-0.1251250058412552
1750559014661083100,8.131083251953125,0.0006874999962747097,-0.050599999725818634,-0.12388750165700912
1750559014670687000,8.14068701171875,-0.015124999918043613,-0.04455000162124634,-0.1251250058412552
1750559014680291000,8.150291015625,-0.023787500336766243,-0.02983750030398369,-0.1288374960422516
1750559014689895200,8.159895263671874,-0.013887500390410423,-0.015262499451637268,-0.1251250058412552
1750559014699499000,8.1694990234375,-0.0005499999970197678,-0.009074999950826168,-0.10188750177621841
1750559014709103000,8.17910302734375,0.0019249999895691872,-0.012787500396370888,-0.08607500046491623
1750559014718707000,8.18870703125,0.0006874999962747097,-0.020075000822544098,-0.09212499856948853
1750559014737915000,8.207914794921875,0.009212499484419823,-0.07259999960660934,-0.14959999918937683
1750559014747518700,8.217518798828126,0.021449999883770943,-0.10807500034570694,-0.2008875012397766
1750559014757122800,8.227122802734375,0.03244999796152115,-0.12155000120401382,-0.23759999871253967
1750559014766726700,8.2367265625,0.020212499424815178,-0.1153625026345253,-0.21793749928474426
1750559014776330800,8.246330810546874,-0.013887500390410423,-0.06902500241994858,-0.16307500004768372
1750559014785934800,8.255934814453125,-0.04207500070333481,0.023924998939037323,-0.09212499856948853
1750559014795538700,8.26553857421875,-0.06641250103712082,0.116737499833107,-0.005362499970942736
1750559014805142800,8.275142822265625,-0.08607500046491623,0.19497500360012054,0.05692499876022339
1750559014814746600,8.28474658203125,-0.10188750177621841,0.22302499413490295,0.0812624990940094
1750559014824350500,8.2943505859375,-0.1116499975323677,0.17778749763965607,0.05816249921917915
1750559014833954600,8.30395458984375,-0.11041250079870224,0.11178749799728394,-0.009074999950826168
1750559014843558400,8.313558349609375,-0.0873124971985817,0.05197500064969063,-0.07383749634027481
1750559014853162500,8.32316259765625,-0.05912499874830246,0.014162499457597733,-0.09583749622106552
1750559014862766600,8.3327666015625,-0.03464999794960022,0.060499999672174454,-0.0775500014424324
1750559014872370400,8.342370361328125,-0.04331250116229057,0.2303124964237213,0.026399999856948853
1750559014881974500,8.351974609375,-0.12264999747276306,0.367125004529953,0.29026249051094055
1750559014891578400,8.361578369140625,-0.2069374918937683,0.5663625001907349,0.6456999778747559
1750559014901182500,8.371182373046874,-0.28022500872612,0.8864625096321106,1.0500874519348145
1750559014910786300,8.380786376953125,-0.3339875042438507,1.2713249921798706,1.553475022315979
1750559014920390100,8.39039013671875,-0.2167000025510788,1.8210500478744507,2.1984875202178955
1750559014929994200,8.399994140625,-0.010312499478459358,2.2364375591278076,3.224787473678589
1750559014939598300,8.409598388671874,0.2096875011920929,2.3867249488830566,4.463662624359131
1750559014949202400,8.419202392578125,0.47107499837875366,2.412299871444702,5.499587535858154
1750559014958806500,8.428806640625,0.6128374934196472,2.2242000102996826,6.128787517547607
1750559014968410000,8.43841015625,0.653124988079071,1.8430500030517578,6.415887355804443
1750559014978014200,8.44801416015625,0.6701750159263611,1.2566125392913818,6.519700050354004
1750559014987618300,8.457618408203125,0.6078875064849854,0.5676000118255615,6.5246500968933105
1750559014997222100,8.46722216796875,0.46736249327659607,-0.09336250275373459,6.3511247634887695
1750559015006826200,8.476826171875,0.37207499146461487,-0.593037486076355,5.982212543487549
1750559015016430000,8.48643017578125,0.37207499146461487,-0.8973249793052673,5.412825107574463
1750559015026034200,8.4960341796875,0.414837509393692,-0.7580375075340271,4.593050003051758
1750559015035637800,8.5056376953125,0.4955500066280365,-0.6052749752998352,3.649937391281128
1750559015045241900,8.515241943359374,0.5308874845504761,-0.676087498664856,2.670112371444702
1750559015054846000,8.524845947265625,0.4857875108718872,-0.9583749771118164,1.6854749917984009
1750559015064449800,8.53444970703125,0.4295499920845032,-1.375,0.7398874759674072
1750559015074054000,8.544053955078125,0.3782624900341034,-1.7841999530792236,-0.08236250281333923
1750559015083658000,8.553657958984376,0.3330250084400177,-2.0713000297546387,-0.784850001335144
1750559015093261800,8.56326171875,0.2780250012874603,-2.1360623836517334,-1.387237548828125
1750559015102866000,8.572865966796876,0.26455000042915344,-2.009012460708618,-1.9174374341964722
1750559015112469800,8.5824697265625,0.29397499561309814,-1.715862512588501,-2.456162452697754
1750559015122073900,8.592073974609375,0.31226250529289246,-1.300475001335144,-3.0168874263763428
1750559015131677700,8.601677734375,0.3232625126838684,-0.8435624837875366,-3.549562454223633
1750559015141281800,8.61128173828125,0.34402498602867126,-0.49898749589920044,-3.982137441635132
1750559015150885600,8.6208857421875,0.38183748722076416,-0.3926999866962433,-4.28876256942749
1750559015160489700,8.63048974609375,0.406312495470047,-0.47093749046325684,-4.481812477111816
1750559015170093600,8.640093505859374,0.414837509393692,-0.58451247215271,-4.610099792480469
1750559015179697700,8.64969775390625,0.4600749909877777,-0.6957499980926514,-4.67843770980835
1750559015189301500,8.659301513671876,0.5163124799728394,-0.8533250093460083,-4.7163872718811035
1750559015198905600,8.668905517578125,0.5406500101089478,-1.0536625385284424,-4.788437366485596
1750559015208509400,8.678509521484376,0.5834124684333801,-1.1122374534606934,-5.004587650299072
1750559015218113500,8.688113525390625,0.6506500244140625,-0.8606125116348267,-5.290587425231934
1750559015227717600,8.697717529296876,0.7044125199317932,-0.5687000155448914,-5.313687324523926
1750559015237321500,8.707321533203125,0.7911750078201294,-0.5417500138282776,-4.702912330627441
1750559015246925300,8.71692529296875,0.863224983215332,-0.7140374779701233,-3.4640374183654785
1750559015256529400,8.726529296875,0.7874624729156494,-0.7067499756813049,-2.006537437438965
1750559015266133200,8.73613330078125,0.552887499332428,-0.4147000014781952,-0.7482749819755554
1750559015275737300,8.7457373046875,0.2609750032424927,0.06544999778270721,0.09473749995231628
1750559015285341200,8.755341064453125,-0.011549999937415123,0.5663625001907349,0.6041749715805054
1750559015294945300,8.7649453125,-0.21917499601840973,0.8888000249862671,0.9072250127792358
1750559015304549400,8.77454931640625,-0.30469998717308044,1.0060875415802002,0.993987500667572
1750559015314153200,8.7841533203125,-0.28888750076293945,0.993987500667572,0.8680375218391418
1750559015323757300,8.79375732421875,-0.2204124927520752,0.8998000025749207,0.5981249809265137
1750559015333361200,8.803361083984376,-0.18741250038146973,0.6188874840736389,0.3110249936580658
1750559015342965000,8.812965087890625,-0.19112500548362732,0.10573749989271164,0.0812624990940094
1750559015352569000,8.822569091796876,-0.20569999516010284,-0.36588749289512634,-0.1568875014781952
1750559015362173000,8.8321728515625,-0.2204124927520752,-0.5687000155448914,-0.37193748354911804
1750559015371777000,8.841777099609375,-0.20817500352859497,-0.5454624891281128,-0.45374998450279236
1750559015381381000,8.851381103515624,-0.18741250038146973,-0.37564998865127563,-0.3964124917984009
1750559015390985000,8.86098486328125,-0.1568875014781952,-0.0775500014424324,-0.25341248512268066
1750559015400589000,8.870589111328124,-0.14588749408721924,0.2670249938964844,-0.08607500046491623
1750559015410193000,8.88019287109375,-0.1531749963760376,0.5321249961853027,0.07397499680519104
1750559015419797000,8.889796875,-0.16788749396800995,0.6029375195503235,0.20473749935626984
1750559015429400800,8.89940087890625,-0.17036250233650208,0.49912500381469727,0.2890250086784363
1750559015439005000,8.9090048828125,-0.15936249494552612,0.3330250084400177,0.3232625126838684
1750559015448609000,8.918609130859375,-0.13859999179840088,0.16321249306201935,0.2927374839782715
1750559015458212600,8.928212646484376,-0.13612499833106995,0.015399999916553497,0.20721249282360077
1750559015467817000,8.93781689453125,-0.13612499833106995,-0.0873124971985817,0.10449999570846558
1750559015477420500,8.947420654296875,-0.12264999747276306,-0.09707500040531158,0.012924999929964542
1750559015487024600,8.957024658203125,-0.09707500040531158,-0.02736249938607216,-0.03478749841451645
1750559015496628500,8.96662841796875,-0.05912499874830246,0.09102500230073929,-0.02502499893307686
1750559015506232600,8.976232666015624,-0.016362499445676804,0.22673749923706055,0.015399999916553497
1750559015515836700,8.985836669921875,0.025162499397993088,0.2890250086784363,0.07644999772310257
1750559015525440500,8.9954404296875,0.04963750019669533,0.2560249865055084,0.1350249946117401
1750559015535044600,9.005044677734375,0.031212499365210533,0.17297500371932983,0.18273749947547913
1750559015544648700,9.014648681640624,0.0019249999895691872,0.015399999916553497,0.2059749960899353
1750559015554252300,9.024252197265625,-0.022549999877810478,-0.15441249310970306,0.19497500360012054
1750559015563856400,9.0338564453125,-0.038362499326467514,-0.22288750112056732,0.1704999953508377
1750559015573460500,9.04346044921875,-0.04688749834895134,-0.17765000462532043,0.15950000286102295
1750559015583064300,9.053064208984376,-0.053075000643730164,-0.038362499326467514,0.15950000286102295
1750559015592668400,9.06266845703125,-0.05431250110268593,0.13144999742507935,0.17173749208450317
1750559015602272300,9.072272216796875,-0.07012499868869781,0.2620750069618225,0.19002500176429749
1750559015611876400,9.08187646484375,-0.09707500040531158,0.34154999256134033,0.19126249849796295
1750559015621480400,9.09148046875,-0.1190750002861023,0.31226250529289246,0.1839749962091446
1750559015631084300,9.101084228515624,-0.14217500388622284,0.22907499969005585,0.1387374997138977
1750559015640688400,9.1106884765625,-0.14959999918937683,0.13021250069141388,0.10326249897480011
1750559015650292200,9.120292236328124,-0.1373624950647354,0.014162499457597733,0.11302500218153
1750559015659896300,9.129896240234375,-0.1116499975323677,-0.06159999966621399,0.13997499644756317
1750559015669500200,9.139500244140624,-0.0835999995470047,-0.038362499326467514,0.14602500200271606
1750559015679104000,9.14910400390625,-0.05664999783039093,0.03616249933838844,0.13750000298023224
1750559015688708400,9.158708251953126,-0.018837500363588333,0.11797499656677246,0.12292499840259552
1750559015698312000,9.16831201171875,0.011687500402331352,0.18273749947547913,0.10202500224113464
1750559015707916000,9.177916015625,0.03987500071525574,0.20473749935626984,0.0789249986410141
1750559015717520100,9.18752001953125,0.05816249921917915,0.15702499449253082,0.06544999778270721
1750559015727124000,9.1971240234375,0.05692499876022339,0.03616249933838844,0.0471624992787838
1750559015736728000,9.20672802734375,0.04097500070929527,-0.08112499862909317,0.011687500402331352
1750559015746332000,9.216331787109375,0.023924998939037323,-0.1508374959230423,-0.02736249938607216
1750559015755936000,9.22593603515625,0.021449999883770943,-0.16060000658035278,-0.04936249926686287
1750559015765540000,9.2355400390625,0.03863750025629997,-0.12155000120401382,-0.04702499881386757
1750559015775143700,9.245143798828124,0.06173750013113022,-0.04936249926686287,-0.02983750030398369
1750559015784747800,9.254747802734375,0.07397499680519104,0.027499999850988388,-0.0030249999836087227
1750559015794351600,9.2643515625,0.06668750196695328,0.10821250081062317,0.017737500369548798
1750559015803955700,9.273955810546875,0.04468749836087227,0.17297500371932983,0.020212499424815178
1750559015813559600,9.2835595703125,0.015399999916553497,0.1742125004529953,0.010449999943375587
1750559015823163600,9.29316357421875,-0.015124999918043613,0.12402500212192535,-0.015124999918043613
1750559015832767700,9.302767822265626,-0.040837500244379044,0.07273750007152557,-0.04936249926686287
1750559015842371800,9.312371826171875,-0.057887498289346695,0.03492499887943268,-0.06407500058412552
1750559015851975700,9.3219755859375,-0.06888750195503235,0.012924999929964542,-0.06531249731779099
1750559015861579500,9.33157958984375,-0.07741250097751617,0.006737499963492155,-0.06531249731779099
1750559015871183400,9.341183349609375,-0.09336250275373459,0.026399999856948853,-0.07383749634027481
1750559015880787700,9.35078759765625,-0.10064999759197235,0.0471624992787838,-0.09336250275373459
1750559015890391600,9.3603916015625,-0.09707500040531158,0.05197500064969063,-0.11288750171661377
1750559015899995600,9.36999560546875,-0.0835999995470047,0.03244999796152115,-0.13612499833106995
1750559015909599500,9.379599609375,-0.06888750195503235,0.009212499484419823,-0.1508374959230423
1750559015919203600,9.38920361328125,-0.04207500070333481,-0.014024999924004078,-0.14836250245571136
1750559015928807400,9.398807373046875,-0.010312499478459358,-0.031075000762939453,-0.1508374959230423
1750559015938411300,9.408411376953126,0.021449999883770943,-0.020075000822544098,-0.16060000658035278
1750559015948015400,9.418015380859375,0.04468749836087227,-0.006599999964237213,-0.1568875014781952
1750559015957619500,9.427619384765626,0.04839999973773956,0.03368749842047691,-0.13488750159740448
1750559015967223000,9.43722314453125,0.03244999796152115,0.060499999672174454,-0.0873124971985817
1750559015976827100,9.4468271484375,0.010449999943375587,0.0494999997317791,-0.04455000162124634
1750559015986431200,9.45643115234375,-0.0028874999843537807,0.031212499365210533,-0.018837500363588333
1750559015996035000,9.46603515625,-0.0017874999903142452,0.025162499397993088,-0.0017874999903142452
1750559016005639200,9.47563916015625,0.012924999929964542,0.03368749842047691,0.006737499963492155
1750559016015243300,9.4852431640625,0.03987500071525574,0.03368749842047691,0.006737499963492155
1750559016024847000,9.49484716796875,0.06063750013709068,0.03492499887943268,-0.012787500396370888
1750559016034451200,9.504451171875,0.07768750190734863,0.017737500369548798,-0.03712499886751175
1750559016044055000,9.514054931640626,0.08373750001192093,-0.03231250122189522,-0.05912499874830246
1750559016053659100,9.5236591796875,0.0849749967455864,-0.06902500241994858,-0.0873124971985817
1750559016063263000,9.533262939453126,0.0849749967455864,-0.0873124971985817,-0.09707500040531158
1750559016072866800,9.54286669921875,0.08139999955892563,-0.09583749622106552,-0.08483749628067017
1750559016082471000,9.552470947265626,0.06916250288486481,-0.09955000132322311,-0.05555000156164169
1750559016092075000,9.562074951171875,0.0471624992787838,-0.0835999995470047,-0.023787500336766243
1750559016101678800,9.571678955078125,0.014162499457597733,-0.06283749639987946,0.011687500402331352
1750559016111282700,9.58128271484375,-0.01759999990463257,-0.050599999725818634,0.04221250116825104
1750559016120886800,9.59088671875,-0.04455000162124634,-0.02502499893307686,0.05816249921917915
1750559016130490600,9.60049072265625,-0.05912499874830246,0.020212499424815178,0.06421250104904175
1750559016140094700,9.6100947265625,-0.05555000156164169,0.05926249921321869,0.06792499870061874
1750559016149698800,9.61969873046875,-0.050599999725818634,0.08002500236034393,0.055687498301267624
1750559016159302700,9.629302734375,-0.04688749834895134,0.08249999582767487,0.029975000768899918
1750559016168906800,9.63890673828125,-0.04688749834895134,0.055687498301267624,0.007974999956786633
1750559016178510600,9.648510498046875,-0.045649997889995575,0.007974999956786633,-0.0005499999970197678
1750559016188114400,9.658114501953126,-0.028599999845027924,-0.050599999725818634,-0.0005499999970197678
1750559016197718800,9.66771875,-0.012787500396370888,-0.09088750183582306,0.007974999956786633
1750559016207322600,9.677322509765625,-0.010312499478459358,-0.09583749622106552,0.011687500402331352
1750559016216926500,9.686926513671875,-0.016362499445676804,-0.06283749639987946,0.010449999943375587
1750559016226530600,9.696530517578125,-0.018837500363588333,-0.020075000822544098,0.0056374999694526196
1750559016236134400,9.706134521484374,-0.018837500363588333,0.031212499365210533,-0.0030249999836087227
1750559016245738500,9.715738525390625,-0.011549999937415123,0.04221250116825104,-0.0017874999903142452
1750559016255342300,9.72534228515625,0.0056374999694526196,0.010449999943375587,-0.006599999964237213
1750559016264946400,9.734946533203125,0.025162499397993088,-0.02736249938607216,-0.022549999877810478
1750559016274550300,9.74455029296875,0.03244999796152115,-0.06902500241994858,-0.036024998873472214
1750559016284154000,9.754154052734375,0.028875000774860382,-0.08855000138282776,-0.03712499886751175
1750559016293758200,9.76375830078125,0.03368749842047691,-0.07631249725818634,-0.020075000822544098
1750559016303362000,9.773362060546875,0.03492499887943268,-0.050599999725818634,0.017737500369548798
1750559016312966100,9.782966064453126,0.03616249933838844,-0.015262499451637268,0.05692499876022339
1750559016322570200,9.7925703125,0.03863750025629997,0.028737500309944153,0.07150000333786011
1750559016332174300,9.80217431640625,0.03368749842047691,0.06792499870061874,0.05692499876022339
1750559016341778200,9.811778076171874,0.03739999979734421,0.07273750007152557,0.029975000768899918
1750559016351382300,9.82138232421875,0.05444999784231186,0.031212499365210533,-0.015124999918043613
1750559016360986000,9.830986083984374,0.06544999778270721,-0.022549999877810478,-0.07878749817609787
1750559016370590200,9.840590087890625,0.07163749635219574,-0.07383749634027481,-0.14959999918937683
1750559016380194000,9.850194091796874,0.06544999778270721,-0.10559999942779541,-0.20583750307559967
1750559016389798100,9.859798095703125,0.04592499881982803,-0.09583749622106552,-0.2326499968767166
1750559016399402200,9.86940234375,0.03492499887943268,-0.058024998754262924,-0.21683749556541443
1750559016409006000,9.879006103515625,0.031212499365210533,-0.011549999937415123,-0.1508374959230423
1750559016418610000,9.88860986328125,0.031212499365210533,0.043449997901916504,-0.05912499874830246
1750559016428214000,9.898214111328125,0.020212499424815178,0.09721250087022781,0.021449999883770943
1750559016437817900,9.90781787109375,0.0056374999694526196,0.11921250075101852,0.07150000333786011
1750559016447422000,9.917421875,-0.004124999977648258,0.10449999570846558,0.07768750190734863
1750559016457025800,9.92702587890625,-0.0028874999843537807,0.03973750025033951,0.05444999784231186
1750559016466630000,9.9366298828125,0.017875000834465027,-0.045787498354911804,0.016637500375509262
1750559016476233700,9.946233642578125,0.0471624992787838,-0.1251250058412552,-0.010312499478459358
1750559016485837600,9.955837646484374,0.06668750196695328,-0.18383750319480896,-0.02502499893307686
1750559016495441700,9.965441650390625,0.06173750013113022,-0.17407499253749847,-0.022549999877810478
1750559016505045500,9.97504541015625,0.04468749836087227,-0.11288750171661377,-0.0017874999903142452
1750559016514649600,9.984649658203125,0.027637500315904617,-0.02736249938607216,0.025162499397993088
1750559016524253700,9.994253662109376,0.011687500402331352,0.048262499272823334,0.04468749836087227
1750559016533857500,10.003857421875,0.0006874999962747097,0.07644999772310257,0.043449997901916504
1750559016543461400,10.01346142578125,0.0006874999962747097,0.06668750196695328,0.022687500342726707
1750559016553065500,10.0230654296875,-0.0005499999970197678,0.017737500369548798,-0.014024999924004078
1750559016562669600,10.032669677734376,-0.005362499970942736,-0.026262499392032623,-0.060362499207258224
1750559016572273400,10.0422734375,-0.013887500390410423,-0.04331250116229057,-0.09831249713897705
1750559016581877200,10.051877197265625,-0.016362499445676804,-0.04207500070333481,-0.11412499845027924
1750559016591481600,10.061481689453124,-0.012787500396370888,-0.02736249938607216,-0.10559999942779541
1750559016601085200,10.071085205078125,-0.011549999937415123,0.014162499457597733,-0.09336250275373459
1750559016610689300,10.080689208984374,-0.016362499445676804,0.05321250110864639,-0.09088750183582306
1750559016620293000,10.090293212890625,-0.02488750033080578,0.07150000333786011,-0.08855000138282776
1750559016629897200,10.099897216796874,-0.03231250122189522,0.0752125009894371,-0.0775500014424324
1750559016639501300,10.109501220703125,-0.03464999794960022,0.0752125009894371,-0.07631249725818634
1750559016649105200,10.119105224609376,-0.03231250122189522,0.043449997901916504,-0.07507500052452087
1750559016658709200,10.128709228515625,-0.026124998927116394,0.005499999970197678,-0.07259999960660934
1750559016668313000,10.13831298828125,-0.010312499478459358,-0.02983750030398369,-0.07012499868869781
1750559016677917200,10.147917236328125,0.012924999929964542,-0.06159999966621399,-0.06159999966621399
1750559016687521300,10.157521240234376,0.03368749842047691,-0.09088750183582306,-0.06407500058412552
1750559016697125000,10.167125,0.04839999973773956,-0.09459999948740005,-0.0798875018954277
1750559016706729000,10.17672900390625,0.04839999973773956,-0.07259999960660934,-0.09212499856948853
1750559016716333000,10.1863330078125,0.05197500064969063,-0.036024998873472214,-0.09212499856948853
1750559016725937000,10.19593701171875,0.05444999784231186,-0.0030249999836087227,-0.08607500046491623
1750559016735541000,10.205541015625,0.05073750019073486,0.015399999916553497,-0.09459999948740005
1750559016745144800,10.215144775390625,0.03739999979734421,0.010449999943375587,-0.12388750165700912
1750559016754749000,10.2247490234375,0.015399999916553497,0.004399999976158142,-0.16307500004768372
1750559016764353000,10.23435302734375,0.0031624999828636646,-0.007837500423192978,-0.20941250026226044
1750559016773956900,10.243956787109376,-0.006599999964237213,-0.01759999990463257,-0.2387000024318695
1750559016783561000,10.25356103515625,-0.020075000822544098,0.006737499963492155,-0.2595999836921692
1750559016793164800,10.263164794921876,-0.038362499326467514,0.04592499881982803,-0.28888750076293945
1750559016802769000,10.272768798828125,-0.06888750195503235,0.0789249986410141,-0.34622499346733093
1750559016812372700,10.282372802734375,-0.12636250257492065,0.13378749787807465,-0.44151249527931213
1750559016821976600,10.2919765625,-0.18369999527931213,0.22673749923706055,-0.5454624891281128
1750559016831580700,10.30158056640625,-0.2069374918937683,0.31459999084472656,-0.6309875249862671
1750559016841184500,10.3111845703125,-0.22769999504089355,0.39531248807907104,-0.71527498960495
1750559016850788600,10.32078857421875,-0.21917499601840973,0.489362508058548,-0.7653250098228455
1750559016860392700,10.330392822265624,-0.18012499809265137,0.4978874921798706,-0.7335624694824219
1750559016869996500,10.33999658203125,-0.1629374921321869,0.5211250185966492,-0.6773250102996826
1750559016879600600,10.3496005859375,-0.1568875014781952,0.5834124684333801,-0.6052749752998352
1750559016889204700,10.359204833984375,-0.1434125006198883,0.6604124903678894,-0.5209875106811523
1750559016898808600,10.36880859375,-0.1508374959230423,0.7642250061035156,-0.47093749046325684
1750559016908412400,10.378412353515625,-0.13488750159740448,0.8680375218391418,-0.46351251006126404
1750559016918016500,10.3880166015625,-0.11041250079870224,0.9194625020027161,-0.48922500014305115
1750559016927620400,10.397620361328125,-0.06764999777078629,1.0537999868392944,-0.5392749905586243
1750559016937224400,10.407224365234375,0.009212499484419823,1.186900019645691,-0.4427500069141388
1750559016946828300,10.416828369140624,0.06544999778270721,1.2333749532699585,-0.02502499893307686
1750559016956432400,10.426432373046875,0.06297499686479568,1.1943249702453613,0.7117000222206116
1750559016966036200,10.4360361328125,0.017875000834465027,1.141800045967102,1.6389999389648438
1750559016975640300,10.445640380859375,-0.07741250097751617,1.2113749980926514,2.530824899673462
1750559016985244200,10.455244140625,-0.16060000658035278,1.300612449645996,3.2822625637054443
1750559016994848000,10.464847900390625,-0.19593749940395355,1.2468500137329102,3.9320874214172363
1750559017004452000,10.4744521484375,-0.03959999978542328,1.2150875329971313,4.472187519073486
1750559017014056200,10.48405615234375,0.21326249837875366,0.9327999949455261,5.128200054168701
1750559017023660000,10.493659912109376,0.4258374869823456,0.41359999775886536,5.757400035858154
1750559017033264000,10.50326416015625,0.6078875064849854,0.13144999742507935,6.150787353515625
1750559017042868000,10.512867919921876,0.6176499724388123,-0.3511750102043152,6.386600017547607
1750559017052472000,10.52247216796875,0.5198875069618225,-0.8386124968528748,6.437887668609619
1750559017062076000,10.532075927734375,0.4796000123023987,-1.1074249744415283,6.251025199890137
1750559017071680000,10.541679931640624,0.5321249961853027,-1.37128746509552,5.886924743652344
1750559017081284000,10.5512841796875,0.6078875064849854,-1.7011499404907227,5.335962295532227
1750559017090888000,10.560887939453124,0.6886000037193298,-1.9174374341964722,4.632237434387207
1750559017100492000,10.570491943359375,0.7704125046730042,-1.9149625301361084,3.883275032043457
1750559017110096000,10.580095947265624,0.9560375213623047,-1.6779124736785889,3.2284998893737793
1750559017119699700,10.58969970703125,1.0757999420166016,-1.5472874641418457,2.8081624507904053
1750559017129303800,10.5993037109375,1.0318000316619873,-1.583862543106079,2.453824996948242
1750559017138907600,10.60890771484375,0.910937488079071,-1.6218124628067017,2.0153374671936035
1750559017148511700,10.61851171875,0.7154124975204468,-1.7353874444961548,1.5779500007629395
1750559017158115800,10.62811572265625,0.5395500063896179,-1.7964375019073486,1.1723250150680542
1750559017167719700,10.6377197265625,0.469837486743927,-1.566812515258789,0.7264124751091003
1750559017177323800,10.64732373046875,0.3965499997138977,-1.1684750318527222,0.2572624981403351
1750559017186927600,10.656927734375,0.3170749843120575,-0.7812749743461609,-0.24488750100135803
1750559017196531500,10.666531494140624,0.2157374918460846,-0.32065001130104065,-0.8338000178337097
1750559017206135600,10.676135498046875,0.04221250116825104,0.26826250553131104,-1.4860999584197998
1750559017215739400,10.685739501953124,-0.13488750159740448,0.8790374994277954,-2.1238250732421875
1750559017225343500,10.695343505859375,-0.2387000024318695,1.3249499797821045,-2.7395498752593994
1750559017234947300,10.704947265625,-0.32065001130104065,1.3543750047683716,-3.3406999111175537
1750559017244551400,10.714551513671875,-0.4195125102996826,1.008562445640564,-3.958899974822998
1750559017254155300,10.7241552734375,-0.5148000121116638,0.5053125023841858,-4.644199848175049
1750559017263759400,10.73375927734375,-0.610087513923645,-0.10683749616146088,-5.371162414550781
1750559017273363500,10.743363525390626,-0.6675624847412109,-0.5112249851226807,-6.0956501960754395
1750559017282967000,10.752967041015625,-0.6358000040054321,-0.6870874762535095,-6.752900123596191
1750559017292571400,10.7625712890625,-0.40974998474121094,-0.6309875249862671,-7.280762672424316
1750559017302175200,10.77217529296875,0.14726249873638153,-0.5467000007629395,-7.443150043487549
1750559017311779000,10.781779052734375,0.744700014591217,-0.7775624990463257,-6.949662685394287
1750559017321383200,10.791383056640624,1.042799949645996,-1.0036125183105469,-5.864787578582764
1750559017330987300,10.8009873046875,1.108799934387207,-0.8886625170707703,-4.4585747718811035
1750559017340591000,10.810591064453124,1.117324948310852,-0.45141249895095825,-2.976599931716919
1750559017350195000,10.82019482421875,1.0000375509262085,0.1839749962091446,-1.641337513923645
1750559017359799000,10.829799072265626,0.7814124822616577,0.8351749777793884,-0.6285125017166138
1750559017369403100,10.839403076171875,0.5810750126838684,1.2516624927520752,0.04839999973773956
1750559017379007000,10.849007080078126,0.46736249327659607,1.4264249801635742,0.3928374946117401
1750559017388610800,10.85861083984375,0.4123624861240387,1.392187476158142,0.4417875111103058
1750559017398215000,10.86821484375,0.3880249857902527,1.1136125326156616,0.2938374876976013
1750559017407819000,10.877819091796875,0.36355000734329224,0.6958875060081482,0.04839999973773956
1750559017417422800,10.8874228515625,0.32573750615119934,0.21931250393390656,-0.2106499969959259
1750559017427027000,10.89702685546875,0.24997499585151672,-0.2461249977350235,-0.4207499921321869
1750559017436630800,10.906630859375,0.16568750143051147,-0.48922500014305115,-0.5600374937057495
1750559017446235000,10.91623486328125,0.1264999955892563,-0.44769999384880066,-0.5784624814987183
1750559017455838700,10.925838623046875,0.08249999582767487,-0.24365000426769257,-0.43546250462532043
1750559017465442800,10.93544287109375,0.021449999883770943,0.04221250116825104,-0.19717499613761902
1750559017475046700,10.945046630859375,-0.015124999918043613,0.3452624976634979,0.03973750025033951
1750559017484650800,10.954650634765626,-0.022549999877810478,0.5053125023841858,0.2120250016450882
1750559017494254600,10.964254638671875,-0.018837500363588333,0.4978874921798706,0.27197501063346863
1750559017503858700,10.973858642578126,-0.03231250122189522,0.367125004529953,0.21697500348091125
1750559017513462500,10.983462646484375,-0.05555000156164169,0.16197499632835388,0.08992499858140945
1750559017523066600,10.993066650390626,-0.07741250097751617,-0.018837500363588333,-0.03478749841451645
1750559017532670700,11.002670654296875,-0.09707500040531158,-0.12155000120401382,-0.10436250269412994
1750559017542274600,11.012274658203125,-0.11412499845027924,-0.14231249690055847,-0.08483749628067017
1750559017551878700,11.021878662109375,-0.1288374960422516,-0.08112499862909317,-0.0042624999769032
1750559017561482500,11.031482421875,-0.11412499845027924,0.005499999970197678,0.08373750001192093
1750559017571086600,11.041086669921874,-0.08607500046491623,0.08002500236034393,0.14121249318122864
1750559017580690400,11.0506904296875,-0.06159999966621399,0.12044999748468399,0.15826250612735748
1750559017590294500,11.06029443359375,-0.040837500244379044,0.13750000298023224,0.15097500383853912
1750559017599898400,11.0698984375,-0.028599999845027924,0.13750000298023224,0.148499995470047
1750559017609502500,11.07950244140625,-0.012787500396370888,0.10326249897480011,0.1522125005722046
1750559017619106300,11.089106201171875,0.017875000834465027,0.010449999943375587,0.14726249873638153
1750559017628710400,11.09871044921875,0.043449997901916504,-0.10188750177621841,0.1326874941587448
1750559017638314200,11.108314208984375,0.05939999967813492,-0.1568875014781952,0.10449999570846558
1750559017647918300,11.11791845703125,0.0752125009894371,-0.16788749396800995,0.07768750190734863
1750559017657522400,11.1275224609375,0.09350000321865082,-0.12636250257492065,0.0471624992787838
1750559017667126300,11.137126220703125,0.10339999943971634,-0.026262499392032623,0.0019249999895691872
1750559017676730400,11.14673046875,0.09116250276565552,0.06792499870061874,-0.04702499881386757
1750559017686334000,11.156333984375,0.05939999967813492,0.11550000309944153,-0.09212499856948853
1750559017695938000,11.16593798828125,0.014162499457597733,0.09721250087022781,-0.10436250269412994
1750559017705542100,11.175542236328125,-0.038362499326467514,0.05321250110864639,-0.10064999759197235
1750559017715146000,11.18514599609375,-0.05912499874830246,0.021449999883770943,-0.0798875018954277
1750559017724750000,11.19475,-0.04936249926686287,0.012924999929964542,-0.038362499326467514
1750559017734354000,11.20435400390625,-0.021312499418854713,0.017737500369548798,0.0056374999694526196
1750559017743958000,11.2139580078125,0.0056374999694526196,0.006737499963492155,0.025162499397993088
1750559017753562000,11.22356201171875,0.022687500342726707,0.021449999883770943,-0.009074999950826168
1750559017763166000,11.233166015625,0.03616249933838844,0.04468749836087227,-0.06283749639987946
1750559017772770000,11.24277001953125,0.05444999784231186,0.031212499365210533,-0.10064999759197235
1750559017782373600,11.25237353515625,0.06544999778270721,0.0019249999895691872,-0.1190750002861023
1750559017791978000,11.26197802734375,0.06544999778270721,-0.03231250122189522,-0.12636250257492065
1750559017801581600,11.27158154296875,0.05939999967813492,-0.06778749823570251,-0.1313125044107437
1750559017811185700,11.281185546875,0.043449997901916504,-0.08112499862909317,-0.11412499845027924
1750559017820789500,11.29078955078125,0.025162499397993088,-0.07136250287294388,-0.06655000150203705
1750559017830393600,11.3003935546875,0.011687500402331352,-0.04207500070333481,-0.0042624999769032
1750559017839997700,11.309997802734374,0.0056374999694526196,0.014162499457597733,0.05444999784231186
1750559017849601500,11.3196015625,0.0031624999828636646,0.0752125009894371,0.10202500224113464
1750559017859205600,11.32920556640625,-0.0028874999843537807,0.1289750039577484,0.12044999748468399
1750559017868809500,11.3388095703125,-0.016362499445676804,0.16197499632835388,0.10092499852180481
1750559017878413300,11.348413330078126,-0.02736249938607216,0.15950000286102295,0.060499999672174454
1750559017888017400,11.358017333984375,-0.04207500070333481,0.09721250087022781,0.028737500309944153
1750559017897621500,11.36762158203125,-0.06764999777078629,0.017737500369548798,-0.0005499999970197678
1750559017907225300,11.377225341796875,-0.089649997651577,-0.04455000162124634,-0.015124999918043613
1750559017916829200,11.3868291015625,-0.09707500040531158,-0.05678749829530716,-0.006599999964237213
1750559017926433300,11.396433349609374,-0.089649997651577,-0.016362499445676804,0.014162499457597733
1750559017936037400,11.406037353515625,-0.06159999966621399,0.0494999997317791,0.03973750025033951
1750559017945641200,11.41564111328125,-0.03464999794960022,0.08868750184774399,0.06173750013113022
1750559017955245300,11.425245361328125,-0.012787500396370888,0.0752125009894371,0.06544999778270721
1750559017964849200,11.43484912109375,0.0056374999694526196,0.04097500070929527,0.04097500070929527
1750559017974453200,11.444453369140625,0.020212499424815178,-0.0005499999970197678,0.011687500402331352
1750559017984057300,11.454057373046876,0.026399999856948853,-0.04207500070333481,-0.005362499970942736
1750559017993661200,11.4636611328125,0.021449999883770943,-0.03231250122189522,-0.012787500396370888
1750559018003265000,11.47326513671875,0.009212499484419823,-0.009074999950826168,-0.0030249999836087227
1750559018012868900,11.482868896484375,-0.010312499478459358,0.005499999970197678,0.012924999929964542
1750559018022473000,11.492472900390625,-0.01759999990463257,0.017737500369548798,0.020212499424815178
1750559018032077000,11.5020771484375,-0.005362499970942736,0.010449999943375587,0.016637500375509262
1750559018041681000,11.511680908203125,0.017875000834465027,-0.007837500423192978,-0.0042624999769032
1750559018051284700,11.52128466796875,0.03368749842047691,-0.010312499478459358,-0.03231250122189522
1750559018060889000,11.53088916015625,0.055687498301267624,-0.022549999877810478,-0.04207500070333481
1750559018070492700,11.54049267578125,0.06063750013709068,-0.028599999845027924,-0.036024998873472214
1750559018080096800,11.5500966796875,0.05197500064969063,-0.040837500244379044,-0.022549999877810478
1750559018089700900,11.559700927734376,0.03492499887943268,-0.050599999725818634,-0.014024999924004078
1750559018099304700,11.5693046875,0.018975000828504562,-0.048124998807907104,-0.011549999937415123
1750559018108908800,11.57890869140625,0.0056374999694526196,-0.020075000822544098,-0.016362499445676804
1750559018118512600,11.5885126953125,0.0019249999895691872,0.031212499365210533,-0.031075000762939453
1750559018128116700,11.59811669921875,-0.0005499999970197678,0.07644999772310257,-0.04207500070333481
1750559018137720800,11.607720947265625,0.0031624999828636646,0.08249999582767487,-0.048124998807907104
1750559018147324400,11.617324462890625,0.004399999976158142,0.060499999672174454,-0.06407500058412552
1750559018156928500,11.626928466796874,-0.010312499478459358,0.03244999796152115,-0.08607500046491623
1750559018166532400,11.636532470703125,-0.031075000762939453,0.0019249999895691872,-0.08483749628067017
1750559018176136400,11.646136474609374,-0.03355000168085098,-0.04331250116229057,-0.06531249731779099
1750559018185740500,11.655740478515625,-0.023787500336766243,-0.0518375001847744,-0.04331250116229057
1750559018195344400,11.665344482421874,-0.009074999950826168,-0.02736249938607216,-0.026124998927116394
1750559018204948500,11.674948486328125,-0.004124999977648258,0.021449999883770943,-0.026124998927116394
1750559018214552300,11.68455224609375,-0.0028874999843537807,0.07397499680519104,-0.04455000162124634
1750559018224156400,11.694156494140625,-0.004124999977648258,0.08992499858140945,-0.05678749829530716
1750559018233760000,11.703760009765626,-0.011549999937415123,0.05321250110864639,-0.050599999725818634
1750559018243364400,11.7133642578125,-0.013887500390410423,-0.0005499999970197678,-0.03712499886751175
1750559018252968200,11.72296826171875,-0.015124999918043613,-0.053075000643730164,-0.012787500396370888
