time,seconds_elapsed,z,y,x
1750559006612957200,0.082957275390625,0.020624998956918716,0.09047500044107437,0.16169999539852142
1750559006622561300,0.092561279296875,0.06462500244379044,0.06847500056028366,0.07864999771118164
1750559006632165000,0.1021650390625,0.12196250259876251,0.047712501138448715,0.010174999944865704
1750559006641769200,0.111769287109375,0.18672500550746918,0.05004999786615372,-0.05335000157356262
1750559006651372800,0.121372802734375,0.24777500331401825,0.07947500050067902,-0.10944999754428864
1750559006660977200,0.13097705078125,0.2881999909877777,0.10999999940395355,-0.16197499632835388
1750559006670581000,0.1405810546875,0.3100624978542328,0.1270499974489212,-0.20116250216960907
1750559006680184800,0.150184814453125,0.32106250524520874,0.11852499842643738,-0.22921249270439148
1750559006689789000,0.159788818359375,0.3260124921798706,0.0952875018119812,-0.2572624981403351
1750559006699393000,0.16939306640625,0.3357749879360199,0.09047500044107437,-0.2890250086784363
1750559006708996900,0.178996826171875,0.34677499532699585,0.0989999994635582,-0.32573750615119934
1750559006718601000,0.18860107421875,0.3517250120639801,0.14657500386238098,-0.37097498774528503
1750559006728204500,0.19820458984375,0.33701249957084656,0.22110000252723694,-0.39531248807907104
1750559006737808600,0.20780859375,0.2857249975204468,0.23828749358654022,-0.3745499849319458
1750559006747412700,0.217412841796875,0.2246749997138977,0.19910000264644623,-0.3172124922275543
1750559006757016600,0.2270166015625,0.17820000648498535,0.1588124930858612,-0.23292499780654907
1750559006766620400,0.236620361328125,0.15372499823570251,0.1307625025510788,-0.13021250069141388
1750559006776224500,0.246224609375,0.14643749594688416,0.11852499842643738,-0.03258749842643738
1750559006785828400,0.255828369140625,0.15248750150203705,0.10999999940395355,0.0518375001847744
1750559006795432200,0.26543212890625,0.16596250236034393,0.09404999762773514,0.11893749982118607
1750559006805036300,0.275036376953125,0.18424999713897705,0.054999999701976776,0.14464999735355377
1750559006814640000,0.28464013671875,0.19401249289512634,0.007287499960511923,0.1214125007390976
1750559006824244200,0.294244140625,0.1929125040769577,-0.025575000792741776,0.06393750011920929
1750559006833848300,0.303848388671875,0.19043749570846558,-0.057337500154972076,0.004124999977648258
1750559006843452000,0.313451904296875,0.18796250224113464,-0.07809999585151672,-0.0411125011742115
1750559006853056000,0.323055908203125,0.18424999713897705,-0.08552499860525131,-0.07411249727010727
1750559006862660000,0.33266015625,0.18067499995231628,-0.07452499866485596,-0.09844999760389328
1750559006872264000,0.342263916015625,0.1732500046491623,-0.0635249987244606,-0.11192499846220016
1750559006881867800,0.35186767578125,0.17201249301433563,-0.0635249987244606,-0.1143999993801117
1750559006891472000,0.361471923828125,0.16843749582767487,-0.06599999964237213,-0.11563749611377716
1750559006901075700,0.37107568359375,0.15619999170303345,-0.05376249924302101,-0.10944999754428864
1750559006910679800,0.3806796875,0.13296249508857727,-0.01952499896287918,-0.08992499858140945
1750559006920283600,0.39028369140625,0.10615000128746033,0.04895000159740448,-0.06187500059604645
1750559006929887700,0.3998876953125,0.07438749819993973,0.10628750175237656,-0.028875000774860382
1750559006939491600,0.40949169921875,0.03162499889731407,0.13323749601840973,-0.0031624999828636646
1750559006949095700,0.419095703125,-0.016087500378489494,0.15633749961853027,0.01759999990463257
1750559006958699500,0.428699462890625,-0.06132499873638153,0.18576249480247498,0.04688749834895134
1750559006968303400,0.438303466796875,-0.09790000319480896,0.21752500534057617,0.06641250103712082
1750559006977907500,0.447907470703125,-0.12484999746084213,0.22852499783039093,0.07369999587535858
1750559006987511300,0.45751123046875,-0.14918750524520874,0.23086249828338623,0.07136250287294388
1750559006997115400,0.467115478515625,-0.16266250610351562,0.2320999950170517,0.06159999966621399
1750559007006719200,0.47671923828125,-0.16142499446868896,0.20528750121593475,0.06270000338554382
1750559007016323300,0.4863232421875,-0.1381874978542328,0.15523749589920044,0.07617499679327011
1750559007025927200,0.49592724609375,-0.11013749986886978,0.11357499659061432,0.08236250281333923
1750559007035531000,0.505531005859375,-0.08566249907016754,0.08799999952316284,0.0798875018954277
1750559007045135000,0.515135009765625,-0.06613750010728836,0.07095000147819519,0.07369999587535858
1750559007054739000,0.524739013671875,-0.04908749833703041,0.05252499878406525,0.06159999966621399
1750559007064342800,0.5343427734375,-0.05156249925494194,0.023237500339746475,0.048124998807907104
1750559007073947000,0.54394677734375,-0.05637500062584877,-0.02199999988079071,0.03712499886751175
1750559007083551000,0.553551025390625,-0.06366249918937683,-0.08552499860525131,0.03464999794960022
1750559007093154600,0.563154541015625,-0.07232499867677689,-0.13928750157356262,0.043175000697374344
1750559007102758700,0.572758544921875,-0.07466249912977219,-0.1428624987602234,0.05664999783039093
1750559007112362500,0.582362548828125,-0.07342500239610672,-0.10381250083446503,0.07369999587535858
1750559007121966600,0.591966552734375,-0.07837499678134918,-0.035337500274181366,0.09336250275373459
1750559007131570400,0.6015703125,-0.08689999580383301,0.03918749839067459,0.10436250269412994
1750559007141174500,0.611174560546875,-0.0906125009059906,0.07699999958276749,0.10312499850988388
1750559007150778400,0.6207783203125,-0.08208750188350677,0.07699999958276749,0.08717499673366547
1750559007160382500,0.630382568359375,-0.06366249918937683,0.0672374963760376,0.050599999725818634
1750559007169986000,0.639986083984375,-0.045375000685453415,0.059950001537799835,0.0028874999843537807
1750559007179590100,0.649590087890625,-0.01966249942779541,0.05871250107884407,-0.0471624992787838
1750559007189194200,0.6591943359375,0.007149999961256981,0.06228749826550484,-0.08139999955892563
1750559007198798000,0.668798095703125,0.020624998956918716,0.02694999985396862,-0.08511249721050262
1750559007208402000,0.67840185546875,0.030387500301003456,-0.05004999786615372,-0.07535000145435333
1750559007218006000,0.688006103515625,0.03162499889731407,-0.10752499848604202,-0.06187500059604645
1750559007227610000,0.697610107421875,0.020624998956918716,-0.13557499647140503,-0.03492499887943268
1750559007237214000,0.7072138671875,0.01209999993443489,-0.10986249893903732,-0.004399999976158142
1750559007246817800,0.71681787109375,-0.0013749999925494194,-0.035337500274181366,0.035887498408555984
1750559007256422000,0.726421875,-0.00989999994635582,0.02199999988079071,0.08717499673366547
1750559007266025700,0.736025634765625,-0.007562499959021807,0.032999999821186066,0.13241249322891235
1750559007275629600,0.745629638671875,-0.0038499999791383743,0.030524998903274536,0.14822499454021454
1750559007285233700,0.755233642578125,0.0010999999940395355,0.02447500079870224,0.13722500205039978
1750559007294837500,0.76483740234375,0.004674999974668026,0.0147124994546175,0.11288750171661377
1750559007304441600,0.774441650390625,0.010862499475479126,0.00976249948143959,0.0859375
1750559007314045400,0.78404541015625,0.014437500387430191,-0.0035749999806284904,0.05664999783039093
1750559007323649500,0.7936494140625,0.002199999988079071,-0.05376249924302101,0.026124998927116394
1750559007333253600,0.803253662109375,-0.02213750034570694,-0.12952500581741333,-0.0008249999955296516
1750559007342857200,0.812857177734375,-0.04908749833703041,-0.19538749754428864,-0.011824999935925007
1750559007352461300,0.82246142578125,-0.06861250102519989,-0.22714999318122864,-0.0008249999955296516
1750559007362065400,0.8320654296875,-0.07961250096559525,-0.22110000252723694,0.035887498408555984
1750559007371669200,0.841669189453125,-0.07713750004768372,-0.12952500581741333,0.08470000326633453
1750559007381273300,0.8512734375,-0.07342500239610672,0.02447500079870224,0.1274625062942505
1750559007390877200,0.860877197265625,-0.06861250102519989,0.15399999916553497,0.1531749963760376
1750559007400481300,0.870481201171875,-0.062424998730421066,0.2297624945640564,0.15070000290870667
1750559007410084900,0.8800849609375,-0.047849997878074646,0.24186250567436218,0.12264999747276306
1750559007419689000,0.88968896484375,-0.02708750031888485,0.1845249980688095,0.08470000326633453
1750559007429293300,0.899293212890625,-0.0013749999925494194,0.08071249723434448,0.04193750023841858
1750559007438897000,0.90889697265625,0.027912499383091927,-0.023237500339746475,-0.004399999976158142
1750559007448501000,0.9185009765625,0.04743750020861626,-0.10628750175237656,-0.03863750025629997
1750559007458104800,0.928104736328125,0.05967500060796738,-0.12952500581741333,-0.04839999973773956
1750559007467709000,0.937708984375,0.0681999996304512,-0.10009999573230743,-0.03987500071525574
1750559007477313000,0.94731298828125,0.06943749636411667,-0.045237500220537186,-0.021587500348687172
1750559007486916600,0.95691650390625,0.07796250283718109,0.02928750030696392,-0.012924999929964542
1750559007496520700,0.966520751953125,0.09391249716281891,0.1050499975681305,-0.022687500342726707
1750559007506124800,0.976124755859375,0.10848750174045563,0.13323749601840973,-0.04235000163316727
1750559007515728600,0.985728759765625,0.10615000128746033,0.10752499848604202,-0.055687498301267624
1750559007525332700,0.995332763671875,0.10119999945163727,0.045237500220537186,-0.06311249732971191
1750559007534936600,1.0049365234375,0.07562500238418579,-0.05376249924302101,-0.06792499870061874
1750559007544540400,1.01454052734375,0.03162499889731407,-0.14657500386238098,-0.08387500047683716
1750559007554144500,1.02414453125,0.0034374999813735485,-0.210099995136261,-0.08992499858140945
1750559007563748400,1.033748291015625,-0.0013749999925494194,-0.24310000240802765,-0.08635000139474869
1750559007573352400,1.0433525390625,0.014437500387430191,-0.2540999948978424,-0.08139999955892563
1750559007582956300,1.052956298828125,0.02914999984204769,-0.22962500154972076,-0.06792499870061874
1750559007592560400,1.062560302734375,0.03519999980926514,-0.17710000276565552,-0.04963750019669533
1750559007602164200,1.072164306640625,0.02186249941587448,-0.0989999994635582,-0.04358749836683273
1750559007611768300,1.081768310546875,-0.008799999952316284,-0.03657500073313713,-0.03863750025629997
1750559007621372200,1.0913720703125,-0.035612501204013824,0.00494999997317791,-0.030112499371170998
1750559007630976000,1.10097607421875,-0.055137500166893005,0.023237500339746475,-0.015399999916553497
1750559007640580400,1.110580322265625,-0.07108750194311142,0.01347499992698431,0.0028874999843537807
1750559007650184200,1.12018408203125,-0.09790000319480896,-0.01347499992698431,0.02983750030398369
1750559007659788000,1.1297880859375,-0.11866249889135361,-0.0085249999538064,0.057887498289346695
1750559007669392100,1.13939208984375,-0.11742500215768814,0.02447500079870224,0.089649997651577
1750559007678996000,1.148995849609375,-0.09913749992847443,0.06104999780654907,0.12388750165700912
1750559007688599800,1.158599853515625,-0.07232499867677689,0.12828749418258667,0.133650004863739
1750559007698204000,1.168203857421875,-0.040562499314546585,0.19910000264644623,0.11412499845027924
1750559007707807700,1.177807861328125,-0.00989999994635582,0.24076250195503235,0.07741250097751617
1750559007717411800,1.187411865234375,0.0193875003606081,0.23086249828338623,0.038362499326467514
1750559007727015700,1.197015625,0.03396249935030937,0.18700000643730164,0.0004124999977648258
1750559007736619800,1.206619873046875,0.03519999980926514,0.15399999916553497,-0.027637500315904617
1750559007746223600,1.2162236328125,0.02419999986886978,0.1405249983072281,-0.04358749836683273
1750559007755827700,1.22582763671875,0.02914999984204769,0.10999999940395355,-0.03368749842047691
1750559007765431600,1.235431640625,0.04138749837875366,0.06228749826550484,-0.010587500408291817
1750559007775035400,1.245035400390625,0.05115000158548355,0.006187499966472387,0.006599999964237213
1750559007784639500,1.254639404296875,0.04743750020861626,-0.0317624993622303,0.004124999977648258
1750559007794243300,1.264243408203125,0.04138749837875366,-0.028049999848008156,-0.008112499490380287
1750559007803847400,1.273847412109375,0.02914999984204769,0.032999999821186066,-0.014162499457597733
1750559007813451500,1.283451416015625,0.020624998956918716,0.12581250071525574,-0.020349999889731407
1750559007823055000,1.29305517578125,0.013199999928474426,0.18328750133514404,-0.027637500315904617
1750559007832659200,1.3026591796875,0.013199999928474426,0.18328750133514404,-0.05087500065565109
1750559007842263000,1.312262939453125,0.020624998956918716,0.1588124930858612,-0.10944999754428864
1750559007851867100,1.3218671875,0.015675000846385956,0.08428750187158585,-0.18521249294281006
1750559007861471200,1.33147119140625,0.010862499475479126,-0.030524998903274536,-0.23416249454021454
1750559007871075000,1.341074951171875,0.005912499967962503,-0.1685750037431717,-0.2414499968290329
1750559007880679200,1.35067919921875,-0.011137500405311584,-0.22714999318122864,-0.22192500531673431
1750559007890283000,1.360282958984375,-0.018562499433755875,-0.2040500044822693,-0.18768750131130219
1750559007899887000,1.36988720703125,-0.005087499972432852,-0.0989999994635582,-0.14368750154972076
1750559007909491200,1.3794912109375,0.02667500078678131,0.07452499866485596,-0.08992499858140945
1750559007919095000,1.389094970703125,0.06462500244379044,0.24928750097751617,-0.04468749836087227
1750559007928699000,1.398698974609375,-0.0038499999791383743,0.24557499587535858,-0.05087500065565109
1750559007938302700,1.408302734375,-0.047849997878074646,0.20899999141693115,-0.03492499887943268
1750559007947906800,1.41790673828125,-0.01484999991953373,0.23457500338554382,-0.011824999935925007
1750559007957510700,1.4275107421875,0.0010999999940395355,0.10999999940395355,-0.012924999929964542
1750559007967114800,1.43711474609375,-0.03437500074505806,-0.13805000483989716,-0.0411125011742115
1750559007976718800,1.44671875,-0.042899999767541885,-0.25286251306533813,-0.06544999778270721
1750559007986322400,1.456322509765625,-0.03684999793767929,-0.1868624985218048,-0.0728750005364418
1750559007995926500,1.465926513671875,-0.033137500286102295,-0.05252499878406525,-0.06311249732971191
1750559008005530400,1.4755302734375,-0.042899999767541885,0.08676250278949738,-0.012924999929964542
1750559008015134500,1.485134521484375,-0.06861250102519989,0.23704999685287476,0.10670000314712524
1750559008024738300,1.49473828125,-0.02213750034570694,0.28462499380111694,0.1434125006198883
1750559008034342400,1.50434228515625,0.0193875003606081,0.24928750097751617,0.09817499667406082
1750559008043946200,1.5139462890625,0.02186249941587448,0.13805000483989716,0.06641250103712082
1750559008053550000,1.523550048828125,0.007149999961256981,0.09776250272989273,0.06641250103712082
1750559008063154200,1.533154296875,0.013199999928474426,0.05623750016093254,0.060362499207258224
1750559008072758300,1.54275830078125,0.027912499383091927,-0.020762499421834946,0.043175000697374344
1750559008082362000,1.552362060546875,0.04496249929070473,-0.09404999762773514,0.018837500363588333
1750559008091966200,1.56196630859375,0.07067500054836273,-0.14409999549388885,-0.016637500375509262
1750559008101570000,1.571570068359375,0.09748750180006027,-0.1868624985218048,-0.05939999967813492
1750559008111174100,1.581174072265625,0.1256749927997589,-0.210099995136261,-0.09968750178813934
1750559008120778000,1.590778076171875,0.13791249692440033,-0.18205000460147858,-0.12292499840259552
1750559008130382000,1.600382080078125,0.11838749796152115,-0.09776250272989273,-0.12292499840259552
1750559008139986200,1.609986083984375,0.0681999996304512,0.01347499992698431,-0.1106875017285347
1750559008149589800,1.61958984375,0.0034374999813735485,0.07328750193119049,-0.09363749623298645
1750559008159193900,1.62919384765625,-0.04166249930858612,0.03918749839067459,-0.07644999772310257
1750559008168798000,1.6387978515625,-0.028324998915195465,0.01347499992698431,-0.03616249933838844
1750559008178401800,1.64840185546875,0.04138749837875366,0.028187500312924385,0.03217500075697899
1750559008188006000,1.658005859375,0.08043749630451202,0.10023749619722366,0.07136250287294388
1750559008197609700,1.667609619140625,0.04743750020861626,0.19676250219345093,0.09817499667406082
1750559008207213600,1.677213623046875,0.05238749831914902,0.32862499356269836,0.11893749982118607
1750559008216817700,1.686817626953125,0.049912501126527786,0.45086249709129333,0.1251250058412552
1750559008226421500,1.69642138671875,0.025437500327825546,0.49114999175071716,0.12636250257492065
1750559008236025600,1.706025634765625,0.004674999974668026,0.44591251015663147,0.11288750171661377
1750559008245629700,1.715629638671875,-0.01966249942779541,0.31404998898506165,0.07369999587535858
1750559008255233500,1.725233642578125,-0.06366249918937683,0.1368124932050705,0.0028874999843537807
1750559008264837400,1.73483740234375,-0.12966249883174896,-0.035337500274181366,-0.07163749635219574
1750559008274441500,1.74444140625,-0.18095000088214874,-0.1625249981880188,-0.12044999748468399
1750559008284045600,1.754045654296875,-0.17613749206066132,-0.21738749742507935,-0.11687500029802322
1750559008293649200,1.763649169921875,-0.13695000112056732,-0.22110000252723694,-0.07411249727010727
1750559008303253200,1.773253173828125,-0.09913749992847443,-0.15028749406337738,-0.021587500348687172
1750559008312857300,1.782857421875,-0.07961250096559525,-0.045237500220537186,0.02488750033080578
1750559008322461200,1.792461181640625,-0.0648999959230423,0.04647500067949295,0.05664999783039093
1750559008332065300,1.802065185546875,-0.050324998795986176,0.09404999762773514,0.07136250287294388
1750559008341669400,1.81166943359375,-0.03932499885559082,0.07204999774694443,0.06517499685287476
1750559008351273200,1.821273193359375,-0.025849999859929085,0.002474999986588955,0.045649997889995575
1750559008360877300,1.830877197265625,-0.002612499985843897,-0.07809999585151672,0.021175000816583633
1750559008370481000,1.84048095703125,0.02186249941587448,-0.14162500202655792,0.0016499999910593033
1750559008380085000,1.8500849609375,0.0364375002682209,-0.17957499623298645,-0.009349999949336052
1750559008389689000,1.859689208984375,0.04386249929666519,-0.16005000472068787,-0.021587500348687172
1750559008399293000,1.86929296875,0.05115000158548355,-0.11110000312328339,-0.03739999979734421
1750559008408897000,1.87889697265625,0.05238749831914902,-0.07204999774694443,-0.04235000163316727
1750559008418500900,1.8885009765625,0.062150001525878906,-0.045237500220537186,-0.0411125011742115
1750559008428105000,1.89810498046875,0.07919999957084656,-0.03657500073313713,-0.03258749842643738
1750559008437709000,1.907708984375,0.09391249716281891,-0.042762499302625656,-0.025162499397993088
1750559008447313000,1.91731298828125,0.08043749630451202,-0.05623750016093254,-0.021587500348687172
1750559008456916700,1.926916748046875,0.040150001645088196,-0.07328750193119049,-0.017875000834465027
1750559008466520800,1.936520751953125,-0.0038499999791383743,-0.07933750003576279,-0.021587500348687172
1750559008476124700,1.946124755859375,-0.03684999793767929,-0.07576250284910202,-0.021587500348687172
1750559008485728500,1.955728515625,-0.050324998795986176,-0.05623750016093254,-0.0031624999828636646
1750559008495332600,1.96533251953125,-0.038087498396635056,-0.02447500079870224,0.018837500363588333
1750559008504936400,1.9749365234375,-0.02461249940097332,-0.0035749999806284904,0.038362499326467514
1750559008514540500,1.98454052734375,-0.016087500378489494,-0.002474999986588955,0.04441250115633011
1750559008524144600,1.99414453125,-0.006324999965727329,-0.0035749999806284904,0.03464999794960022
1750559008533748200,2.003748291015625,-0.0038499999791383743,-0.023237500339746475,0.02241249941289425
1750559008543352600,2.0133525390625,-0.005087499972432852,-0.054999999701976776,0.013887500390410423
1750559008552956400,2.022956298828125,-0.006324999965727329,-0.08910000324249268,0.013887500390410423
1750559008562560300,2.032560302734375,-0.006324999965727329,-0.10876250267028809,0.018837500363588333
1750559008572164400,2.042164306640625,0.0010999999940395355,-0.11233749985694885,0.023649999871850014
1750559008581768200,2.051768310546875,0.007149999961256981,-0.0989999994635582,0.021175000816583633
1750559008591372300,2.061372314453125,0.009624999947845936,-0.07081250101327896,0.011412499472498894
1750559008600976100,2.07097607421875,0.010862499475479126,-0.0317624993622303,0.005362499970942736
1750559008610580200,2.080580322265625,0.01691249944269657,0.0012374999932944775,0.004124999977648258
1750559008620184000,2.09018408203125,0.020624998956918716,0.010999999940395355,0.0028874999843537807
1750559008629788200,2.0997880859375,0.025437500327825546,0,0.0028874999843537807
1750559008639392300,2.109392333984375,0.03162499889731407,-0.0170499999076128,-0.004399999976158142
1750559008648996000,2.11899609375,0.040150001645088196,-0.02447500079870224,-0.026399999856948853
1750559008658600000,2.128599853515625,0.04496249929070473,-0.02681249938905239,-0.04963750019669533
1750559008668204000,2.1382041015625,0.049912501126527786,-0.014574999921023846,-0.07535000145435333
1750559008677808000,2.14780810546875,0.05362499877810478,-0.0085249999538064,-0.08992499858140945
1750559008687412000,2.157411865234375,0.05472499877214432,-0.014574999921023846,-0.09611249715089798
1750559008697016000,2.16701611328125,0.05115000158548355,-0.018287500366568565,-0.09611249715089798
1750559008706619600,2.17661962890625,0.04386249929666519,-0.0317624993622303,-0.09239999949932098
1750559008716223700,2.1862236328125,0.03891250118613243,-0.03904999792575836,-0.08016250282526016
1750559008725827800,2.195827880859375,0.03891250118613243,-0.045237500220537186,-0.06187500059604645
1750559008735431700,2.205431640625,0.03519999980926514,-0.03423750028014183,-0.05087500065565109
1750559008745035800,2.215035888671875,0.025437500327825546,-0.0035749999806284904,-0.05087500065565109
1750559008754639600,2.2246396484375,0.014437500387430191,0.028187500312924385,-0.04839999973773956
1750559008764243700,2.23424365234375,-0.00013749999925494194,0.03423750028014183,-0.03863750025629997
1750559008773847800,2.243847900390625,-0.006324999965727329,0.02199999988079071,-0.03616249933838844
1750559008783451600,2.25345166015625,-0.00013749999925494194,-0.006049999967217445,-0.04468749836087227
1750559008793055700,2.2630556640625,0.018149999901652336,-0.01952499896287918,-0.05692499876022339
1750559008802659600,2.27265966796875,0.03396249935030937,-0.02681249938905239,-0.06187500059604645
1750559008812263400,2.282263427734375,0.03891250118613243,-0.02199999988079071,-0.05816249921917915
1750559008821867500,2.291867431640625,0.027912499383091927,-0.0085249999538064,-0.04358749836683273
1750559008831471400,2.301471435546875,0.004674999974668026,0.015949999913573265,-0.027637500315904617
1750559008841075500,2.311075439453125,-0.007562499959021807,0.03671250119805336,-0.009349999949336052
1750559008850679300,2.32067919921875,-0.01484999991953373,0.05376249924302101,0.0004124999977648258
1750559008860283400,2.330283447265625,-0.018562499433755875,0.07328750193119049,0.007837500423192978
1750559008869887200,2.33988720703125,-0.01732499897480011,0.09652499854564667,0.016362499445676804
1750559008879491300,2.3494912109375,-0.0038499999791383743,0.11728750169277191,0.01993750035762787
1750559008889095400,2.359095458984375,0.020624998956918716,0.11247500032186508,0.016362499445676804
1750559008898699000,2.368698974609375,0.04386249929666519,0.06228749826550484,0.0016499999910593033
1750559008908303000,2.37830322265625,0.05115000158548355,0.0037124999798834324,-0.03368749842047691
1750559008917907200,2.3879072265625,0.04619999974966049,-0.045237500220537186,-0.08016250282526016
1750559008927511000,2.397510986328125,0.03162499889731407,-0.07452499866485596,-0.11192499846220016
1750559008937115100,2.407115234375,0.02419999986886978,-0.07576250284910202,-0.11921250075101852
1750559008946719000,2.416718994140625,0.02186249941587448,-0.05128749832510948,-0.10216250270605087
1750559008956323000,2.426322998046875,0.022962499409914017,-0.0170499999076128,-0.06544999778270721
1750559008965927000,2.435927001953125,0.027912499383091927,0.0085249999538064,-0.011824999935925007
1750559008975530800,2.44553076171875,0.03162499889731407,0.023237500339746475,0.035887498408555984
1750559008985134800,2.455134765625,0.025437500327825546,0.0317624993622303,0.04936249926686287
1750559008994738700,2.46473876953125,0.014437500387430191,0.02928750030696392,0.038362499326467514
1750559009004342800,2.4743427734375,-0.002612499985843897,0.01223750039935112,0.018837500363588333
1750559009013947000,2.48394677734375,-0.011137500405311584,-0.007287499960511923,0.004124999977648258
1750559009023550700,2.49355078125,-0.007562499959021807,-0.02928750030696392,0.006599999964237213
1750559009033154800,2.50315478515625,-0.0038499999791383743,-0.04399999976158142,0.016362499445676804
1750559009042758700,2.512758544921875,-0.006324999965727329,-0.04152499884366989,0.011412499472498894
1750559009052362800,2.52236279296875,-0.018562499433755875,-0.020762499421834946,-0.010587500408291817
1750559009061966600,2.531966552734375,-0.03189999982714653,0.007287499960511923,-0.03258749842643738
1750559009071570400,2.5415703125,-0.035612501204013824,0.023237500339746475,-0.03987500071525574
1750559009081174500,2.551174560546875,-0.030662499368190765,0.035475000739097595,-0.030112499371170998
1750559009090778400,2.5607783203125,-0.018562499433755875,0.032999999821186066,-0.0031624999828636646
1750559009100382500,2.570382568359375,-0.007562499959021807,0.020762499421834946,0.018837500363588333
1750559009109986600,2.579986572265625,-0.008799999952316284,0.0085249999538064,0.023649999871850014
1750559009119590400,2.58959033203125,-0.007562499959021807,-0.0085249999538064,0.016362499445676804
1750559009129194500,2.599194580078125,-0.006324999965727329,-0.028049999848008156,0.006599999964237213
1750559009138798300,2.60879833984375,-0.007562499959021807,-0.035337500274181366,-0.0031624999828636646
1750559009148402200,2.618402099609375,-0.00013749999925494194,-0.02928750030696392,-0.015399999916553497
1750559009158006500,2.628006591796875,0.009624999947845936,-0.023237500339746475,-0.023924998939037323
1750559009167610400,2.6376103515625,0.01691249944269657,-0.0085249999538064,-0.03492499887943268
1750559009177214200,2.647214111328125,0.02419999986886978,0.01223750039935112,-0.0471624992787838
1750559009186818300,2.656818359375,0.02667500078678131,0.01952499896287918,-0.0471624992787838
1750559009196422100,2.666422119140625,0.027912499383091927,0.01347499992698431,-0.025162499397993088
1750559009206026000,2.67602587890625,0.02914999984204769,-0.0035749999806284904,0.006599999964237213
1750559009215630000,2.685630126953125,0.02419999986886978,-0.02681249938905239,0.040837500244379044
1750559009225234200,2.695234130859375,0.013199999928474426,-0.045237500220537186,0.060362499207258224
1750559009234838000,2.704838134765625,0.004674999974668026,-0.05623750016093254,0.06641250103712082
1750559009244442000,2.714442138671875,-0.005087499972432852,-0.06104999780654907,0.060362499207258224
1750559009254046000,2.7240458984375,-0.007562499959021807,-0.057337500154972076,0.04193750023841858
1750559009263649800,2.73364990234375,0.0010999999940395355,-0.03657500073313713,0.021175000816583633
1750559009273254000,2.74325390625,0.01209999993443489,-0.020762499421834946,0.011412499472498894
1750559009282857700,2.752857666015625,0.010862499475479126,0.0147124994546175,0.0028874999843537807
1750559009292461800,2.7624619140625,-0.0038499999791383743,0.028187500312924385,0.006599999964237213
1750559009302066000,2.77206591796875,-0.018562499433755875,0.030524998903274536,0.011412499472498894
1750559009311669800,2.781669677734375,-0.02213750034570694,0.01347499992698431,0.018837500363588333
1750559009321273900,2.79127392578125,-0.01732499897480011,-0.0085249999538064,0.01759999990463257
1750559009330877700,2.800877685546875,-0.00989999994635582,-0.0012374999932944775,-0.0019249999895691872
1750559009340481800,2.810481689453125,-0.0038499999791383743,0.00494999997317791,-0.021587500348687172
1750559009350085600,2.820085693359375,-0.0013749999925494194,0.006187499966472387,-0.03258749842643738
1750559009359689700,2.829689697265625,-0.00013749999925494194,0.0085249999538064,-0.03368749842047691
1750559009369293600,2.83929345703125,0.0010999999940395355,0.006187499966472387,-0.019112499430775642
1750559009378897700,2.848897705078125,0.008387500420212746,0.01718750037252903,-0.0008249999955296516
1750559009388501500,2.85850146484375,0.014437500387430191,0.035475000739097595,0.005362499970942736
1750559009398105600,2.868105712890625,0.0193875003606081,0.02694999985396862,0.005362499970942736
1750559009407709400,2.87770947265625,0.02186249941587448,-0.01223750039935112,-0.008112499490380287
1750559009417313500,2.8873134765625,0.02186249941587448,-0.05376249924302101,-0.03258749842643738
1750559009426917400,2.89691748046875,0.0193875003606081,-0.07576250284910202,-0.05335000157356262
1750559009436521200,2.906521240234375,0.018149999901652336,-0.07699999958276749,-0.05335000157356262
1750559009446125600,2.91612548828125,0.02419999986886978,-0.05857500061392784,-0.04358749836683273
1750559009455729400,2.9257294921875,0.03396249935030937,-0.035337500274181366,-0.028875000774860382
1750559009465333200,2.935333251953125,0.03891250118613243,-0.0035749999806284904,-0.026399999856948853
1750559009474937300,2.944937255859375,0.040150001645088196,0.01718750037252903,-0.027637500315904617
1750559009484541200,2.954541259765625,0.04138749837875366,0.0147124994546175,-0.028875000774860382
1750559009494145300,2.964145263671875,0.04386249929666519,0.02199999988079071,-0.026399999856948853
1750559009503749400,2.973749267578125,0.04138749837875366,0.023237500339746475,-0.015399999916553497
1750559009513353000,2.98335302734375,0.02667500078678131,0.01718750037252903,0.006599999964237213
1750559009522957000,2.99295703125,0.008387500420212746,0.03423750028014183,0.021175000816583633
1750559009532561400,3.0025615234375,-0.006324999965727329,0.06476250290870667,0.028599999845027924
1750559009542165000,3.0121650390625,-0.011137500405311584,0.07452499866485596,0.023649999871850014
1750559009551769000,3.02176904296875,-0.002612499985843897,0.06971249729394913,0.005362499970942736
1750559009561373200,3.031373291015625,0.014437500387430191,0.05252499878406525,-0.017875000834465027
1750559009570977000,3.04097705078125,0.03519999980926514,0.028187500312924385,-0.03739999979734421
1750559009580580900,3.050580810546875,0.04743750020861626,0.0085249999538064,-0.04839999973773956
1750559009590185000,3.06018505859375,0.05115000158548355,0.00494999997317791,-0.05335000157356262
1750559009599789000,3.0697890625,0.04743750020861626,0.007287499960511923,-0.05335000157356262
1750559009609393000,3.079392822265625,0.04743750020861626,0.006187499966472387,-0.05087500065565109
1750559009618997000,3.0889970703125,0.049912501126527786,-0.015812499448657036,-0.04839999973773956
1750559009628600800,3.098600830078125,0.04867500066757202,-0.037812501192092896,-0.04592499881982803
1750559009638204700,3.10820458984375,0.04262499883770943,-0.05128749832510948,-0.04235000163316727
1750559009647808800,3.117808837890625,0.02667500078678131,-0.05623750016093254,-0.03135000169277191
1750559009657412900,3.127412841796875,0.008387500420212746,-0.03904999792575836,-0.011824999935925007
1750559009667016700,3.1370166015625,-0.0013749999925494194,-0.00976249948143959,0.01993750035762787
1750559009676620800,3.146620849609375,-0.00013749999925494194,0.023237500339746475,0.03959999978542328
1750559009686224600,3.156224609375,0.002199999988079071,0.035475000739097595,0.04193750023841858
1750559009695828700,3.165828857421875,0.0034374999813735485,0.018287500366568565,0.02736249938607216
1750559009705432300,3.175432373046875,0.005912499967962503,-0.004812499973922968,0.007837500423192978
1750559009715036400,3.185036376953125,0.005912499967962503,-0.03904999792575836,-0.008112499490380287
1750559009724640500,3.194640625,0.0010999999940395355,-0.054999999701976776,-0.014162499457597733
1750559009734244400,3.204244384765625,-0.008799999952316284,-0.03657500073313713,-0.009349999949336052
1750559009743848200,3.21384814453125,-0.02461249940097332,0.025712499395012856,0.0016499999910593033
1750559009753452300,3.223452392578125,-0.035612501204013824,0.10147500038146973,0.004124999977648258
1750559009763056400,3.233056396484375,-0.040562499314546585,0.15399999916553497,0.005362499970942736
1750559009772660200,3.24266015625,-0.04908749833703041,0.1722874939441681,0.005362499970942736
1750559009782264300,3.252264404296875,-0.0648999959230423,0.1527625024318695,0.004124999977648258
1750559009791868200,3.2618681640625,-0.05884999781847,0.10876250267028809,0.004124999977648258
1750559009801472000,3.271471923828125,-0.03684999793767929,0.05871250107884407,0.012649999931454659
1750559009811076000,3.281076171875,-0.006324999965727329,0.00976249948143959,0.010174999944865704
1750559009820680000,3.290679931640625,0.014437500387430191,-0.01347499992698431,-0.0031624999828636646
1750559009830284000,3.300283935546875,0.01691249944269657,-0.0317624993622303,-0.012924999929964542
1750559009839888100,3.30988818359375,0.007149999961256981,-0.03657500073313713,-0.017875000834465027
1750559009849492000,3.319491943359375,-0.008799999952316284,-0.018287500366568565,-0.009349999949336052
1750559009859096000,3.329095947265625,-0.023375000804662704,0.02447500079870224,0.005362499970942736
1750559009868700000,3.338699951171875,-0.01732499897480011,0.06228749826550484,0.023649999871850014
1750559009878304000,3.348303955078125,0.007149999961256981,0.07095000147819519,0.04688749834895134
1750559009887907800,3.357907958984375,0.03519999980926514,0.05004999786615372,0.050599999725818634
1750559009897512000,3.367511962890625,0.05843750014901161,-0.0035749999806284904,0.03712499886751175
1750559009907115800,3.37711572265625,0.0681999996304512,-0.07081250101327896,0.009074999950826168
1750559009916719600,3.3867197265625,0.06462500244379044,-0.11728750169277191,-0.026399999856948853
1750559009926323700,3.39632373046875,0.049912501126527786,-0.12581250071525574,-0.04963750019669533
1750559009935927600,3.405927490234375,0.03162499889731407,-0.09776250272989273,-0.05816249921917915
1750559009945531600,3.41553173828125,0.020624998956918716,-0.06833750009536743,-0.05087500065565109
1750559009955135700,3.4251357421875,0.020624998956918716,-0.04028749838471413,-0.027637500315904617
1750559009964739600,3.434739501953125,0.03162499889731407,-0.01347499992698431,-0.010587500408291817
1750559009974343700,3.44434375,0.04619999974966049,0,0.0016499999910593033
1750559009983947500,3.453947509765625,0.05115000158548355,0.0012374999932944775,0.007837500423192978
1750559009993551400,3.46355126953125,0.04138749837875366,0.00976249948143959,0.005362499970942736
1750559010003155500,3.473155517578125,0.018149999901652336,0.03671250119805336,0.004124999977648258
1750559010012759300,3.48275927734375,-0.002612499985843897,0.05871250107884407,0.013887500390410423
1750559010022363400,3.49236328125,-0.01484999991953373,0.05871250107884407,0.02488750033080578
1750559010031967500,3.501967529296875,-0.018562499433755875,0.059950001537799835,0.021175000816583633
1750559010041571300,3.5115712890625,-0.01484999991953373,0.02447500079870224,0.015124999918043613
1750559010051175200,3.521175048828125,0.007149999961256981,-0.0085249999538064,0.010174999944865704
1750559010060779300,3.530779296875,0.030387500301003456,-0.02928750030696392,0.005362499970942736
1750559010070383400,3.54038330078125,0.04386249929666519,-0.03423750028014183,0.0016499999910593033
1750559010079987200,3.5499873046875,0.04867500066757202,-0.03904999792575836,-0.0019249999895691872
1750559010089591300,3.55959130859375,0.04743750020861626,-0.047575000673532486,-0.004399999976158142
1750559010099195100,3.569195068359375,0.037675000727176666,-0.05252499878406525,-0.008112499490380287
1750559010108799200,3.57879931640625,0.03396249935030937,-0.0635249987244606,-0.012924999929964542
1750559010118403300,3.5884033203125,0.030387500301003456,-0.06476250290870667,-0.010587500408291817
1750559010128007200,3.598007080078125,0.02419999986886978,-0.04633750021457672,-0.008112499490380287
1750559010137611000,3.607611083984375,0.018149999901652336,0.0012374999932944775,0.0028874999843537807
1750559010147215000,3.617215087890625,0.014437500387430191,0.06104999780654907,0.01759999990463257
1750559010156819000,3.62681884765625,0.01691249944269657,0.09171249717473984,0.03341250121593475
1750559010166423000,3.636423095703125,0.013199999928474426,0.08181250095367432,0.03464999794960022
1750559010176027000,3.64602685546875,0.005912499967962503,0.04028749838471413,0.01993750035762787
1750559010185631000,3.655630859375,-0.00013749999925494194,-0.01952499896287918,-0.0031624999828636646
1750559010195234800,3.66523486328125,0.0010999999940395355,-0.06599999964237213,-0.020349999889731407
1750559010204838700,3.674838623046875,0.0034374999813735485,-0.06599999964237213,-0.023924998939037323
1750559010214443000,3.684443115234375,0.0010999999940395355,-0.028049999848008156,-0.016637500375509262
1750559010224046800,3.694046875,-0.005087499972432852,0.0147124994546175,0.0004124999977648258
1750559010233650700,3.703650634765625,-0.007562499959021807,0.04895000159740448,0.010174999944865704
1750559010243254800,3.7132548828125,-0.007562499959021807,0.047712501138448715,0.009074999950826168
1750559010252859000,3.72285888671875,-0.0013749999925494194,0.02694999985396862,-0.0056374999694526196
1750559010262462700,3.732462646484375,0.005912499967962503,0.01718750037252903,-0.030112499371170998
1750559010272066800,3.74206689453125,0.010862499475479126,0.015949999913573265,-0.04235000163316727
1750559010281670700,3.751670654296875,0.014437500387430191,0.0037124999798834324,-0.03987500071525574
1750559010291274800,3.761274658203125,0.01691249944269657,-0.01952499896287918,-0.03135000169277191
1750559010300878600,3.770878662109375,0.013199999928474426,-0.054999999701976776,-0.023924998939037323
1750559010310482400,3.780482421875,0.005912499967962503,-0.08799999952316284,-0.027637500315904617
1750559010320086500,3.79008642578125,0.004674999974668026,-0.10257499665021896,-0.030112499371170998
1750559010329690600,3.799690673828125,0.0034374999813735485,-0.07933750003576279,-0.025162499397993088
1750559010339294500,3.80929443359375,0.002199999988079071,-0.0317624993622303,-0.010587500408291817
1750559010348898600,3.818898681640625,-0.006324999965727329,0.025712499395012856,0.012649999931454659
1750559010358502400,3.82850244140625,-0.020899999886751175,0.07699999958276749,0.03217500075697899
1750559010368106500,3.8381064453125,-0.03437500074505806,0.08552499860525131,0.040837500244379044
1750559010377710600,3.847710693359375,-0.04166249930858612,0.0635249987244606,0.023649999871850014
1750559010387314400,3.857314453125,-0.03932499885559082,0.035475000739097595,-0.008112499490380287
1750559010396918500,3.86691845703125,-0.025849999859929085,0.020762499421834946,-0.03368749842047691
1750559010406522000,3.876522216796875,-0.00989999994635582,0.0012374999932944775,-0.04358749836683273
1750559010416126200,3.886126220703125,0.002199999988079071,-0.01223750039935112,-0.03739999979734421
1750559010425730300,3.895730224609375,0.009624999947845936,-0.01952499896287918,-0.03258749842643738
1750559010435334100,3.905334228515625,0.007149999961256981,-0.035337500274181366,-0.03368749842047691
1750559010444938200,3.914938232421875,0.005912499967962503,-0.04399999976158142,-0.03863750025629997
1750559010454542000,3.9245419921875,0.004674999974668026,-0.0317624993622303,-0.05087500065565109
1750559010464146200,3.934146240234375,0.002199999988079071,-0.010999999940395355,-0.05444999784231186
1750559010473750000,3.94375,-0.00013749999925494194,0.006187499966472387,-0.04468749836087227
1750559010483354000,3.95335400390625,-0.007562499959021807,0.006187499966472387,-0.027637500315904617
1750559010492958200,3.962958251953125,-0.02213750034570694,0,-0.0019249999895691872
1750559010502562000,3.97256201171875,-0.035612501204013824,0.006187499966472387,0.026124998927116394
1750559010512166000,3.982165771484375,-0.04166249930858612,0.045237500220537186,0.057887498289346695
1750559010521770000,3.99177001953125,-0.040562499314546585,0.09171249717473984,0.08470000326633453
1750559010531373800,4.001373779296875,-0.030662499368190765,0.1050499975681305,0.09569999575614929
1750559010540978200,4.010978271484375,-0.02213750034570694,0.08304999768733978,0.07741250097751617
1750559010550582000,4.02058203125,-0.012374999932944775,0.020762499421834946,0.038362499326467514
1750559010560185900,4.030185791015625,0.004674999974668026,-0.04028749838471413,-0.009349999949336052
1750559010569789700,4.039789794921875,0.018149999901652336,-0.08428750187158585,-0.04963750019669533
1750559010579393800,4.049393798828125,0.030387500301003456,-0.10876250267028809,-0.06668750196695328
1750559010588998000,4.058997802734375,0.037675000727176666,-0.10381250083446503,-0.05939999967813492
1750559010598601700,4.068601806640625,0.037675000727176666,-0.06228749826550484,-0.0411125011742115
1750559010608205800,4.078205810546875,0.03519999980926514,-0.02447500079870224,-0.020349999889731407
1750559010617810000,4.087809814453125,0.027912499383091927,-0.006049999967217445,-0.0019249999895691872
1750559010627413800,4.097413818359375,0.022962499409914017,-0.018287500366568565,0.006599999964237213
1750559010637017600,4.107017578125,0.025437500327825546,-0.035337500274181366,0.0016499999910593033
1750559010646621400,4.116621337890625,0.030387500301003456,-0.032999999821186066,-0.011824999935925007
1750559010656225500,4.1262255859375,0.03396249935030937,-0.018287500366568565,-0.023924998939037323
1750559010665829600,4.13582958984375,0.03396249935030937,0.00976249948143959,-0.023924998939037323
1750559010675433500,4.14543359375,0.032862499356269836,0.03918749839067459,-0.019112499430775642
1750559010685037600,4.15503759765625,0.025437500327825546,0.030524998903274536,-0.020349999889731407
1750559010694641400,4.164641357421875,0.010862499475479126,-0.006049999967217445,-0.03258749842643738
1750559010704245500,4.17424560546875,-0.005087499972432852,-0.04881250113248825,-0.0471624992787838
1750559010713849600,4.183849609375,-0.012374999932944775,-0.07204999774694443,-0.04839999973773956
1750559010723453400,4.193453369140625,-0.016087500378489494,-0.057337500154972076,-0.022687500342726707
1750559010733057300,4.203057373046875,-0.00989999994635582,-0.0170499999076128,0.01759999990463257
1750559010742661600,4.21266162109375,-0.00013749999925494194,0.04152499884366989,0.0541750006377697
1750559010752265200,4.22226513671875,0.008387500420212746,0.08552499860525131,0.07259999960660934
1750559010761869300,4.231869384765625,0.010862499475479126,0.06971249729394913,0.06159999966621399
1750559010771473200,4.24147314453125,0.009624999947845936,0.00976249948143959,0.010174999944865704
1750559010781077200,4.2510771484375,0.009624999947845936,-0.06228749826550484,-0.05335000157356262
1750559010790681300,4.260681396484375,0.010862499475479126,-0.1013374999165535,-0.09844999760389328
1750559010800285200,4.27028515625,0.009624999947845936,-0.09281250089406967,-0.10821250081062317
1750559010809889300,4.27988916015625,-0.0013749999925494194,-0.03904999792575836,-0.08139999955892563
1750559010819493000,4.2894931640625,-0.012374999932944775,0.01952499896287918,-0.0411125011742115
1750559010829097200,4.29909716796875,-0.011137500405311584,0.06228749826550484,-0.011824999935925007
1750559010838701000,4.308701171875,-0.0013749999925494194,0.05623750016093254,-0.0019249999895691872
1750559010848305200,4.31830517578125,0.010862499475479126,0.02447500079870224,-0.019112499430775642
1750559010857909000,4.327908935546875,0.03162499889731407,-0.03423750028014183,-0.06544999778270721
1750559010867513000,4.33751318359375,0.05472499877214432,-0.1013374999165535,-0.13516250252723694
1750559010877117000,4.347116943359375,0.07315000146627426,-0.16128750145435333,-0.20239999890327454
1750559010886721000,4.356720947265625,0.07438749819993973,-0.19786250591278076,-0.2572624981403351
1750559010896324900,4.366324951171875,0.07315000146627426,-0.24186250567436218,-0.3147374987602234
1750559010905929000,4.375928955078125,0.06338749825954437,-0.2858625054359436,-0.3880249857902527
1750559010915532800,4.38553271484375,0.05472499877214432,-0.25657498836517334,-0.46626248955726624
1750559010925137000,4.395136962890625,0.05238749831914902,-0.1905750036239624,-0.5102624893188477
1750559010934740700,4.40474072265625,0.05472499877214432,-0.03904999792575836,-0.5505499839782715
1750559010944344600,4.414344482421875,0.05596249923110008,0.13928750157356262,-0.5895999670028687
1750559010953948700,4.42394873046875,0.037675000727176666,0.2773374915122986,-0.6396499872207642
1750559010963552800,4.433552734375,-0.02461249940097332,0.4398624897003174,-0.7459374666213989
1750559010973156600,4.443156494140625,-0.12361250072717667,0.6157249808311462,-0.9048874974250793
1750559010982760700,4.4527607421875,-0.13089999556541443,0.8369625210762024,-1.0599875450134277
1750559010992364800,4.46236474609375,-0.03932499885559082,0.8918250203132629,-1.0184625387191772
1750559011001968600,4.47196875,0.09019999951124191,0.8784874677658081,-0.7240750193595886
1750559011011572700,4.48157275390625,0.19648750126361847,0.6804875135421753,0.057887498289346695
1750559011021176600,4.491176513671875,0.3137750029563904,0.3788124918937683,1.3810499906539917
1750559011030780700,4.50078076171875,0.4164874851703644,0.5644375085830688,2.9203624725341797
1750559011040384500,4.510384521484375,0.3834874927997589,0.9383000135421753,4.393674850463867
1750559011049988600,4.519988525390625,0.26001250743865967,1.3879250288009644,5.479787349700928
1750559011059592700,4.5295927734375,0.19043749570846558,1.6017374992370605,6.239749908447266
1750559011069196500,4.539196533203125,0.25148749351501465,1.280400037765503,6.773662567138672
1750559011078800600,4.548800537109375,0.44206249713897705,0.8442500233650208,6.888474941253662
1750559011088404500,4.558404541015625,0.6033499836921692,0.18081249296665192,6.828662395477295
1750559011098008300,4.56800830078125,0.5935875177383423,-0.7892500162124634,6.728425025939941
1750559011107612400,4.5776123046875,0.5031124949455261,-1.6003625392913818,6.4413251876831055
1750559011117216300,4.58721630859375,0.4152500033378601,-2.2332749366760254,6.028412342071533
1750559011126820400,4.5968203125,0.4175874888896942,-2.4495625495910645,5.554312705993652
1750559011136424200,4.606424072265625,0.5055875182151794,-2.147749900817871,4.997300148010254
1750559011146028300,4.6160283203125,0.5458750128746033,-1.7018375396728516,4.317912578582764
1750559011155632400,4.62563232421875,0.5568749904632568,-1.3524500131607056,3.5629000663757324
1750559011165236000,4.635236083984375,0.516587495803833,-1.1704000234603882,2.8043124675750732
1750559011174840300,4.64484033203125,0.4763000011444092,-1.04458749294281,2.038300037384033
1750559011184444200,4.654444091796875,0.43353748321533203,-1.0030624866485596,1.2648625373840332
1750559011194048000,4.664048095703125,0.3932499885559082,-0.9602999687194824,0.4487999975681305
1750559011203652000,4.673652099609375,0.36272498965263367,-0.888112485408783,-0.342787504196167
1750559011213256000,4.683255859375,0.3357749879360199,-0.8222500085830688,-1.0012749433517456
1750559011222860000,4.692860107421875,0.322299987077713,-0.695062518119812,-1.4961374998092651
1750559011232464000,4.7024638671875,0.3100624978542328,-0.5033875107765198,-1.8748124837875366
1750559011242068000,4.71206787109375,0.2782999873161316,-0.3188624978065491,-2.2181499004364014
1750559011251672000,4.721672119140625,0.21972499787807465,-0.22357499599456787,-2.5882999897003174
1750559011261276000,4.73127587890625,0.12072499841451645,-0.18809999525547028,-3.004925012588501
1750559011270880000,4.7408798828125,-0.012374999932944775,-0.12209999561309814,-3.4472625255584717
1750559011280484000,4.750484130859375,-0.1381874978542328,0.045237500220537186,-3.849174976348877
1750559011290088000,4.760087890625,-0.20913749933242798,0.4423374831676483,-4.149749755859375
1750559011299691800,4.76969189453125,-0.1956624984741211,0.8430125117301941,-4.238850116729736
1750559011309295900,4.7792958984375,-0.1541374921798706,0.8967750072479248,-4.141087532043457
1750559011318899700,4.788899658203125,-0.17366249859333038,0.7012500166893005,-4.039750099182129
1750559011328503800,4.79850390625,-0.25671249628067017,0.5411999821662903,-4.083749771118164
1750559011338107600,4.808107666015625,-0.3667125105857849,0.4446749985218048,-4.336612701416016
1750559011347711700,4.817711669921875,-0.4680500030517578,0.39957499504089355,-4.742237567901611
1750559011357315800,4.82731591796875,-0.31171250343322754,0.6169624924659729,-5.175912380218506
1750559011366919700,4.836919677734375,-0.011137500405311584,0.6451500058174133,-5.090387344360352
1750559011376523800,4.846523681640625,0.09748750180006027,0.31033748388290405,-4.370850086212158
1750559011386127600,4.856127685546875,0.1891999989748001,0.11604999750852585,-3.358025074005127
1750559011395731700,4.865731689453125,0.2782999873161316,0.12952500581741333,-2.2071499824523926
1750559011405335600,4.87533544921875,0.234437495470047,0.29438748955726624,-1.2445124387741089
1750559011414939400,4.884939453125,0.1256749927997589,0.708674967288971,-0.6886000037193298
1750559011424543700,4.894543701171875,-0.00989999994635582,1.1631125211715698,-0.46254998445510864
1750559011434147600,4.904147705078125,-0.11990000307559967,1.3573999404907227,-0.4797374904155731
1750559011443751400,4.91375146484375,-0.16637499630451202,1.3707374334335327,-0.7203624844551086
1750559011453355300,4.923355224609375,-0.17971250414848328,1.3048750162124634,-0.9451749920845032
1750559011462959400,4.93295947265625,-0.11137499660253525,1.0078749656677246,-0.8644624948501587
1750559011472563500,4.9425634765625,0.01691249944269657,0.5522000193595886,-0.5273125171661377
1750559011482167300,4.952167236328125,0.07562500238418579,0.12099999934434891,-0.13516250252723694
1750559011491771400,4.961771484375,0.025437500327825546,-0.12581250071525574,0.13488750159740448
1750559011501375500,4.97137548828125,-0.0966624990105629,-0.18328750133514404,0.2569875121116638
1750559011510979000,4.98097900390625,-0.20061250030994415,-0.12209999561309814,0.32298749685287476
1750559011520583200,4.990583251953125,-0.21889999508857727,0.01347499992698431,0.3852750062942505
1750559011530187300,5.000187255859375,-0.16871249675750732,0.1979999989271164,0.4195125102996826
1750559011539791400,5.009791259765625,-0.09418749809265137,0.2895750105381012,0.41456249356269836
1750559011549395500,5.0193955078125,-0.023375000804662704,0.26633748412132263,0.3620375096797943
1750559011558999000,5.0289990234375,0.02419999986886978,0.13323749601840973,0.26551249623298645
1750559011568603100,5.03860302734375,0.05472499877214432,-0.13928750157356262,0.16788749396800995
1750559011578207000,5.04820703125,0.06572499871253967,-0.40191251039505005,0.09569999575614929
1750559011587811000,5.05781103515625,0.062150001525878906,-0.5033875107765198,0.05664999783039093
1750559011597415200,5.067415283203125,0.06091250106692314,-0.44591251015663147,0.06888750195503235
1750559011607019000,5.07701904296875,0.05596249923110008,-0.2626250088214874,0.13488750159740448
1750559011616623000,5.086623046875,0.04743750020861626,-0.032999999821186066,0.23141250014305115
1750559011626227000,5.09622705078125,0.04138749837875366,0.13557499647140503,0.30346250534057617
1750559011635830800,5.105830810546875,0.032862499356269836,0.20528750121593475,0.31927499175071716
1750559011645435100,5.11543505859375,0.02667500078678131,0.20899999141693115,0.2777499854564667
1750559011655039000,5.1250390625,0.02186249941587448,0.14657500386238098,0.2227499932050705
1750559011664642800,5.134642822265625,0.013199999928474426,0.03423750028014183,0.17641249299049377
1750559011674247000,5.144246826171875,-0.01732499897480011,-0.08428750187158585,0.1494625061750412
1750559011683850800,5.153850830078125,-0.04413750022649765,-0.16362500190734863,0.1274625062942505
1750559011693454800,5.163454833984375,-0.07466249912977219,-0.1722874939441681,0.09336250275373459
1750559011703058700,5.17305859375,-0.10408750176429749,-0.12457499653100967,0.06393750011920929
1750559011712662800,5.182662841796875,-0.11618749797344208,-0.030524998903274536,0.04688749834895134
1750559011722267000,5.192266845703125,-0.11137499660253525,0.06847500056028366,0.04193750023841858
1750559011731870700,5.20187060546875,-0.08937499672174454,0.14904999732971191,0.05664999783039093
1750559011741474800,5.211474853515625,-0.06132499873638153,0.1905750036239624,0.08236250281333923
1750559011751078700,5.22107861328125,-0.040562499314546585,0.17957499623298645,0.09336250275373459
1750559011760682800,5.230682861328125,-0.023375000804662704,0.10271249711513519,0.0859375
1750559011770286600,5.24028662109375,-0.0038499999791383743,-0.030524998903274536,0.060362499207258224
1750559011779890400,5.249890380859375,0.02186249941587448,-0.18809999525547028,0.01993750035762787
1750559011789494500,5.25949462890625,0.04496249929070473,-0.26510000228881836,-0.025162499397993088
1750559011799098600,5.2690986328125,0.05843750014901161,-0.2480500042438507,-0.05816249921917915
1750559011808702500,5.278702392578125,0.0719124972820282,-0.15386250615119934,-0.07768750190734863
1750559011818306600,5.288306640625,0.08772499859333038,-0.028049999848008156,-0.08992499858140945
1750559011827910400,5.297910400390625,0.08896250277757645,0.057475000619888306,-0.07768750190734863
1750559011837514500,5.307514404296875,0.08772499859333038,0.09171249717473984,-0.05444999784231186
1750559011847118300,5.317118408203125,0.08291249722242355,0.07452499866485596,-0.03135000169277191
1750559011856722400,5.326722412109375,0.0681999996304512,0.02447500079870224,-0.016637500375509262
1750559011866326500,5.336326416015625,0.05115000158548355,-0.01952499896287918,-0.016637500375509262
1750559011875930400,5.345930419921875,0.03396249935030937,-0.05252499878406525,-0.025162499397993088
1750559011885534200,5.3555341796875,0.02419999986886978,-0.07933750003576279,-0.04963750019669533
1750559011895138300,5.36513818359375,0.02419999986886978,-0.07452499866485596,-0.08387500047683716
1750559011904742100,5.3747421875,0.025437500327825546,-0.042762499302625656,-0.11316250264644623
1750559011914346200,5.38434619140625,0.02667500078678131,0.0037124999798834324,-0.13392500579357147
1750559011923950000,5.3939501953125,0.020624998956918716,0.057475000619888306,-0.15097500383853912
1750559011933554200,5.40355419921875,0.014437500387430191,0.08799999952316284,-0.14863750338554382
1750559011943158300,5.413158203125,0.01209999993443489,0.07452499866485596,-0.12292499840259552
1750559011952762000,5.42276220703125,0.014437500387430191,0.05004999786615372,-0.08868750184774399
1750559011962366200,5.4323662109375,0.007149999961256981,0.03423750028014183,-0.04235000163316727
1750559011971970000,5.441969970703125,-0.01484999991953373,0.025712499395012856,0.006599999964237213
1750559011981574100,5.45157421875,-0.03932499885559082,0.04028749838471413,0.043175000697374344
1750559011991178200,5.46117822265625,-0.060087498277425766,0.07095000147819519,0.057887498289346695
1750559012000781800,5.47078173828125,-0.0648999959230423,0.10023749619722366,0.043175000697374344
1750559012010386000,5.480385986328125,-0.06132499873638153,0.09404999762773514,0.009074999950826168
1750559012019990000,5.489989990234375,-0.052662499248981476,0.07095000147819519,-0.03616249933838844
1750559012029593900,5.49959375,-0.035612501204013824,0.02199999988079071,-0.07163749635219574
1750559012039198000,5.509197998046875,-0.013612499460577965,-0.05252499878406525,-0.07644999772310257
1750559012048802000,5.518802001953125,0.002199999988079071,-0.08799999952316284,-0.07039999961853027
1750559012058406000,5.528406005859375,0.022962499409914017,-0.06599999964237213,-0.05816249921917915
1750559012068009700,5.538009765625,0.04138749837875366,-0.02928750030696392,-0.03616249933838844
1750559012077613800,5.54761376953125,0.05115000158548355,0.010999999940395355,-0.023924998939037323
1750559012087218000,5.557218017578125,0.06091250106692314,0.04399999976158142,-0.020349999889731407
1750559012096821800,5.56682177734375,0.06943749636411667,0.047712501138448715,-0.017875000834465027
1750559012106425900,5.57642578125,0.06572499871253967,0.02928750030696392,-0.021587500348687172
1750559012116029700,5.58602978515625,0.05362499877810478,0.0037124999798834324,-0.028875000774860382
1750559012125633500,5.595633544921875,0.025437500327825546,-0.01952499896287918,-0.030112499371170998
1750559012135237600,5.605237548828125,0.008387500420212746,-0.025575000792741776,-0.030112499371170998
1750559012144841700,5.614841796875,0.002199999988079071,-0.0085249999538064,-0.027637500315904617
1750559012154445600,5.624445556640625,-0.0013749999925494194,0.00494999997317791,-0.021587500348687172
1750559012164049700,5.634049560546875,-0.011137500405311584,0.01223750039935112,-0.015399999916553497
1750559012173653800,5.64365380859375,-0.01732499897480011,0.01223750039935112,-0.016637500375509262
1750559012183257600,5.653257568359375,-0.008799999952316284,0.007287499960511923,-0.028875000774860382
1750559012192861400,5.662861328125,0.005912499967962503,0.0037124999798834324,-0.04592499881982803
1750559012202465500,5.672465576171875,0.018149999901652336,0.00494999997317791,-0.05692499876022339
1750559012212069600,5.682069580078125,0.025437500327825546,0.01718750037252903,-0.05444999784231186
1750559012221673500,5.691673583984375,0.027912499383091927,0.02694999985396862,-0.030112499371170998
1750559012231277600,5.701277587890625,0.02419999986886978,0.01718750037252903,0.004124999977648258
1750559012240881700,5.710881591796875,0.0193875003606081,-0.007287499960511923,0.03341250121593475
1750559012250485200,5.7204853515625,0.013199999928474426,-0.020762499421834946,0.048124998807907104
1750559012260089300,5.73008935546875,0.008387500420212746,-0.030524998903274536,0.043175000697374344
1750559012269693200,5.739693115234375,0.01209999993443489,-0.02199999988079071,0.01759999990463257
1750559012279297300,5.74929736328125,0.02419999986886978,0.002474999986588955,-0.019112499430775642
1750559012288901400,5.7589013671875,0.030387500301003456,0.0085249999538064,-0.05444999784231186
1750559012298505200,5.768505126953125,0.027912499383091927,-0.015812499448657036,-0.07411249727010727
1750559012308109300,5.778109375,0.007149999961256981,-0.04633750021457672,-0.08139999955892563
1750559012317713400,5.78771337890625,-0.01732499897480011,-0.0635249987244606,-0.07644999772310257
1750559012327317200,5.797317138671875,-0.02213750034570694,-0.05857500061392784,-0.05335000157356262
1750559012336921300,5.80692138671875,-0.01484999991953373,-0.04028749838471413,-0.008112499490380287
1750559012346525200,5.816525146484375,-0.002612499985843897,-0.010999999940395355,0.043175000697374344
1750559012356129000,5.82612890625,0.0034374999813735485,0.02199999988079071,0.07741250097751617
1750559012365732900,5.83573291015625,-0.0038499999791383743,0.047712501138448715,0.0835999995470047
1750559012375337200,5.845337158203125,-0.01484999991953373,0.045237500220537186,0.06393750011920929
1750559012384941000,5.854941162109375,-0.01966249942779541,0.00494999997317791,0.02241249941289425
1750559012394545000,5.864544921875,-0.018562499433755875,-0.047575000673532486,-0.03135000169277191
1750559012404149000,5.87414892578125,-0.016087500378489494,-0.1013374999165535,-0.0728750005364418
1750559012413752800,5.8837529296875,-0.007562499959021807,-0.1270499974489212,-0.0789249986410141
1750559012423357000,5.89335693359375,0.007149999961256981,-0.09776250272989273,-0.06187500059604645
1750559012432961000,5.9029609375,0.022962499409914017,-0.047575000673532486,-0.03258749842643738
1750559012442564900,5.91256494140625,0.037675000727176666,-0.00976249948143959,-0.0008249999955296516
1750559012452169000,5.9221689453125,0.04262499883770943,-0.006049999967217445,0.01759999990463257
1750559012461772800,5.931772705078125,0.03891250118613243,-0.020762499421834946,0.009074999950826168
1750559012471376600,5.941376708984375,0.0364375002682209,-0.06104999780654907,-0.011824999935925007
1750559012480980700,5.950980712890625,0.032862499356269836,-0.07699999958276749,-0.0411125011742115
1750559012490584800,5.960584716796875,0.02419999986886978,-0.0635249987244606,-0.06187500059604645
1750559012500188700,5.970188720703125,0.005912499967962503,-0.04152499884366989,-0.06187500059604645
1750559012509793000,5.97979296875,-0.007562499959021807,0.0037124999798834324,-0.04235000163316727
1750559012519396600,5.989396728515625,-0.005087499972432852,0.028187500312924385,-0.012924999929964542
1750559012529000700,5.999000732421875,-0.0013749999925494194,0.020762499421834946,0.010174999944865704
1750559012538604800,6.008604736328125,0.0034374999813735485,0.0085249999538064,0.01993750035762787
1750559012548208600,6.018208740234375,0.005912499967962503,0.002474999986588955,0.028599999845027924
1750559012557812700,6.027812744140625,0.0010999999940395355,0.01718750037252903,0.03464999794960022
1750559012567416600,6.03741650390625,-0.0038499999791383743,0.03918749839067459,0.02983750030398369
1750559012577020700,6.047020751953125,-0.016087500378489494,0.042762499302625656,0.012649999931454659
1750559012586624800,6.056624755859375,-0.025849999859929085,0.0012374999932944775,-0.010587500408291817
1750559012596228600,6.066228515625,-0.02708750031888485,-0.045237500220537186,-0.04235000163316727
1750559012605832700,6.075832763671875,-0.01732499897480011,-0.07699999958276749,-0.06544999778270721
1750559012615436300,6.085436279296875,0.005912499967962503,-0.08676250278949738,-0.06668750196695328
1750559012625040400,6.095040283203125,0.018149999901652336,-0.07699999958276749,-0.0471624992787838
1750559012634644500,6.10464453125,0.018149999901652336,-0.045237500220537186,-0.021587500348687172
1750559012644248300,6.114248291015625,0.01209999993443489,-0.002474999986588955,0.010174999944865704
1750559012653852400,6.123852294921875,0.0034374999813735485,0.02928750030696392,0.03712499886751175
1750559012663456300,6.133456298828125,-0.01732499897480011,0.05871250107884407,0.050599999725818634
1750559012673060400,6.143060302734375,-0.02708750031888485,0.047712501138448715,0.04441250115633011
1750559012682664200,6.152664306640625,-0.025849999859929085,0.00976249948143959,0.01759999990463257
1750559012692268300,6.162268310546875,-0.016087500378489494,-0.025575000792741776,-0.014162499457597733
1750559012701872400,6.171872314453125,0.004674999974668026,-0.03657500073313713,-0.03987500071525574
1750559012711476200,6.181476318359375,0.0193875003606081,-0.023237500339746475,-0.05335000157356262
1750559012721080300,6.191080322265625,0.022962499409914017,-0.006049999967217445,-0.06187500059604645
1750559012730684400,6.200684326171875,0.018149999901652336,-0.004812499973922968,-0.0728750005364418
1750559012740288300,6.210288330078125,0.008387500420212746,-0.023237500339746475,-0.08387500047683716
1750559012749892000,6.21989208984375,0.009624999947845936,-0.05857500061392784,-0.08511249721050262
1750559012759496200,6.22949609375,0.010862499475479126,-0.07699999958276749,-0.07644999772310257
1750559012769100000,6.23910009765625,0.0034374999813735485,-0.0635249987244606,-0.06544999778270721
1750559012778704100,6.2487041015625,-0.006324999965727329,-0.02447500079870224,-0.05211250111460686
1750559012788308000,6.258307861328125,-0.008799999952316284,0.002474999986588955,-0.03492499887943268
1750559012797912000,6.267912109375,-0.007562499959021807,-0.00976249948143959,-0.03492499887943268
1750559012807516200,6.27751611328125,0.010862499475479126,-0.04152499884366989,-0.06311249732971191
1750559012817120000,6.2871201171875,0.032862499356269836,-0.07699999958276749,-0.1046374961733818
1750559012826723800,6.296723876953125,0.049912501126527786,-0.09652499854564667,-0.14739999175071716
1750559012836328000,6.306327880859375,0.05719999969005585,-0.0989999994635582,-0.16940000653266907
1750559012845931800,6.315931884765625,0.049912501126527786,-0.08910000324249268,-0.15963749587535858
1750559012855535900,6.325535888671875,0.0364375002682209,-0.08181250095367432,-0.1363999992609024
1750559012865139700,6.3351396484375,0.027912499383091927,-0.09157499670982361,-0.1326874941587448
1750559012874743800,6.344743896484375,0.02914999984204769,-0.09776250272989273,-0.15716250240802765
1750559012884347600,6.35434765625,0.030387500301003456,-0.07328750193119049,-0.1999250054359436
1750559012893951700,6.36395166015625,0.005912499967962503,-0.05004999786615372,-0.20721249282360077
1750559012903555600,6.3735556640625,-0.035612501204013824,-0.015812499448657036,-0.1779250055551529
1750559012913159700,6.38315966796875,-0.07837499678134918,0.06599999964237213,-0.15839999914169312
1750559012922763800,6.392763671875,-0.12966249883174896,0.1368124932050705,-0.15963749587535858
1750559012932367600,6.40236767578125,-0.1284250020980835,0.2162874937057495,-0.16568750143051147
1750559012941971700,6.4119716796875,-0.07837499678134918,0.3091000020503998,-0.11192499846220016
1750559012951575800,6.421575927734375,0.018149999901652336,0.45938751101493835,0.015124999918043613
1750559012961179400,6.431179443359375,0.1073874980211258,0.6584874987602234,0.3205125033855438
1750559012970783500,6.440783447265625,0.08043749630451202,0.6744375228881836,0.9644249677658081
1750559012980387600,6.4503876953125,0.004674999974668026,0.781962513923645,1.7792500257492065
1750559012989991700,6.45999169921875,-0.14313749969005585,1.0506374835968018,2.586787462234497
1750559012999595500,6.469595458984375,-0.29823750257492065,1.3609750270843506,3.306462526321411
1750559013009199600,6.47919970703125,-0.2531374990940094,1.7323625087738037,3.9049999713897705
1750559013018803500,6.488803466796875,-0.1321374922990799,1.8338375091552734,4.6160125732421875
1750559013028407600,6.498407470703125,-0.012374999932944775,1.7287875413894653,5.396737575531006
1750559013038011400,6.508011474609375,0.062150001525878906,1.4049749374389648,6.160274982452393
1750559013047615500,6.517615478515625,0.05472499877214432,0.8039624691009521,6.78095006942749
1750559013057219300,6.52721923828125,0.04386249929666519,0.273624986410141,7.0412373542785645
1750559013066823400,6.536823486328125,0.05362499877810478,-0.14162500202655792,7.024049758911133
1750559013076427500,6.546427490234375,0.04386249929666519,-0.550962507724762,6.782187461853027
1750559013086031000,6.556031005859375,0.06091250106692314,-0.7574874758720398,6.269037246704102
1750559013095635200,6.56563525390625,0.15991249680519104,-0.7794874906539917,5.515262603759766
1750559013105239000,6.575239013671875,0.25519999861717224,-0.8025875091552734,4.5831499099731445
1750559013114843100,6.584843017578125,0.2917749881744385,-0.8710625171661377,3.549562454223633
1750559013124447000,6.594447021484375,0.27348750829696655,-0.944350004196167,2.5134999752044678
1750559013134051000,6.604051025390625,0.3137750029563904,-1.1618750095367432,1.6632000207901
1750559013143655200,6.6136552734375,0.4017750024795532,-1.4843125343322754,1.0071874856948853
1750559013153259000,6.623259033203125,0.45553749799728394,-1.7153124809265137,0.45980000495910645
1750559013162863000,6.632863037109375,0.4750624895095825,-1.8313624858856201,0.030937500298023224
1750559013172467200,6.64246728515625,0.4800125062465668,-1.748175024986267,-0.2915000021457672
1750559013182071000,6.652071044921875,0.4690124988555908,-1.5380749702453613,-0.5480750203132629
1750559013191675100,6.661675048828125,0.444537490606308,-1.2412124872207642,-0.7863624691963196
1750559013201278700,6.67127880859375,0.42253750562667847,-0.9088749885559082,-1.0489875078201294
1750559013210882800,6.6808828125,0.39448750019073486,-0.48867499828338623,-1.3923250436782837
1750559013220487000,6.69048681640625,0.35048750042915344,-0.037812501192092896,-1.8187124729156494
1750559013230090800,6.7000908203125,0.2905375063419342,0.2675749957561493,-2.3011999130249023
1750559013239695000,6.709695068359375,0.2087250053882599,0.3909125030040741,-2.79963755607605
1750559013249299000,6.719298828125,0.07796250283718109,0.3788124918937683,-3.2847375869750977
1750559013258902800,6.72890283203125,-0.057612501084804535,0.28228750824928284,-3.7636499404907227
1750559013268507000,6.7385068359375,-0.11384999752044678,0.18205000460147858,-4.221799850463867
1750559013278110700,6.74811083984375,-0.08566249907016754,0.08552499860525131,-4.635950088500977
1750559013287714800,6.75771484375,-0.00989999994635582,0.0085249999538064,-5.022049903869629
1750559013297318700,6.767318603515625,0.08291249722242355,0.002474999986588955,-5.439774990081787
1750559013306922800,6.7769228515625,0.15867500007152557,-0.02447500079870224,-5.940687656402588
1750559013316526800,6.78652685546875,0.2124374955892563,-0.13433749973773956,-6.489312648773193
1750559013326130400,6.79613037109375,0.2624875009059906,-0.420199990272522,-6.942512512207031
1750559013335734800,6.80573486328125,0.43601250648498535,-0.8075374960899353,-6.992562294006348
1750559013345338600,6.815338623046875,0.6191624999046326,-1.3547874689102173,-6.324312686920166
1750559013354942500,6.8249423828125,0.6961625218391418,-1.6065499782562256,-5.3592000007629395
1750559013364546600,6.834546630859375,0.9062625169754028,-1.1496374607086182,-4.483187675476074
1750559013374150400,6.844150390625,1.0993125438690186,-0.3848625123500824,-3.4740750789642334
1750559013383754500,6.85375439453125,1.0224499702453613,0.32257500290870667,-2.264625072479248
1750559013393358300,6.8633583984375,0.8549749851226807,0.9541124701499939,-1.1149874925613403
1750559013402962400,6.87296240234375,0.6448749899864197,1.5613124370574951,-0.27197501063346863
1750559013412566500,6.88256640625,0.4164874851703644,2.06469988822937,0.22165000438690186
1750559013422170400,6.89217041015625,0.23553749918937683,2.230799913406372,0.43779999017715454
1750559013431774500,6.9017744140625,0.13048750162124634,1.9779374599456787,0.4512749910354614
1750559013441378300,6.91137841796875,0.10243749618530273,1.385450005531311,0.3156999945640564
1750559013450982400,6.920982421875,0.07315000146627426,0.65972501039505,0.07741250097751617
1750559013460586500,6.93058642578125,0.02186249941587448,0.05128749832510948,-0.18273749947547913
1750559013470190300,6.9401904296875,-0.018562499433755875,-0.3091000020503998,-0.318450003862381
1750559013479794200,6.949794189453125,-0.038087498396635056,-0.44343748688697815,-0.279262512922287
1750559013489398300,6.959398193359375,-0.042899999767541885,-0.4189625084400177,-0.13887499272823334
1750559013499002000,6.969002197265625,-0.025849999859929085,-0.22357499599456787,0.02488750033080578
1750559013508606200,6.978606201171875,0.004674999974668026,0.042762499302625656,0.1751749962568283
1750559013518210000,6.9882099609375,0.02914999984204769,0.24186250567436218,0.2899875044822693
1750559013527814100,6.997814208984375,0.05472499877214432,0.3250499963760376,0.3596999943256378
1750559013537418200,7.007418212890625,0.08043749630451202,0.3078624904155731,0.3950375020503998
1750559013547021800,7.017021728515625,0.06091250106692314,0.2638624906539917,0.41456249356269836
1750559013556626000,7.0266259765625,-0.00013749999925494194,0.1050499975681305,0.4353249967098236
1750559013566229800,7.036229736328125,-0.06132499873638153,-0.054999999701976776,0.3950375020503998
1750559013575833900,7.045833740234375,-0.09542500227689743,-0.15386250615119934,0.3119874894618988
1750559013585438000,7.05543798828125,-0.08332499861717224,-0.1746249943971634,0.22522500157356262
1750559013595041800,7.065041748046875,-0.04166249930858612,-0.11604999750852585,0.1629374921321869
1750559013604646000,7.07464599609375,0.0010999999940395355,-0.0170499999076128,0.1274625062942505
1750559013614250000,7.08425,0.02419999986886978,0.09047500044107437,0.11893749982118607
1750559013623853800,7.093853759765625,0.018149999901652336,0.1845249980688095,0.12388750165700912
1750559013633458000,7.1034580078125,0.0010999999940395355,0.23828749358654022,0.1311749964952469
1750559013643061800,7.113061767578125,-0.0038499999791383743,0.18328750133514404,0.13241249322891235
1750559013652665900,7.122665771484375,-0.002612499985843897,0.05376249924302101,0.10312499850988388
1750559013662269700,7.132269775390625,0.01691249944269657,-0.07809999585151672,0.04193750023841858
1750559013671873500,7.14187353515625,0.04138749837875366,-0.14533749222755432,-0.03492499887943268
1750559013681478000,7.151477783203125,0.062150001525878906,-0.1685750037431717,-0.09487500041723251
1750559013691081700,7.161081787109375,0.07067500054836273,-0.1331000030040741,-0.12168750166893005
1750559013700685800,7.170685791015625,0.06338749825954437,-0.042762499302625656,-0.1106875017285347
1750559013710289700,7.18028955078125,0.04386249929666519,0.028187500312924385,-0.05816249921917915
1750559013719893500,7.1898935546875,0.015675000846385956,0.06847500056028366,0.010174999944865704
1750559013729497600,7.19949755859375,-0.01732499897480011,0.1050499975681305,0.07259999960660934
1750559013739101700,7.209101806640625,-0.03932499885559082,0.14300000667572021,0.11646249890327454
1750559013748705500,7.21870556640625,-0.04166249930858612,0.15523749589920044,0.15565000474452972
1750559013758309600,7.2283095703125,-0.042899999767541885,0.13805000483989716,0.1886499971151352
1750559013767913500,7.23791357421875,-0.038087498396635056,0.12457499653100967,0.1849374920129776
1750559013777517600,7.247517578125,-0.008799999952316284,0.06228749826550484,0.16046249866485596
1750559013787121700,7.25712158203125,0.03162499889731407,-0.02447500079870224,0.1153625026345253
1750559013796725500,7.2667255859375,0.05843750014901161,-0.09404999762773514,0.04936249926686287
1750559013806329300,7.276329345703125,0.06943749636411667,-0.15152500569820404,-0.014162499457597733
1750559013815933400,7.285933349609375,0.07315000146627426,-0.17104999721050262,-0.06063750013709068
1750559013825537300,7.295537353515625,0.07067500054836273,-0.14533749222755432,-0.08139999955892563
1750559013835141400,7.305141357421875,0.0681999996304512,-0.0989999994635582,-0.08992499858140945
1750559013844745200,7.3147451171875,0.05719999969005585,-0.0317624993622303,-0.09487500041723251
1750559013854349300,7.324349365234375,0.0364375002682209,0.023237500339746475,-0.0826374962925911
1750559013863953200,7.333953125,0.009624999947845936,0.05376249924302101,-0.05087500065565109
1750559013873557200,7.34355712890625,-0.018562499433755875,0.08071249723434448,-0.0056374999694526196
1750559013883161300,7.353161376953125,-0.03684999793767929,0.06971249729394913,0.06764999777078629
1750559013892765200,7.36276513671875,-0.050324998795986176,0.05623750016093254,0.13612499833106995
1750559013902369300,7.372369384765625,-0.050324998795986176,0.07095000147819519,0.15812499821186066
1750559013911973000,7.38197314453125,-0.04413750022649765,0.07095000147819519,0.1311749964952469
1750559013921577200,7.3915771484375,-0.025849999859929085,0.0635249987244606,0.06641250103712082
1750559013931181000,7.40118115234375,-0.0038499999791383743,0.04399999976158142,-0.0056374999694526196
1750559013940785000,7.410784912109375,0.01209999993443489,0.00494999997317791,-0.05816249921917915
1750559013950389000,7.420388916015625,0.013199999928474426,-0.03423750028014183,-0.07644999772310257
1750559013959993000,7.4299931640625,-0.002612499985843897,-0.04399999976158142,-0.07039999961853027
1750559013969597000,7.439596923828125,-0.02213750034570694,-0.03423750028014183,-0.04468749836087227
1750559013979201000,7.449200927734375,-0.045375000685453415,-0.0317624993622303,-0.009349999949336052
1750559013988804900,7.458804931640625,-0.06984999775886536,-0.007287499960511923,0.018837500363588333
1750559013998409000,7.468408935546875,-0.08689999580383301,0.037950001657009125,0.0518375001847744
1750559014008012800,7.4780126953125,-0.10161250084638596,0.08428750187158585,0.0835999995470047
1750559014017617000,7.487616943359375,-0.10518749803304672,0.12952500581741333,0.10188750177621841
1750559014027220700,7.497220703125,-0.08813749998807907,0.13557499647140503,0.10670000314712524
1750559014036824800,7.506824951171875,-0.05637500062584877,0.11357499659061432,0.09336250275373459
1750559014046428700,7.5164287109375,-0.023375000804662704,0.0635249987244606,0.07012499868869781
1750559014056032800,7.52603271484375,0.005912499967962503,0.01718750037252903,0.030937500298023224
1750559014065636600,7.53563671875,0.022962499409914017,-0.01223750039935112,-0.017875000834465027
1750559014075240700,7.54524072265625,0.0364375002682209,-0.045237500220537186,-0.06187500059604645
1750559014084844500,7.554844482421875,0.049912501126527786,-0.08552499860525131,-0.09844999760389328
1750559014094448600,7.56444873046875,0.06943749636411667,-0.1307625025510788,-0.13144999742507935
1750559014104052500,7.574052490234375,0.07672499865293503,-0.19181250035762787,-0.1522125005722046
1750559014113656600,7.583656494140625,0.07067500054836273,-0.21615000069141388,-0.15716250240802765
1750559014123260700,7.5932607421875,0.05238749831914902,-0.1905750036239624,-0.14863750338554382
1750559014132864500,7.602864501953125,0.02419999986886978,-0.10009999573230743,-0.12292499840259552
1750559014142468600,7.612468505859375,0.008387500420212746,-0.030524998903274536,-0.06187500059604645
1750559014152072400,7.622072509765625,-0.006324999965727329,0.00976249948143959,-0.0008249999955296516
1750559014161676300,7.63167626953125,-0.018562499433755875,0.06847500056028366,0.012649999931454659
1750559014171280400,7.6412802734375,-0.03189999982714653,0.09652499854564667,-0.0019249999895691872
1750559014180884200,7.65088427734375,-0.04413750022649765,0.0952875018119812,-0.026399999856948853
1750559014190488300,7.66048828125,-0.04908749833703041,0.0952875018119812,-0.05211250111460686
1750559014200092400,7.670092529296875,-0.045375000685453415,0.0952875018119812,-0.07163749635219574
1750559014209696300,7.6796962890625,-0.03437500074505806,0.05004999786615372,-0.06435000151395798
1750559014219300400,7.68930029296875,-0.03189999982714653,0.006187499966472387,-0.05087500065565109
1750559014228904200,7.698904296875,-0.035612501204013824,-0.02447500079870224,-0.028875000774860382
1750559014238508300,7.70850830078125,-0.040562499314546585,-0.04152499884366989,0.0004124999977648258
1750559014248112400,7.7181123046875,-0.045375000685453415,-0.04028749838471413,0.02241249941289425
1750559014257716200,7.72771630859375,-0.057612501084804535,-0.0085249999538064,0.04193750023841858
1750559014267320000,7.737320068359375,-0.06366249918937683,0.04152499884366989,0.06764999777078629
1750559014276924200,7.746924072265625,-0.042899999767541885,0.07576250284910202,0.09336250275373459
1750559014286528000,7.756528076171875,-0.00989999994635582,0.07699999958276749,0.10312499850988388
1750559014296132000,7.766132080078125,0.01209999993443489,0.030524998903274536,0.08470000326633453
1750559014305736200,7.775736083984375,0.007149999961256981,-0.0317624993622303,0.038362499326467514
1750559014315340000,7.785340087890625,-0.01966249942779541,-0.08428750187158585,-0.014162499457597733
1750559014324944000,7.79494384765625,-0.03932499885559082,-0.10876250267028809,-0.04358749836683273
1750559014334548000,7.8045478515625,-0.03684999793767929,-0.1013374999165535,-0.03739999979734421
1750559014344152000,7.814152099609375,-0.02708750031888485,-0.06833750009536743,-0.011824999935925007
1750559014353756000,7.823755859375,-0.018562499433755875,-0.0317624993622303,0.012649999931454659
1750559014363360000,7.833360107421875,-0.016087500378489494,0.01718750037252903,0.02983750030398369
1750559014372964000,7.842964111328125,-0.030662499368190765,0.06599999964237213,0.038362499326467514
1750559014382567700,7.852567626953125,-0.03684999793767929,0.09281250089406967,0.0518375001847744
1750559014392171800,7.862171875,-0.03437500074505806,0.07823749631643295,0.07136250287294388
1750559014401775900,7.87177587890625,-0.035612501204013824,0.05623750016093254,0.07493750005960464
1750559014411379700,7.881379638671875,-0.030662499368190765,0.02199999988079071,0.05912499874830246
1750559014420983800,7.89098388671875,-0.01966249942779541,-0.020762499421834946,0.026124998927116394
1750559014430587600,7.900587646484375,-0.011137500405311584,-0.05252499878406525,-0.008112499490380287
1750559014440191700,7.910191650390625,-0.0038499999791383743,-0.06599999964237213,-0.03616249933838844
1750559014449795600,7.919795654296875,-0.002612499985843897,-0.04881250113248825,-0.04839999973773956
1750559014459399700,7.929399658203125,-0.006324999965727329,-0.002474999986588955,-0.03616249933838844
1750559014469003800,7.939003662109375,-0.012374999932944775,0.045237500220537186,-0.008112499490380287
1750559014478607600,7.948607666015625,-0.01732499897480011,0.05252499878406525,0.02241249941289425
1750559014488211700,7.958211669921875,-0.01484999991953373,0.02928750030696392,0.038362499326467514
1750559014497815800,7.96781591796875,-0.008799999952316284,-0.007287499960511923,0.03712499886751175
1750559014507419600,7.977419677734375,0.002199999988079071,-0.037812501192092896,0.028599999845027924
1750559014517023500,7.9870234375,0.008387500420212746,-0.05128749832510948,0.02241249941289425
1750559014526627300,7.99662744140625,0.01209999993443489,-0.025575000792741776,0.018837500363588333
1750559014536231400,8.0062314453125,0.013199999928474426,0.018287500366568565,0.016362499445676804
1750559014545835300,8.015835205078124,0.02419999986886978,0.018287500366568565,0.012649999931454659
1750559014555439400,8.025439453125,0.03891250118613243,-0.0170499999076128,-0.0019249999895691872
1750559014565043500,8.03504345703125,0.04262499883770943,-0.06104999780654907,-0.027637500315904617
1750559014574647300,8.044647216796875,0.037675000727176666,-0.08552499860525131,-0.05335000157356262
1750559014584251100,8.054251220703126,0.0364375002682209,-0.08304999768733978,-0.06187500059604645
1750559014593855500,8.06385546875,0.040150001645088196,-0.0672374963760376,-0.0471624992787838
1750559014603459300,8.073459228515626,0.03891250118613243,-0.04152499884366989,-0.028875000774860382
1750559014613063200,8.083063232421875,0.04496249929070473,-0.0170499999076128,-0.028875000774860382
1750559014622667300,8.092667236328126,0.04262499883770943,0.0012374999932944775,-0.05335000157356262
1750559014632271000,8.10227099609375,0.0364375002682209,0.0012374999932944775,-0.08387500047683716
1750559014641875200,8.111875244140625,0.02914999984204769,-0.015812499448657036,-0.10821250081062317
1750559014651479000,8.12147900390625,0.0193875003606081,-0.032999999821186066,-0.12416250258684158
1750559014661083100,8.131083251953125,0.0034374999813735485,-0.05128749832510948,-0.12292499840259552
1750559014670687000,8.14068701171875,-0.012374999932944775,-0.045237500220537186,-0.12416250258684158
1750559014680291000,8.150291015625,-0.020899999886751175,-0.030524998903274536,-0.12787500023841858
1750559014689895200,8.159895263671874,-0.011137500405311584,-0.015812499448657036,-0.12416250258684158
1750559014699499000,8.1694990234375,0.002199999988079071,-0.00976249948143959,-0.10092499852180481
1750559014709103000,8.17910302734375,0.004674999974668026,-0.01347499992698431,-0.08511249721050262
1750559014718707000,8.18870703125,0.0034374999813735485,-0.020762499421834946,-0.09116250276565552
1750559014728310800,8.198310791015626,0.0034374999813735485,-0.03904999792575836,-0.1106875017285347
1750559014737915000,8.207914794921875,0.01209999993443489,-0.07328750193119049,-0.14863750338554382
1750559014747518700,8.217518798828126,0.02419999986886978,-0.10876250267028809,-0.1999250054359436
1750559014757122800,8.227122802734375,0.03519999980926514,-0.12209999561309814,-0.23649999499320984
1750559014766726700,8.2367265625,0.022962499409914017,-0.11604999750852585,-0.21697500348091125
1750559014776330800,8.246330810546874,-0.011137500405311584,-0.0695749968290329,-0.16197499632835388
1750559014785934800,8.255934814453125,-0.03932499885559082,0.023237500339746475,-0.09116250276565552
1750559014795538700,8.26553857421875,-0.06366249918937683,0.11604999750852585,-0.004399999976158142
1750559014805142800,8.275142822265625,-0.08332499861717224,0.1942874938249588,0.057887498289346695
1750559014814746600,8.28474658203125,-0.09913749992847443,0.2223374992609024,0.08236250281333923
1750559014824350500,8.2943505859375,-0.10889999568462372,0.17723749577999115,0.05912499874830246
1750559014833954600,8.30395458984375,-0.10766249895095825,0.11123749613761902,-0.008112499490380287
1750559014843558400,8.313558349609375,-0.08442500233650208,0.05128749832510948,-0.0728750005364418
1750559014853162500,8.32316259765625,-0.05637500062584877,0.01347499992698431,-0.09487500041723251
1750559014862766600,8.3327666015625,-0.03189999982714653,0.059950001537799835,-0.07644999772310257
1750559014872370400,8.342370361328125,-0.040562499314546585,0.2297624945640564,0.02736249938607216
1750559014881974500,8.351974609375,-0.11990000307559967,0.3665750026702881,0.29122498631477356
1750559014891578400,8.361578369140625,-0.20418749749660492,0.5656750202178955,0.6467999815940857
1750559014901182500,8.371182373046874,-0.2774749994277954,0.8857749700546265,1.051187515258789
1750559014910786300,8.380786376953125,-0.3312374949455261,1.2706375122070312,1.554437518119812
1750559014920390100,8.39039013671875,-0.2139499932527542,1.8203624486923218,2.19958758354187
1750559014929994200,8.399994140625,-0.007562499959021807,2.2357499599456787,3.225749969482422
1750559014939598300,8.409598388671874,0.2124374955892563,2.386037588119507,4.464624881744385
1750559014949202400,8.419202392578125,0.47382500767707825,2.4116125106811523,5.500549793243408
1750559014958806500,8.428806640625,0.6155874729156494,2.2235124111175537,6.129749774932861
1750559014968410000,8.43841015625,0.6558749675750732,1.8423625230789185,6.4168500900268555
1750559014978014200,8.44801416015625,0.6729249954223633,1.255924940109253,6.520662307739258
1750559014987618300,8.457618408203125,0.6106374859809875,0.5669124722480774,6.5256123542785645
1750559014997222100,8.46722216796875,0.47011250257492065,-0.09404999762773514,6.352087497711182
1750559015006826200,8.476826171875,0.37482500076293945,-0.5937250256538391,5.983174800872803
1750559015016430000,8.48643017578125,0.37482500076293945,-0.8978750109672546,5.413787364959717
1750559015026034200,8.4960341796875,0.4175874888896942,-0.7587249875068665,4.594150066375732
1750559015035637800,8.5056376953125,0.4982999861240387,-0.6059625148773193,3.650899887084961
1750559015045241900,8.515241943359374,0.533637523651123,-0.6767749786376953,2.671074867248535
1750559015054846000,8.524845947265625,0.4885374903678894,-0.9590625166893005,1.6864374876022339
1750559015064449800,8.53444970703125,0.43230000138282776,-1.3756874799728394,0.7408499717712402
1750559015074054000,8.544053955078125,0.381012499332428,-1.784887433052063,-0.08139999955892563
1750559015083658000,8.553657958984376,0.3357749879360199,-2.0719873905181885,-0.783887505531311
1750559015093261800,8.56326171875,0.2807750105857849,-2.1367499828338623,-1.3861374855041504
1750559015102866000,8.572865966796876,0.26743748784065247,-2.009700059890747,-1.916337490081787
1750559015112469800,8.5824697265625,0.29672500491142273,-1.7164125442504883,-2.455199956893921
1750559015122073900,8.592073974609375,0.31501248478889465,-1.3011624813079834,-3.0159249305725098
1750559015131677700,8.601677734375,0.3260124921798706,-0.8441125154495239,-3.5485999584198
1750559015141281800,8.61128173828125,0.34677499532699585,-0.4996750056743622,-3.9810373783111572
1750559015150885600,8.6208857421875,0.38458749651908875,-0.39338749647140503,-4.287799835205078
1750559015160489700,8.63048974609375,0.4090625047683716,-0.47148749232292175,-4.480712413787842
1750559015170093600,8.640093505859374,0.4175874888896942,-0.5852000117301941,-4.609000205993652
1750559015179697700,8.64969775390625,0.4628250002861023,-0.6962999701499939,-4.6774749755859375
1750559015189301500,8.659301513671876,0.5190625190734863,-0.8540124893188477,-4.715287685394287
1750559015198905600,8.668905517578125,0.5435374975204468,-1.0543500185012817,-4.787475109100342
1750559015208509400,8.678509521484376,0.5863000154495239,-1.1129250526428223,-5.00362491607666
1750559015218113500,8.688113525390625,0.6534000039100647,-0.861299991607666,-5.289487361907959
1750559015227717600,8.697717529296876,0.7071624994277954,-0.5692499876022339,-5.312725067138672
1750559015237321500,8.707321533203125,0.7939249873161316,-0.5424374938011169,-4.7019500732421875
1750559015246925300,8.71692529296875,0.865975022315979,-0.7147250175476074,-3.4630749225616455
1750559015256529400,8.726529296875,0.7902125120162964,-0.7073000073432922,-2.005574941635132
1750559015266133200,8.73613330078125,0.5556374788284302,-0.41538751125335693,-0.7471749782562256
1750559015275737300,8.7457373046875,0.26372501254081726,0.06476250290870667,0.09569999575614929
1750559015285341200,8.755341064453125,-0.008799999952316284,0.5656750202178955,0.6051374673843384
1750559015294945300,8.7649453125,-0.21642500162124634,0.8882499933242798,0.9081875085830688
1750559015304549400,8.77454931640625,-0.30195000767707825,1.005537509918213,0.994949996471405
1750559015314153200,8.7841533203125,-0.28600001335144043,0.9933000206947327,0.8691374659538269
1750559015323757300,8.79375732421875,-0.2176624983549118,0.8992499709129333,0.5990874767303467
1750559015333361200,8.803361083984376,-0.18466250598430634,0.6182000041007996,0.3119874894618988
1750559015342965000,8.812965087890625,-0.18837499618530273,0.1050499975681305,0.08236250281333923
1750559015352569000,8.822569091796876,-0.20295000076293945,-0.36643749475479126,-0.15592500567436218
1750559015362173000,8.8321728515625,-0.2176624983549118,-0.5692499876022339,-0.37097498774528503
1750559015371777000,8.841777099609375,-0.20542499423027039,-0.5460125207901001,-0.45278748869895935
1750559015381381000,8.851381103515624,-0.18466250598430634,-0.37619999051094055,-0.39531248807907104
1750559015390985000,8.86098486328125,-0.1541374921798706,-0.07809999585151672,-0.25244998931884766
1750559015400589000,8.870589111328124,-0.14313749969005585,0.26633748412132263,-0.08511249721050262
1750559015410193000,8.88019287109375,-0.1504250019788742,0.5314375162124634,0.07493750005960464
1750559015419797000,8.889796875,-0.16513749957084656,0.6023874878883362,0.20569999516010284
1750559015429400800,8.89940087890625,-0.1676124930381775,0.4984374940395355,0.2899875044822693
1750559015439005000,8.9090048828125,-0.15661250054836273,0.33233749866485596,0.3242250084877014
1750559015448609000,8.918609130859375,-0.1358499974012375,0.1625249981880188,0.2937000095844269
1750559015458212600,8.928212646484376,-0.13337500393390656,0.0147124994546175,0.20817500352859497
1750559015467817000,8.93781689453125,-0.13337500393390656,-0.08799999952316284,0.10546249896287918
1750559015477420500,8.947420654296875,-0.11990000307559967,-0.09776250272989273,0.013887500390410423
1750559015487024600,8.957024658203125,-0.09418749809265137,-0.028049999848008156,-0.03368749842047691
1750559015496628500,8.96662841796875,-0.05637500062584877,0.09047500044107437,-0.023924998939037323
1750559015506232600,8.976232666015624,-0.013612499460577965,0.22605000436306,0.016362499445676804
1750559015515836700,8.985836669921875,0.027912499383091927,0.28833749890327454,0.07741250097751617
1750559015525440500,8.9954404296875,0.05238749831914902,0.25533750653266907,0.13612499833106995
1750559015535044600,9.005044677734375,0.03396249935030937,0.1722874939441681,0.18369999527931213
1750559015544648700,9.014648681640624,0.004674999974668026,0.0147124994546175,0.2069374918937683
1750559015554252300,9.024252197265625,-0.01966249942779541,-0.1551000028848648,0.19593749940395355
1750559015563856400,9.0338564453125,-0.035612501204013824,-0.22357499599456787,0.1714625060558319
1750559015573460500,9.04346044921875,-0.04413750022649765,-0.17833749949932098,0.16046249866485596
1750559015583064300,9.053064208984376,-0.050324998795986176,-0.03904999792575836,0.16046249866485596
1750559015592668400,9.06266845703125,-0.05156249925494194,0.1307625025510788,0.17270000278949738
1750559015602272300,9.072272216796875,-0.06737499684095383,0.2615250051021576,0.1909874975681305
1750559015611876400,9.08187646484375,-0.09418749809265137,0.340862512588501,0.19222499430179596
1750559015621480400,9.09148046875,-0.11618749797344208,0.3115749955177307,0.1849374920129776
1750559015631084300,9.101084228515624,-0.13942499458789825,0.22852499783039093,0.1396999955177307
1750559015640688400,9.1106884765625,-0.14685000479221344,0.12952500581741333,0.10436250269412994
1750559015650292200,9.120292236328124,-0.13461250066757202,0.01347499992698431,0.11412499845027924
1750559015659896300,9.129896240234375,-0.10889999568462372,-0.06228749826550484,0.14093749225139618
1750559015669500200,9.139500244140624,-0.08084999769926071,-0.03904999792575836,0.1471250057220459
1750559015679104000,9.14910400390625,-0.05389999970793724,0.035475000739097595,0.13846249878406525
1750559015688708400,9.158708251953126,-0.016087500378489494,0.11728750169277191,0.12388750165700912
1750559015698312000,9.16831201171875,0.014437500387430191,0.18205000460147858,0.10312499850988388
1750559015707916000,9.177916015625,0.04262499883770943,0.2040500044822693,0.0798875018954277
1750559015717520100,9.18752001953125,0.06091250106692314,0.15633749961853027,0.06641250103712082
1750559015727124000,9.1971240234375,0.05967500060796738,0.035475000739097595,0.048124998807907104
1750559015736728000,9.20672802734375,0.04386249929666519,-0.08181250095367432,0.012649999931454659
1750559015746332000,9.216331787109375,0.02667500078678131,-0.15152500569820404,-0.026399999856948853
1750559015755936000,9.22593603515625,0.02419999986886978,-0.16128750145435333,-0.04839999973773956
1750559015765540000,9.2355400390625,0.04138749837875366,-0.12209999561309814,-0.04592499881982803
1750559015775143700,9.245143798828124,0.06462500244379044,-0.05004999786615372,-0.028875000774860382
1750559015784747800,9.254747802734375,0.07672499865293503,0.02694999985396862,-0.0019249999895691872
1750559015794351600,9.2643515625,0.06943749636411667,0.10752499848604202,0.018837500363588333
1750559015803955700,9.273955810546875,0.04743750020861626,0.1722874939441681,0.021175000816583633
1750559015813559600,9.2835595703125,0.018149999901652336,0.17352500557899475,0.011412499472498894
1750559015823163600,9.29316357421875,-0.012374999932944775,0.12347500026226044,-0.014162499457597733
1750559015832767700,9.302767822265626,-0.038087498396635056,0.07204999774694443,-0.04839999973773956
1750559015842371800,9.312371826171875,-0.055137500166893005,0.03423750028014183,-0.06311249732971191
1750559015851975700,9.3219755859375,-0.06613750010728836,0.01223750039935112,-0.06435000151395798
1750559015861579500,9.33157958984375,-0.07466249912977219,0.006187499966472387,-0.06435000151395798
1750559015871183400,9.341183349609375,-0.0906125009059906,0.025712499395012856,-0.0728750005364418
1750559015880787700,9.35078759765625,-0.09790000319480896,0.04647500067949295,-0.09239999949932098
1750559015890391600,9.3603916015625,-0.09418749809265137,0.05128749832510948,-0.11192499846220016
1750559015899995600,9.36999560546875,-0.08084999769926071,0.0317624993622303,-0.13516250252723694
1750559015909599500,9.379599609375,-0.06613750010728836,0.0085249999538064,-0.1498750001192093
1750559015919203600,9.38920361328125,-0.03932499885559082,-0.014574999921023846,-0.14739999175071716
1750559015928807400,9.398807373046875,-0.007562499959021807,-0.0317624993622303,-0.1498750001192093
1750559015938411300,9.408411376953126,0.02419999986886978,-0.020762499421834946,-0.15963749587535858
1750559015948015400,9.418015380859375,0.04743750020861626,-0.007287499960511923,-0.15592500567436218
1750559015957619500,9.427619384765626,0.05115000158548355,0.032999999821186066,-0.13392500579357147
1750559015967223000,9.43722314453125,0.03519999980926514,0.059950001537799835,-0.08635000139474869
1750559015976827100,9.4468271484375,0.013199999928474426,0.04895000159740448,-0.04358749836683273
1750559015986431200,9.45643115234375,-0.00013749999925494194,0.030524998903274536,-0.017875000834465027
1750559015996035000,9.46603515625,0.0010999999940395355,0.02447500079870224,-0.0008249999955296516
1750559016005639200,9.47563916015625,0.015675000846385956,0.032999999821186066,0.007837500423192978
1750559016015243300,9.4852431640625,0.04262499883770943,0.032999999821186066,0.007837500423192978
1750559016024847000,9.49484716796875,0.06338749825954437,0.03423750028014183,-0.011824999935925007
1750559016034451000,9.504450927734375,0.08043749630451202,0.01718750037252903,-0.03616249933838844
1750559016044055000,9.514054931640626,0.08662500232458115,-0.032999999821186066,-0.05816249921917915
1750559016053659100,9.5236591796875,0.08772499859333038,-0.0695749968290329,-0.08635000139474869
1750559016063263000,9.533262939453126,0.08772499859333038,-0.08799999952316284,-0.09611249715089798
1750559016072866800,9.54286669921875,0.08415000140666962,-0.09652499854564667,-0.08387500047683716
1750559016082471000,9.552470947265626,0.0719124972820282,-0.10009999573230743,-0.05444999784231186
1750559016092075000,9.562074951171875,0.049912501126527786,-0.08428750187158585,-0.022687500342726707
1750559016101678800,9.571678955078125,0.01691249944269657,-0.0635249987244606,0.012649999931454659
1750559016111283000,9.581282958984374,-0.01484999991953373,-0.05128749832510948,0.043175000697374344
1750559016120886800,9.59088671875,-0.04166249930858612,-0.025575000792741776,0.05912499874830246
1750559016130490600,9.60049072265625,-0.05637500062584877,0.01952499896287918,0.06517499685287476
1750559016140094700,9.6100947265625,-0.052662499248981476,0.05871250107884407,0.06888750195503235
1750559016149698800,9.61969873046875,-0.047849997878074646,0.07947500050067902,0.05664999783039093
1750559016159302700,9.629302734375,-0.04413750022649765,0.08181250095367432,0.030937500298023224
1750559016168906800,9.63890673828125,-0.04413750022649765,0.054999999701976776,0.009074999950826168
1750559016178510600,9.648510498046875,-0.042899999767541885,0.007287499960511923,0.0004124999977648258
1750559016188114400,9.658114501953126,-0.025849999859929085,-0.05128749832510948,0.0004124999977648258
1750559016197718800,9.66771875,-0.00989999994635582,-0.09157499670982361,0.009074999950826168
1750559016207322600,9.677322509765625,-0.007562499959021807,-0.09652499854564667,0.012649999931454659
1750559016216926500,9.686926513671875,-0.013612499460577965,-0.0635249987244606,0.011412499472498894
1750559016226530600,9.696530517578125,-0.016087500378489494,-0.020762499421834946,0.006599999964237213
1750559016236134400,9.706134521484374,-0.016087500378489494,0.030524998903274536,-0.0019249999895691872
1750559016245738500,9.715738525390625,-0.008799999952316284,0.04152499884366989,-0.0008249999955296516
1750559016255342300,9.72534228515625,0.008387500420212746,0.00976249948143959,-0.0056374999694526196
1750559016264946400,9.734946533203125,0.027912499383091927,-0.028049999848008156,-0.021587500348687172
1750559016274550300,9.74455029296875,0.03519999980926514,-0.0695749968290329,-0.03492499887943268
1750559016284154000,9.754154052734375,0.03162499889731407,-0.08910000324249268,-0.03616249933838844
1750559016293758200,9.76375830078125,0.0364375002682209,-0.07699999958276749,-0.019112499430775642
1750559016303362000,9.773362060546875,0.037675000727176666,-0.05128749832510948,0.018837500363588333
1750559016312966100,9.782966064453126,0.03891250118613243,-0.015812499448657036,0.057887498289346695
1750559016322570200,9.7925703125,0.04138749837875366,0.028187500312924385,0.07259999960660934
1750559016332174300,9.80217431640625,0.0364375002682209,0.0672374963760376,0.057887498289346695
1750559016341778200,9.811778076171874,0.040150001645088196,0.07204999774694443,0.030937500298023224
1750559016351382300,9.82138232421875,0.05719999969005585,0.030524998903274536,-0.014162499457597733
1750559016360986000,9.830986083984374,0.0681999996304512,-0.023237500339746475,-0.07768750190734863
1750559016370590200,9.840590087890625,0.07438749819993973,-0.07452499866485596,-0.14863750338554382
1750559016380194000,9.850194091796874,0.0681999996304512,-0.10628750175237656,-0.20473749935626984
1750559016389798100,9.859798095703125,0.04867500066757202,-0.09652499854564667,-0.2316875010728836
1750559016399402200,9.86940234375,0.037675000727176666,-0.05857500061392784,-0.2157374918460846
1750559016409006000,9.879006103515625,0.03396249935030937,-0.01223750039935112,-0.1498750001192093
1750559016418610000,9.88860986328125,0.03396249935030937,0.042762499302625656,-0.05816249921917915
1750559016428214000,9.898214111328125,0.022962499409914017,0.09652499854564667,0.02241249941289425
1750559016437817900,9.90781787109375,0.008387500420212746,0.11852499842643738,0.07259999960660934
1750559016447422000,9.917421875,-0.0013749999925494194,0.10381250083446503,0.07864999771118164
1750559016457025800,9.92702587890625,-0.00013749999925494194,0.03918749839067459,0.055412501096725464
1750559016466630000,9.9366298828125,0.020624998956918716,-0.04633750021457672,0.01759999990463257
1750559016476233700,9.946233642578125,0.049912501126527786,-0.12581250071525574,-0.009349999949336052
1750559016485837600,9.955837646484374,0.06943749636411667,-0.18438750505447388,-0.023924998939037323
1750559016495441700,9.965441650390625,0.06462500244379044,-0.1746249943971634,-0.021587500348687172
1750559016505045500,9.97504541015625,0.04743750020861626,-0.11357499659061432,-0.0008249999955296516
1750559016514649600,9.984649658203125,0.030387500301003456,-0.028049999848008156,0.026124998927116394
1750559016524253700,9.994253662109376,0.014437500387430191,0.047712501138448715,0.045649997889995575
1750559016533857500,10.003857421875,0.0034374999813735485,0.07576250284910202,0.04441250115633011
1750559016543461600,10.013461669921876,0.0034374999813735485,0.06599999964237213,0.023649999871850014
1750559016553065500,10.0230654296875,0.002199999988079071,0.01718750037252903,-0.012924999929964542
1750559016562669600,10.032669677734376,-0.002612499985843897,-0.02681249938905239,-0.05939999967813492
1750559016572273400,10.0422734375,-0.011137500405311584,-0.04399999976158142,-0.09721250087022781
1750559016581877200,10.051877197265625,-0.013612499460577965,-0.042762499302625656,-0.11316250264644623
1750559016591481600,10.061481689453124,-0.00989999994635582,-0.028049999848008156,-0.1046374961733818
1750559016601085200,10.071085205078125,-0.008799999952316284,0.01347499992698431,-0.09239999949932098
1750559016610689300,10.080689208984374,-0.013612499460577965,0.05252499878406525,-0.08992499858140945
1750559016620293000,10.090293212890625,-0.02213750034570694,0.07095000147819519,-0.08744999766349792
1750559016629897200,10.099897216796874,-0.02956249937415123,0.07452499866485596,-0.07644999772310257
1750559016639501300,10.109501220703125,-0.03189999982714653,0.07452499866485596,-0.07535000145435333
1750559016649105200,10.119105224609376,-0.02956249937415123,0.042762499302625656,-0.07411249727010727
1750559016658709200,10.128709228515625,-0.023375000804662704,0.00494999997317791,-0.07163749635219574
1750559016668313000,10.13831298828125,-0.007562499959021807,-0.030524998903274536,-0.06916250288486481
1750559016677917200,10.147917236328125,0.015675000846385956,-0.06228749826550484,-0.06063750013709068
1750559016687521300,10.157521240234376,0.0364375002682209,-0.09157499670982361,-0.06311249732971191
1750559016697125000,10.167125,0.05115000158548355,-0.0952875018119812,-0.0789249986410141
1750559016706729000,10.17672900390625,0.05115000158548355,-0.07328750193119049,-0.09116250276565552
1750559016716333000,10.1863330078125,0.05472499877214432,-0.03657500073313713,-0.09116250276565552
1750559016725937000,10.19593701171875,0.05719999969005585,-0.0035749999806284904,-0.08511249721050262
1750559016735541000,10.205541015625,0.05362499877810478,0.0147124994546175,-0.09363749623298645
1750559016745144800,10.215144775390625,0.040150001645088196,0.00976249948143959,-0.12292499840259552
1750559016754749000,10.2247490234375,0.018149999901652336,0.0037124999798834324,-0.16197499632835388
1750559016764353000,10.23435302734375,0.005912499967962503,-0.0085249999538064,-0.20845000445842743
1750559016773956900,10.243956787109376,-0.0038499999791383743,-0.018287500366568565,-0.2377374917268753
1750559016783561000,10.25356103515625,-0.01732499897480011,0.006187499966472387,-0.25850000977516174
1750559016793164800,10.263164794921876,-0.035612501204013824,0.045237500220537186,-0.28792500495910645
1750559016802769000,10.272768798828125,-0.06613750010728836,0.07823749631643295,-0.3452624976634979
1750559016812372700,10.282372802734375,-0.12361250072717667,0.13323749601840973,-0.4405499994754791
1750559016821976600,10.2919765625,-0.18095000088214874,0.22605000436306,-0.544362485408783
1750559016831580700,10.30158056640625,-0.20418749749660492,0.31404998898506165,-0.6298875212669373
1750559016841184500,10.3111845703125,-0.22495000064373016,0.3946250081062317,-0.7141749858856201
1750559016850788600,10.32078857421875,-0.21642500162124634,0.48867499828338623,-0.7643625140190125
1750559016860392700,10.330392822265624,-0.17737500369548798,0.49720001220703125,-0.7325999736785889
1750559016869996500,10.33999658203125,-0.1601874977350235,0.520437479019165,-0.6763625144958496
1750559016879600600,10.3496005859375,-0.1541374921798706,0.5827249884605408,-0.6043124794960022
1750559016889204700,10.359204833984375,-0.14066250622272491,0.65972501039505,-0.5200250148773193
1750559016898808600,10.36880859375,-0.14794999361038208,0.7635374665260315,-0.469837486743927
1750559016908412400,10.378412353515625,-0.1321374922990799,0.8674874901771545,-0.46254998445510864
1750559016918016500,10.3880166015625,-0.10766249895095825,0.9187750220298767,-0.48826250433921814
1750559016927620400,10.397620361328125,-0.0648999959230423,1.053112506866455,-0.5383124947547913
1750559016937224400,10.407224365234375,0.01209999993443489,1.1863499879837036,-0.4417875111103058
1750559016946828300,10.416828369140624,0.0681999996304512,1.2326874732971191,-0.023924998939037323
1750559016956432400,10.426432373046875,0.06572499871253967,1.193637490272522,0.7126625180244446
1750559016966036200,10.4360361328125,0.020624998956918716,1.1411124467849731,1.6399624347686768
1750559016975640300,10.445640380859375,-0.07466249912977219,1.210687518119812,2.531787395477295
1750559016985244200,10.455244140625,-0.1578499972820282,1.2999249696731567,3.2832250595092773
1750559016994848000,10.464847900390625,-0.19318750500679016,1.2461625337600708,3.933187484741211
1750559017004452000,10.4744521484375,-0.03684999793767929,1.214400053024292,4.47314977645874
1750559017014056200,10.48405615234375,0.21601249277591705,0.9322500228881836,5.129162311553955
1750559017023660000,10.493659912109376,0.42858749628067017,0.4129124879837036,5.758362293243408
1750559017033264000,10.50326416015625,0.6106374859809875,0.1307625025510788,6.151750087738037
1750559017042868000,10.512867919921876,0.6204000115394592,-0.35186249017715454,6.387562274932861
1750559017052472000,10.52247216796875,0.5227749943733215,-0.8392999768257141,6.438849925994873
1750559017062076000,10.532075927734375,0.4823499917984009,-1.1081124544143677,6.251987457275391
1750559017071680000,10.541679931640624,0.5348749756813049,-1.3719749450683594,5.887887477874756
1750559017081284000,10.5512841796875,0.6106374859809875,-1.7018375396728516,5.336925029754639
1750559017090888000,10.560887939453124,0.691349983215332,-1.918125033378601,4.633200168609619
1750559017100492000,10.570491943359375,0.7731624841690063,-1.9156500101089478,3.88423752784729
1750559017110096000,10.580095947265624,0.9589250087738037,-1.6785999536514282,3.2294623851776123
1750559017119699700,10.58969970703125,1.0785499811172485,-1.547837495803833,2.8091249465942383
1750559017129303800,10.5993037109375,1.0345499515533447,-1.5845500230789185,2.454925060272217
1750559017138907600,10.60890771484375,0.9136874675750732,-1.622362494468689,2.0162999629974365
1750559017148511700,10.61851171875,0.718162477016449,-1.7360750436782837,1.5789124965667725
1750559017158115800,10.62811572265625,0.5422999858856201,-1.797124981880188,1.1732875108718872
1750559017167719700,10.6377197265625,0.4725874960422516,-1.5673625469207764,0.7273749709129333
1750559017177323800,10.64732373046875,0.3993000090122223,-1.1691625118255615,0.2582249939441681
1750559017186927600,10.656927734375,0.3199625015258789,-0.7818250060081482,-0.24392500519752502
1750559017196531500,10.666531494140624,0.21848750114440918,-0.32133749127388,-0.8327000141143799
1750559017206135600,10.676135498046875,0.04496249929070473,0.2675749957561493,-1.4851374626159668
1750559017215739400,10.685739501953124,-0.1321374922990799,0.8784874677658081,-2.1228625774383545
1750559017225343500,10.695343505859375,-0.23594999313354492,1.3243999481201172,-2.7385873794555664
1750559017234947300,10.704947265625,-0.31776249408721924,1.3536875247955322,-3.3397374153137207
1750559017244551400,10.714551513671875,-0.41676250100135803,1.0078749656677246,-3.957937479019165
1750559017254155300,10.7241552734375,-0.5120499730110168,0.5046250224113464,-4.643237590789795
1750559017263759400,10.73375927734375,-0.607337474822998,-0.10752499848604202,-5.370200157165527
1750559017273363500,10.743363525390626,-0.6648125052452087,-0.5119125247001648,-6.094687461853027
1750559017282967000,10.752967041015625,-0.6330500245094299,-0.6877750158309937,-6.751937389373779
1750559017292571400,10.7625712890625,-0.40700000524520874,-0.6315374970436096,-7.279662609100342
1750559017302175200,10.77217529296875,0.15015000104904175,-0.547249972820282,-7.442187309265137
1750559017311779000,10.781779052734375,0.7474499940872192,-0.778249979019165,-6.9485626220703125
1750559017321383200,10.791383056640624,1.045549988746643,-1.0041625499725342,-5.863687515258789
1750559017330987000,10.800987060546875,1.111549973487854,-0.8893499970436096,-4.45761251449585
1750559017340591000,10.810591064453124,1.120074987411499,-0.45196250081062317,-2.975637435913086
1750559017350195000,10.82019482421875,1.002787470817566,0.18328750133514404,-1.6402374505996704
1750559017359799000,10.829799072265626,0.7841625213623047,0.8344874978065491,-0.6275500059127808
1750559017369403100,10.839403076171875,0.5838249921798706,1.251112461090088,0.04936249926686287
1750559017379007000,10.849007080078126,0.47011250257492065,1.4257375001907349,0.3937999904155731
1750559017388610800,10.85861083984375,0.4152500033378601,1.3914999961853027,0.4427500069141388
1750559017398215000,10.86821484375,0.39077499508857727,1.1130625009536743,0.29493749141693115
1750559017407819000,10.877819091796875,0.36629998683929443,0.6951999664306641,0.04936249926686287
1750559017417422800,10.8874228515625,0.32848748564720154,0.21876250207424164,-0.2096875011920929
1750559017427027000,10.89702685546875,0.2527250051498413,-0.24681249260902405,-0.4197874963283539
1750559017436630800,10.906630859375,0.16843749582767487,-0.4899125099182129,-0.5590749979019165
1750559017446235000,10.91623486328125,0.12925000488758087,-0.4483875036239624,-0.5773624777793884
1750559017455838700,10.925838623046875,0.08538749814033508,-0.24433749914169312,-0.4345000088214874
1750559017465442800,10.93544287109375,0.02419999986886978,0.04152499884366989,-0.196212500333786
1750559017475046700,10.945046630859375,-0.012374999932944775,0.3445749878883362,0.040837500244379044
1750559017484650800,10.954650634765626,-0.01966249942779541,0.5046250224113464,0.2129874974489212
1750559017494254600,10.964254638671875,-0.016087500378489494,0.49720001220703125,0.27293750643730164
1750559017503858700,10.973858642578126,-0.02956249937415123,0.3665750026702881,0.21793749928474426
1750559017513462500,10.983462646484375,-0.052662499248981476,0.16128750145435333,0.09088750183582306
1750559017523066600,10.993066650390626,-0.07466249912977219,-0.01952499896287918,-0.03368749842047691
1750559017532670700,11.002670654296875,-0.09418749809265137,-0.12209999561309814,-0.10339999943971634
1750559017542274600,11.012274658203125,-0.11137499660253525,-0.1428624987602234,-0.08387500047683716
1750559017551878700,11.021878662109375,-0.1260875016450882,-0.08181250095367432,-0.0031624999828636646
1750559017561482500,11.031482421875,-0.11137499660253525,0.00494999997317791,0.08470000326633453
1750559017571086600,11.041086669921874,-0.08332499861717224,0.07947500050067902,0.14217500388622284
1750559017580690400,11.0506904296875,-0.05884999781847,0.11976250261068344,0.1592250019311905
1750559017590294500,11.06029443359375,-0.038087498396635056,0.1368124932050705,0.15193749964237213
1750559017599898400,11.0698984375,-0.025849999859929085,0.1368124932050705,0.1494625061750412
1750559017609502500,11.07950244140625,-0.00989999994635582,0.10271249711513519,0.1531749963760376
1750559017619106300,11.089106201171875,0.020624998956918716,0.00976249948143959,0.14822499454021454
1750559017628710400,11.09871044921875,0.04619999974966049,-0.10257499665021896,0.133650004863739
1750559017638314200,11.108314208984375,0.062150001525878906,-0.15757499635219574,0.10546249896287918
1750559017647918300,11.11791845703125,0.07796250283718109,-0.1685750037431717,0.07864999771118164
1750559017657522400,11.1275224609375,0.09638749808073044,-0.1270499974489212,0.048124998807907104
1750559017667126300,11.137126220703125,0.10615000128746033,-0.02681249938905239,0.0028874999843537807
1750559017676730400,11.14673046875,0.09391249716281891,0.0672374963760376,-0.04592499881982803
1750559017686334000,11.156333984375,0.062150001525878906,0.11481250077486038,-0.09116250276565552
1750559017695938000,11.16593798828125,0.01691249944269657,0.09652499854564667,-0.10339999943971634
1750559017705542100,11.175542236328125,-0.035612501204013824,0.05252499878406525,-0.09968750178813934
1750559017715146000,11.18514599609375,-0.05637500062584877,0.020762499421834946,-0.0789249986410141
1750559017724750000,11.19475,-0.04661250114440918,0.01223750039935112,-0.03739999979734421
1750559017734354000,11.20435400390625,-0.018562499433755875,0.01718750037252903,0.006599999964237213
1750559017743958000,11.2139580078125,0.008387500420212746,0.006187499966472387,0.026124998927116394
1750559017753562000,11.22356201171875,0.025437500327825546,0.020762499421834946,-0.008112499490380287
1750559017763166000,11.233166015625,0.03891250118613243,0.04399999976158142,-0.06187500059604645
1750559017772770000,11.24277001953125,0.05719999969005585,0.030524998903274536,-0.09968750178813934
1750559017782373600,11.25237353515625,0.0681999996304512,0.0012374999932944775,-0.11811249703168869
1750559017791978000,11.26197802734375,0.0681999996304512,-0.032999999821186066,-0.12540000677108765
1750559017801581600,11.27158154296875,0.062150001525878906,-0.06833750009536743,-0.13021250069141388
1750559017811185700,11.281185546875,0.04619999974966049,-0.08181250095367432,-0.11316250264644623
1750559017820789500,11.29078955078125,0.027912499383091927,-0.07204999774694443,-0.06544999778270721
1750559017830393600,11.3003935546875,0.014437500387430191,-0.042762499302625656,-0.0031624999828636646
1750559017839997700,11.309997802734374,0.008387500420212746,0.01347499992698431,0.055412501096725464
1750559017849601500,11.3196015625,0.005912499967962503,0.07452499866485596,0.10312499850988388
1750559017859205600,11.32920556640625,-0.00013749999925494194,0.12828749418258667,0.1214125007390976
1750559017868809500,11.3388095703125,-0.013612499460577965,0.16128750145435333,0.10188750177621841
1750559017878413300,11.348413330078126,-0.02461249940097332,0.1588124930858612,0.06159999966621399
1750559017888017400,11.358017333984375,-0.03932499885559082,0.09652499854564667,0.02983750030398369
1750559017897621500,11.36762158203125,-0.0648999959230423,0.01718750037252903,0.0004124999977648258
1750559017907225300,11.377225341796875,-0.08689999580383301,-0.045237500220537186,-0.014162499457597733
1750559017916829200,11.3868291015625,-0.09418749809265137,-0.057337500154972076,-0.0056374999694526196
1750559017926433300,11.396433349609374,-0.08689999580383301,-0.0170499999076128,0.015124999918043613
1750559017936037400,11.406037353515625,-0.05884999781847,0.04895000159740448,0.040837500244379044
1750559017945641200,11.41564111328125,-0.03189999982714653,0.08799999952316284,0.06270000338554382
1750559017955245300,11.425245361328125,-0.00989999994635582,0.07452499866485596,0.06641250103712082
1750559017964849200,11.43484912109375,0.008387500420212746,0.04028749838471413,0.04193750023841858
1750559017974453200,11.444453369140625,0.022962499409914017,-0.0012374999932944775,0.012649999931454659
1750559017984057300,11.454057373046876,0.02914999984204769,-0.042762499302625656,-0.004399999976158142
1750559017993661200,11.4636611328125,0.02419999986886978,-0.032999999821186066,-0.011824999935925007
1750559018003265000,11.47326513671875,0.01209999993443489,-0.00976249948143959,-0.0019249999895691872
1750559018012868900,11.482868896484375,-0.007562499959021807,0.00494999997317791,0.013887500390410423
1750559018022473000,11.492472900390625,-0.01484999991953373,0.01718750037252903,0.021175000816583633
1750559018032077000,11.5020771484375,-0.002612499985843897,0.00976249948143959,0.01759999990463257
1750559018041681000,11.511680908203125,0.020624998956918716,-0.0085249999538064,-0.0031624999828636646
1750559018051284700,11.52128466796875,0.0364375002682209,-0.010999999940395355,-0.03135000169277191
1750559018060889000,11.53088916015625,0.05843750014901161,-0.023237500339746475,-0.0411125011742115
1750559018070492700,11.54049267578125,0.06338749825954437,-0.02928750030696392,-0.03492499887943268
1750559018080096800,11.5500966796875,0.05472499877214432,-0.04152499884366989,-0.021587500348687172
1750559018089700900,11.559700927734376,0.037675000727176666,-0.05128749832510948,-0.012924999929964542
1750559018099304700,11.5693046875,0.02186249941587448,-0.04881250113248825,-0.010587500408291817
1750559018108908800,11.57890869140625,0.008387500420212746,-0.020762499421834946,-0.015399999916553497
1750559018118512600,11.5885126953125,0.004674999974668026,0.030524998903274536,-0.030112499371170998
1750559018128116700,11.59811669921875,0.002199999988079071,0.07576250284910202,-0.0411125011742115
1750559018137720800,11.607720947265625,0.005912499967962503,0.08181250095367432,-0.0471624992787838
1750559018147324400,11.617324462890625,0.007149999961256981,0.059950001537799835,-0.06311249732971191
1750559018156928500,11.626928466796874,-0.007562499959021807,0.0317624993622303,-0.08511249721050262
1750559018166532400,11.636532470703125,-0.028324998915195465,0.0012374999932944775,-0.08387500047683716
1750559018176136400,11.646136474609374,-0.030662499368190765,-0.04399999976158142,-0.06435000151395798
1750559018185740500,11.655740478515625,-0.020899999886751175,-0.05252499878406525,-0.04235000163316727
1750559018195344400,11.665344482421874,-0.006324999965727329,-0.028049999848008156,-0.025162499397993088
1750559018204948500,11.674948486328125,-0.0013749999925494194,0.020762499421834946,-0.025162499397993088
1750559018214552300,11.68455224609375,-0.00013749999925494194,0.07328750193119049,-0.04358749836683273
1750559018224156400,11.694156494140625,-0.0013749999925494194,0.08923749625682831,-0.055687498301267624
1750559018233760000,11.703760009765626,-0.008799999952316284,0.05252499878406525,-0.04963750019669533
1750559018243364400,11.7133642578125,-0.011137500405311584,-0.0012374999932944775,-0.03616249933838844
1750559018252968200,11.72296826171875,-0.012374999932944775,-0.05376249924302101,-0.011824999935925007
1750559018262572000,11.732572021484375,-0.016087500378489494,-0.07081250101327896,0.013887500390410423
1750559018272176000,11.742176025390625,-0.02213750034570694,-0.05128749832510948,0.043175000697374344
