time,seconds_elapsed,z,y,x
1750559006603353300,0.073353271484375,5.7210001945495605,6.862950325012207,-0.28095000982284546
1750559006612957200,0.082957275390625,5.773950099945068,6.994950294494629,-0.43695002794265747
1750559006622561300,0.092561279296875,5.929050445556641,7.242000579833984,-0.6190500259399414
1750559006632165000,0.1021650390625,5.977050304412842,7.395000457763672,-0.6499500274658203
1750559006641769200,0.111769287109375,6.015000343322754,7.432950496673584,-0.583050012588501
1750559006651372800,0.121372802734375,6.157050132751465,7.2460503578186035,-0.3840000033378601
1750559006660977200,0.13097705078125,6.4009504318237305,6.993000507354736,-0.21195000410079956
1750559006670581000,0.1405810546875,6.729000091552734,6.760050296783447,-0.10905000567436218
1750559006680184800,0.150184814453125,6.978000164031982,6.59505033493042,-0.006000000052154064
1750559006689789000,0.159788818359375,6.9559502601623535,6.576000213623047,0.04800000041723251
1750559006699393000,0.16939306640625,6.9370503425598145,6.547050476074219,0.1489500105381012
1750559006708996900,0.178996826171875,6.919950485229492,6.472950458526611,0.3240000009536743
1750559006718601000,0.18860107421875,7.105050563812256,6.396000385284424,0.5779500007629395
1750559006728204500,0.19820458984375,7.7749505043029785,6.145050525665283,0.736050009727478
1750559006737808600,0.20780859375,8.52495002746582,5.841000080108643,0.6930000185966492
1750559006747412700,0.217412841796875,8.9170503616333,5.773950099945068,0.46995002031326294
1750559006757016600,0.2270166015625,9.11400032043457,5.898000240325928,0.23295001685619354
1750559006766620400,0.236620361328125,9.046950340270996,6.028050422668457,0.10605000704526901
1750559006776224500,0.246224609375,8.910000801086426,6.169050216674805,0.039000000804662704
1750559006785828400,0.255828369140625,8.731050491333008,6.270000457763672,0.019950000569224358
1750559006795432200,0.26543212890625,8.42400074005127,6.289050102233887,-0.010050000622868538
1750559006805036300,0.275036376953125,8.017050743103027,6.277050495147705,-0.003000000026077032
1750559006814640000,0.28464013671875,7.549950122833252,6.3100504875183105,0.09405000507831573
1750559006824244200,0.294244140625,7.324950218200684,6.3409504890441895,0.13500000536441803
1750559006833848300,0.303848388671875,7.2870001792907715,6.352950096130371,0.1270500123500824
1750559006843452000,0.313451904296875,7.240950107574463,6.349050521850586,0.1660500019788742
1750559006853056000,0.323055908203125,7.204950332641602,6.313050270080566,0.20595000684261322
1750559006862660000,0.33266015625,7.303950309753418,6.283950328826904,0.22095000743865967
1750559006872264000,0.342263916015625,7.4659504890441895,6.28095006942749,0.2160000056028366
1750559006881867800,0.35186767578125,7.576950550079346,6.259950160980225,0.2569500207901001
1750559006891472000,0.361471923828125,7.588050365447998,6.217050075531006,0.364950031042099
1750559006901075700,0.37107568359375,7.593000411987305,6.217050075531006,0.5389500260353088
1750559006910679800,0.3806796875,7.567050457000732,6.166950225830078,0.6540000438690186
1750559006920283600,0.39028369140625,7.573950290679932,6.078000068664551,0.736050009727478
1750559006929887700,0.3998876953125,7.6459503173828125,5.922000408172607,0.8070000410079956
1750559006939491600,0.40949169921875,7.636050224304199,5.901000499725342,0.8629500269889832
1750559006949095700,0.419095703125,7.629000186920166,5.994000434875488,0.8770500421524048
1750559006958699500,0.428699462890625,7.5960001945495605,6.046950340270996,0.8050500154495239
1750559006968303400,0.438303466796875,7.569000244140625,6.130950450897217,0.6180000305175781
1750559006977907500,0.447907470703125,7.569000244140625,6.193050384521484,0.48705002665519714
1750559006987511300,0.45751123046875,7.549950122833252,6.298050403594971,0.30705001950263977
1750559006997115400,0.467115478515625,7.72005033493042,6.403950214385986,0.013050000183284283
1750559007006719200,0.47671923828125,7.950000286102295,6.564000129699707,-0.2550000250339508
1750559007016323300,0.4863232421875,7.909050464630127,6.664950370788574,-0.3769500255584717
1750559007025927200,0.49592724609375,7.729950428009033,6.741000175476074,-0.36000001430511475
1750559007035531000,0.505531005859375,7.591050148010254,6.777000427246094,-0.2550000250339508
1750559007045135000,0.515135009765625,7.512000560760498,6.724050521850586,-0.17100000381469727
1750559007054739000,0.524739013671875,7.521000385284424,6.58305025100708,-0.07500000298023224
1750559007064342800,0.5343427734375,7.615050315856934,6.487050533294678,-0.05595000088214874
1750559007073947000,0.54394677734375,7.761000156402588,6.466050148010254,-0.11805000901222229
1750559007083551000,0.553551025390625,7.846950531005859,6.49500036239624,-0.14205001294612885
1750559007093154600,0.563154541015625,7.699050426483154,6.5400004386901855,-0.0970500037074089
1750559007102758700,0.572758544921875,7.440000534057617,6.553950309753418,-0.06795000284910202
1750559007112362500,0.582362548828125,7.264950275421143,6.535050392150879,0.040950000286102295
1750559007121966600,0.591966552734375,7.071000099182129,6.526050090789795,0.1080000028014183
1750559007131570400,0.6015703125,7.06695032119751,6.496950149536133,-0.00795000046491623
1750559007141174500,0.611174560546875,7.099950313568115,6.565950393676758,-0.21405000984668732
1750559007150778400,0.6207783203125,7.030950546264648,6.669000148773193,-0.37905001640319824
1750559007160382500,0.630382568359375,6.931950092315674,6.76800012588501,-0.41700002551078796
1750559007169986000,0.639986083984375,6.880050182342529,6.801000118255615,-0.4650000333786011
1750559007179590100,0.649590087890625,6.978000164031982,6.790950298309326,-0.44895002245903015
1750559007189194200,0.6591943359375,7.372950553894043,6.660000324249268,-0.3960000276565552
1750559007198798000,0.668798095703125,7.770000457763672,6.490050315856934,-0.3960000276565552
1750559007208402000,0.67840185546875,7.864050388336182,6.463050365447998,-0.33105000853538513
1750559007218006000,0.688006103515625,7.858950138092041,6.547050476074219,-0.20205001533031464
1750559007227610000,0.697610107421875,7.701000213623047,6.556950092315674,-0.10395000129938126
1750559007237214000,0.7072138671875,7.564950466156006,6.5590500831604,-0.06300000101327896
1750559007246817800,0.71681787109375,7.603050231933594,6.58305025100708,-0.09195000678300858
1750559007256422000,0.726421875,7.741950511932373,6.58305025100708,-0.21900001168251038
1750559007266025700,0.736025634765625,7.627050399780273,6.553950309753418,-0.30000001192092896
1750559007275629600,0.745629638671875,7.3660502433776855,6.625950336456299,-0.2639999985694885
1750559007285233700,0.755233642578125,7.16895055770874,6.69795036315918,-0.16395001113414764
1750559007294837500,0.76483740234375,7.081050395965576,6.681000232696533,-0.18300001323223114
1750559007304441600,0.774441650390625,7.093050479888916,6.6499505043029785,-0.18000000715255737
1750559007314045400,0.78404541015625,7.252950191497803,6.514050483703613,-0.06300000101327896
1750559007323649500,0.7936494140625,7.4760003089904785,6.352950096130371,0.025050001218914986
1750559007333253600,0.803253662109375,7.624050140380859,6.313050270080566,0.11295000463724136
1750559007342857200,0.812857177734375,7.70805025100708,6.427950382232666,0.10605000704526901
1750559007352461300,0.82246142578125,7.741950511932373,6.490050315856934,0.06495000422000885
1750559007362065400,0.8320654296875,7.531050205230713,6.5400004386901855,0.05595000088214874
1750559007371669200,0.841669189453125,7.146000385284424,6.669000148773193,0.11805000901222229
1750559007381273300,0.8512734375,6.9970502853393555,6.76800012588501,0.0990000069141388
1750559007390877200,0.860877197265625,6.918000221252441,6.727050304412842,-0.0580500029027462
1750559007400481300,0.870481201171875,6.901050090789795,6.739050388336182,-0.286050021648407
1750559007410084900,0.8800849609375,7.059000492095947,6.745950222015381,-0.492000013589859
1750559007419689000,0.88968896484375,7.180950164794922,6.796050548553467,-0.5989500284194946
1750559007429293300,0.899293212890625,7.201050281524658,6.790950298309326,-0.6070500016212463
1750559007438897000,0.90889697265625,7.1770501136779785,6.796050548553467,-0.48705002665519714
1750559007448501000,0.9185009765625,7.162050247192383,6.757950305938721,-0.3240000009536743
1750559007458104800,0.928104736328125,7.093050479888916,6.69795036315918,-0.18495000898838043
1750559007467709000,0.937708984375,7.0759501457214355,6.6190505027771,-0.1399500072002411
1750559007477313000,0.94731298828125,6.930000305175781,6.556950092315674,-0.15600000321865082
1750559007486916600,0.95691650390625,6.76200008392334,6.568950176239014,-0.1969500035047531
1750559007496520700,0.966520751953125,6.77400016784668,6.621000289916992,-0.19200000166893005
1750559007506124800,0.976124755859375,7.023000240325928,6.59505033493042,-0.027000000700354576
1750559007515728600,0.985728759765625,7.267950534820557,6.484950542449951,0.06795000284910202
1750559007525332700,0.995332763671875,7.5450005531311035,6.448950290679932,0.18300001323223114
1750559007534936600,1.0049365234375,7.593000411987305,6.250050067901611,0.22995001077651978
1750559007544540400,1.01454052734375,7.584000587463379,6.255000114440918,0.10605000704526901
1750559007554144500,1.02414453125,7.591050148010254,6.39900016784668,-0.10395000129938126
1750559007563748400,1.033748291015625,7.519050121307373,6.532950401306152,-0.21405000984668732
1750559007573352400,1.0433525390625,7.426050186157227,6.624000549316406,-0.22605000436306
1750559007582956300,1.052956298828125,7.300950527191162,6.5590500831604,-0.0580500029027462
1750559007592560400,1.062560302734375,7.1260504722595215,6.423000335693359,0.18495000898838043
1750559007602164200,1.072164306640625,7.1170501708984375,6.364950180053711,0.35295000672340393
1750559007611768300,1.081768310546875,7.203000545501709,6.375000476837158,0.36705002188682556
1750559007621372200,1.0913720703125,7.332000255584717,6.4110002517700195,0.24000000953674316
1750559007630976000,1.10097607421875,7.42995023727417,6.436950206756592,0.15405000746250153
1750559007640580400,1.110580322265625,7.5859503746032715,6.363000392913818,0.208950012922287
1750559007650184200,1.12018408203125,7.564950466156006,6.372000217437744,0.25905001163482666
1750559007659788000,1.1297880859375,7.4659504890441895,6.508950233459473,0.08895000070333481
1750559007669392100,1.13939208984375,7.480950355529785,6.652950286865234,-0.13500000536441803
1750559007678996000,1.148995849609375,7.234050273895264,6.696000099182129,-0.283050000667572
1750559007688599800,1.158599853515625,6.934950351715088,6.789000511169434,-0.35805001854896545
1750559007698204000,1.168203857421875,6.739050388336182,6.901950359344482,-0.4459500312805176
1750559007707807700,1.177807861328125,6.834000110626221,6.829950332641602,-0.42705002427101135
1750559007717411800,1.187411865234375,6.985050201416016,6.715050220489502,-0.31905001401901245
1750559007727015700,1.197015625,7.062000274658203,6.621000289916992,-0.19995000958442688
1750559007736619800,1.206619873046875,7.122000217437744,6.448950290679932,-0.039000000804662704
1750559007746223600,1.2162236328125,7.408950328826904,6.516000270843506,-0.12300000339746475
1750559007755827700,1.22582763671875,7.669950485229492,6.577950477600098,-0.3460500240325928
1750559007765431600,1.235431640625,7.7059502601623535,6.523050308227539,-0.4050000309944153
1750559007775035400,1.245035400390625,7.555050373077393,6.456000328063965,-0.31905001401901245
1750559007784639500,1.254639404296875,7.291950225830078,6.456000328063965,-0.17100000381469727
1750559007794243300,1.264243408203125,7.006950378417969,6.508950233459473,-0.027000000700354576
1750559007803847400,1.273847412109375,6.777000427246094,6.448950290679932,0.004950000438839197
1750559007813451500,1.283451416015625,6.777000427246094,6.454050540924072,-0.04200000315904617
1750559007823055000,1.29305517578125,6.901050090789795,6.499050140380859,-0.13695000112056732
1750559007832659200,1.3026591796875,6.730950355529785,6.50700044631958,-0.208950012922287
1750559007842263000,1.312262939453125,6.754950523376465,6.484950542449951,-0.13695000112056732
1750559007851867100,1.3218671875,7.134000301361084,6.418050289154053,-0.13005000352859497
1750559007861471200,1.33147119140625,7.6650004386901855,6.3919501304626465,-0.15405000746250153
1750559007871075000,1.341074951171875,7.737000465393066,6.339000225067139,-0.15195000171661377
1750559007880679200,1.35067919921875,7.564950466156006,6.420000076293945,-0.11295000463724136
1750559007890283000,1.360282958984375,7.320000171661377,6.538050174713135,-0.18495000898838043
1750559007899887000,1.36988720703125,7.038000106811523,6.6190505027771,-0.34800001978874207
1750559007909491200,1.3794912109375,6.8610005378723145,6.78000020980835,-0.5320500135421753
1750559007919095000,1.389094970703125,7.026000499725342,6.5209503173828125,-0.38895002007484436
1750559007928699000,1.398698974609375,7.512000560760498,6.094950199127197,0.22800001502037048
1750559007938302700,1.408302734375,7.411050319671631,6.89400053024292,-0.3859500288963318
1750559007947906800,1.41790673828125,7.81095027923584,6.729000091552734,-0.4050000309944153
1750559007957510700,1.4275107421875,8.355000495910645,6.142950057983398,-0.18300001323223114
1750559007967114800,1.43711474609375,8.050950050354004,6.199950218200684,-0.27105000615119934
1750559007976718800,1.44671875,7.3560004234313965,6.538050174713135,-0.3460500240325928
1750559007986322400,1.456322509765625,7.045050144195557,6.621000289916992,-0.2950500249862671
1750559007995926500,1.465926513671875,7.198050498962402,6.556950092315674,-0.325950026512146
1750559008005530400,1.4755302734375,7.308000564575195,5.985000133514404,-0.003000000026077032
1750559008015134500,1.485134521484375,7.656000137329102,6.862950325012207,-0.40995001792907715
1750559008024738300,1.49473828125,7.483050346374512,7.04295015335083,-0.6570000052452087
1750559008034342400,1.50434228515625,7.621950149536133,6.588000297546387,-0.5560500025749207
1750559008043946200,1.5139462890625,7.564950466156006,6.384000301361084,-0.36000001430511475
1750559008053550000,1.523550048828125,7.557000160217285,6.613950252532959,-0.38895002007484436
1750559008063154200,1.533154296875,7.678950309753418,6.645000457763672,-0.520050048828125
1750559008072758300,1.54275830078125,7.621950149536133,6.531000137329102,-0.6019500494003296
1750559008082362000,1.552362060546875,7.452000141143799,6.5809502601623535,-0.6469500064849854
1750559008091966200,1.56196630859375,7.354050159454346,6.6910505294799805,-0.62295001745224
1750559008101570000,1.571570068359375,7.258050441741943,6.69795036315918,-0.6640500426292419
1750559008111174100,1.581174072265625,7.131000518798828,6.624000549316406,-0.5040000081062317
1750559008120778000,1.590778076171875,6.991950511932373,6.492000102996826,-0.15900000929832458
1750559008130382000,1.600382080078125,6.934950351715088,6.343950271606445,0.1660500019788742
1750559008139986200,1.609986083984375,7.083000183105469,6.166950225830078,0.3379500210285187
1750559008149589800,1.61958984375,7.498050212860107,6.1810503005981445,0.18300001323223114
1750559008159193900,1.62919384765625,7.8160505294799805,6.435000419616699,-0.20400001108646393
1750559008168798000,1.6387978515625,7.912050247192383,6.625950336456299,-0.5250000357627869
1750559008178401800,1.64840185546875,7.660050392150879,6.712050437927246,-0.6160500049591064
1750559008188006000,1.658005859375,7.215000152587891,6.2719502449035645,-0.07695000618696213
1750559008197609700,1.667609619140625,7.027950286865234,6.484950542449951,-0.22605000436306
1750559008207213600,1.677213623046875,6.837000370025635,6.423000335693359,-0.2689500153064728
1750559008216817700,1.686817626953125,7.003950119018555,6.394050121307373,-0.17805001139640808
1750559008226421500,1.69642138671875,7.240950107574463,6.4009504318237305,-0.1680000126361847
1750559008236025600,1.706025634765625,7.42995023727417,6.352950096130371,-0.15405000746250153
1750559008245629700,1.715629638671875,7.432950496673584,6.199950218200684,0.016950000077486038
1750559008255233500,1.725233642578125,7.414050579071045,6.103950500488281,0.09195000678300858
1750559008264837400,1.73483740234375,7.498050212860107,6.025050163269043,0.19005000591278076
1750559008274441500,1.74444140625,7.641000270843506,6.211950302124023,-0.0580500029027462
1750559008284045600,1.754045654296875,7.813950538635254,6.454050540924072,-0.41505002975463867
1750559008293649200,1.763649169921875,7.711050510406494,6.576000213623047,-0.5179499983787537
1750559008303253200,1.773253173828125,7.471050262451172,6.5590500831604,-0.42900002002716064
1750559008312857300,1.782857421875,7.348950386047363,6.535050392150879,-0.364950031042099
1750559008322461200,1.792461181640625,7.315950393676758,6.610050201416016,-0.4650000333786011
1750559008332065300,1.802065185546875,7.399050235748291,6.612000465393066,-0.5080500245094299
1750559008341669400,1.81166943359375,7.509000301361084,6.588000297546387,-0.5400000214576721
1750559008351273200,1.821273193359375,7.588050365447998,6.613950252532959,-0.625950038433075
1750559008360877300,1.830877197265625,7.555050373077393,6.684000492095947,-0.6400500535964966
1750559008370481000,1.84048095703125,7.513950347900391,6.6409502029418945,-0.5779500007629395
1750559008380085000,1.8500849609375,7.320000171661377,6.589950084686279,-0.4510500133037567
1750559008389689000,1.859689208984375,7.090050220489502,6.586050510406494,-0.37905001640319824
1750559008399293000,1.86929296875,7.14300012588501,6.564000129699707,-0.31905001401901245
1750559008408897000,1.87889697265625,7.234050273895264,6.535050392150879,-0.33105000853538513
1750559008418500900,1.8885009765625,7.342050552368164,6.58305025100708,-0.41505002975463867
1750559008428105000,1.89810498046875,7.407000541687012,6.598050117492676,-0.46095001697540283
1750559008437709000,1.907708984375,7.41795015335083,6.4710001945495605,-0.30705001950263977
1750559008447313000,1.91731298828125,7.477950572967529,6.289050102233887,0.025050001218914986
1750559008456916700,1.926916748046875,7.464000225067139,6.223950386047363,0.18300001323223114
1750559008466520800,1.936520751953125,7.44195032119751,6.23805046081543,0.14205001294612885
1750559008476124700,1.946124755859375,7.498050212860107,6.364950180053711,-0.039000000804662704
1750559008485728500,1.955728515625,7.52400016784668,6.41295051574707,-0.26205000281333923
1750559008495332600,1.96533251953125,7.548000335693359,6.49500036239624,-0.3739500045776367
1750559008504936400,1.9749365234375,7.543050289154053,6.451050281524658,-0.3460500240325928
1750559008514540500,1.98454052734375,7.428000450134277,6.424950122833252,-0.3049500286579132
1750559008524144600,1.99414453125,7.411050319671631,6.427950382232666,-0.27105000615119934
1750559008533748200,2.003748291015625,7.483050346374512,6.420000076293945,-0.2880000174045563
1750559008543352600,2.0133525390625,7.507050514221191,6.384000301361084,-0.3240000009536743
1750559008552956400,2.022956298828125,7.512000560760498,6.375000476837158,-0.3169500231742859
1750559008562560300,2.032560302734375,7.440000534057617,6.430050373077393,-0.325950026512146
1750559008572164400,2.042164306640625,7.311000347137451,6.528000354766846,-0.2670000195503235
1750559008581768200,2.051768310546875,7.16895055770874,6.531000137329102,-0.19005000591278076
1750559008591372300,2.061372314453125,7.114050388336182,6.523050308227539,-0.17100000381469727
1750559008600976100,2.07097607421875,7.153050422668457,6.535050392150879,-0.16095000505447388
1750559008610580200,2.080580322265625,7.255950450897217,6.499050140380859,-0.23100000619888306
1750559008620184000,2.09018408203125,7.318050384521484,6.4710001945495605,-0.29805001616477966
1750559008629788200,2.0997880859375,7.303950309753418,6.5209503173828125,-0.3139500021934509
1750559008639392300,2.109392333984375,7.153050422668457,6.574050426483154,-0.30705001950263977
1750559008648996000,2.11899609375,7.051950454711914,6.58305025100708,-0.26205000281333923
1750559008658600000,2.128599853515625,7.014000415802002,6.5620503425598145,-0.22305001318454742
1750559008668204000,2.1382041015625,7.0570502281188965,6.5209503173828125,-0.19500000774860382
1750559008677808000,2.14780810546875,7.228950500488281,6.516000270843506,-0.18495000898838043
1750559008687412000,2.157411865234375,7.315950393676758,6.444000244140625,-0.19995000958442688
1750559008697016000,2.16701611328125,7.414050579071045,6.394050121307373,-0.18300001323223114
1750559008706619600,2.17661962890625,7.440000534057617,6.406050205230713,-0.19200000166893005
1750559008716223700,2.1862236328125,7.492950439453125,6.459000110626221,-0.16095000505447388
1750559008725827800,2.195827880859375,7.395000457763672,6.463050365447998,-0.0970500037074089
1750559008735431700,2.205431640625,7.252950191497803,6.432000160217285,-0.006000000052154064
1750559008745035800,2.215035888671875,7.215000152587891,6.3409504890441895,-0.030000001192092896
1750559008754639600,2.2246396484375,7.395000457763672,6.30495023727417,-0.08895000070333481
1750559008764243700,2.23424365234375,7.477950572967529,6.298050403594971,-0.1879500150680542
1750559008773847800,2.243847900390625,7.509000301361084,6.334050178527832,-0.29805001616477966
1750559008783451600,2.25345166015625,7.428000450134277,6.4710001945495605,-0.3840000033378601
1750559008793055700,2.2630556640625,7.407000541687012,6.5400004386901855,-0.39795002341270447
1750559008802659600,2.27265966796875,7.420950412750244,6.466050148010254,-0.286050021648407
1750559008812263400,2.282263427734375,7.4760003089904785,6.361050128936768,-0.08205000311136246
1750559008821867500,2.291867431640625,7.474050521850586,6.234000205993652,0.036000002175569534
1750559008831471400,2.301471435546875,7.468950271606445,6.23805046081543,0.0010500000789761543
1750559008841075500,2.311075439453125,7.462050437927246,6.319950103759766,-0.09405000507831573
1750559008850679300,2.32067919921875,7.414050579071045,6.375000476837158,-0.13695000112056732
1750559008860283400,2.330283447265625,7.378050327301025,6.420000076293945,-0.19500000774860382
1750559008869887200,2.33988720703125,7.342050552368164,6.492000102996826,-0.27900001406669617
1750559008879491300,2.3494912109375,7.372950553894043,6.574050426483154,-0.42900002002716064
1750559008889095400,2.359095458984375,7.462050437927246,6.531000137329102,-0.47700002789497375
1750559008898699000,2.368698974609375,7.444950580596924,6.468000411987305,-0.3960000276565552
1750559008908303000,2.37830322265625,7.318050384521484,6.403950214385986,-0.25905001163482666
1750559008917907200,2.3879072265625,7.35105037689209,6.315000534057617,-0.10095000267028809
1750559008927511000,2.397510986328125,7.450050354003906,6.30495023727417,-0.0990000069141388
1750559008937115100,2.407115234375,7.593000411987305,6.349050521850586,-0.09405000507831573
1750559008946719000,2.416718994140625,7.699050426483154,6.364950180053711,-0.15405000746250153
1750559008956323000,2.426322998046875,7.902000427246094,6.388950347900391,-0.20205001533031464
1750559008965927000,2.435927001953125,7.948050498962402,6.372000217437744,-0.1680000126361847
1750559008975530800,2.44553076171875,7.7470502853393555,6.303000450134277,-0.11595000326633453
1750559008985134800,2.455134765625,7.501950263977051,6.289050102233887,-0.018000001087784767
1750559008994738700,2.46473876953125,7.4160003662109375,6.303000450134277,0.04605000093579292
1750559009004342800,2.4743427734375,7.407000541687012,6.298050403594971,0.022050000727176666
1750559009013947000,2.48394677734375,7.548000335693359,6.376950263977051,-0.12105000764131546
1750559009023550700,2.49355078125,7.621950149536133,6.396000385284424,-0.1399500072002411
1750559009033154800,2.50315478515625,7.440000534057617,6.3510003089904785,-0.0990000069141388
1750559009042758700,2.512758544921875,7.228950500488281,6.339000225067139,0.015000000596046448
1750559009052362800,2.52236279296875,7.131000518798828,6.3100504875183105,0.022050000727176666
1750559009061966600,2.531966552734375,7.23900032043457,6.325050354003906,-0.06105000153183937
1750559009071570400,2.5415703125,7.41795015335083,6.3919501304626465,-0.15405000746250153
1750559009081174500,2.551174560546875,7.615050315856934,6.403950214385986,-0.24300001561641693
1750559009090778400,2.5607783203125,7.6870503425598145,6.415950298309326,-0.2760000228881836
1750559009100382500,2.570382568359375,7.617000579833984,6.38700008392334,-0.20400001108646393
1750559009109986600,2.579986572265625,7.5360002517700195,6.343950271606445,-0.19005000591278076
1750559009119590400,2.58959033203125,7.521000385284424,6.361050128936768,-0.24705001711845398
1750559009129194500,2.599194580078125,7.474050521850586,6.3510003089904785,-0.25005000829696655
1750559009138798300,2.60879833984375,7.390050411224365,6.367950439453125,-0.3139500021934509
1750559009148402200,2.618402099609375,7.380000114440918,6.4110002517700195,-0.31005001068115234
1750559009158006500,2.628006591796875,7.330050468444824,6.4009504318237305,-0.2880000174045563
1750559009167610400,2.6376103515625,7.288950443267822,6.415950298309326,-0.2670000195503235
1750559009177214200,2.647214111328125,7.404000282287598,6.376950263977051,-0.22800001502037048
1750559009186818300,2.656818359375,7.629000186920166,6.379950523376465,-0.2160000056028366
1750559009196422100,2.666422119140625,7.881000518798828,6.358050346374512,-0.27900001406669617
1750559009206026000,2.67602587890625,7.942950248718262,6.303000450134277,-0.2740500271320343
1750559009215630000,2.685630126953125,7.869000434875488,6.267000198364258,-0.1489500105381012
1750559009225234200,2.695234130859375,7.723050594329834,6.2910003662109375,-0.0970500037074089
1750559009234838000,2.704838134765625,7.560000419616699,6.289050102233887,-0.031950000673532486
1750559009244442000,2.714442138671875,7.371000289916992,6.325050354003906,-0.043950002640485764
1750559009254046000,2.7240458984375,7.216950416564941,6.376950263977051,-0.12105000764131546
1750559009263649800,2.73364990234375,7.215000152587891,6.472950458526611,-0.25200000405311584
1750559009273254000,2.74325390625,7.165050506591797,6.424950122833252,-0.12105000764131546
1750559009282857700,2.752857666015625,7.27500057220459,6.370050430297852,-0.034050002694129944
1750559009292461800,2.7624619140625,7.371000289916992,6.358050346374512,0.019950000569224358
1750559009302066000,2.77206591796875,7.452000141143799,6.388950347900391,-0.05400000140070915
1750559009311669800,2.781669677734375,7.474050521850586,6.444000244140625,-0.15195000171661377
1750559009321273900,2.79127392578125,7.2870001792907715,6.451050281524658,-0.19005000591278076
1750559009330877700,2.800877685546875,7.219950199127197,6.463050365447998,-0.22605000436306
1750559009340481800,2.810481689453125,7.2870001792907715,6.408000469207764,-0.2350500077009201
1750559009350085600,2.820085693359375,7.390050411224365,6.376950263977051,-0.23805001378059387
1750559009359689700,2.829689697265625,7.564950466156006,6.396000385284424,-0.22095000743865967
1750559009369293600,2.83929345703125,7.569000244140625,6.451050281524658,-0.22800001502037048
1750559009378897700,2.848897705078125,7.4659504890441895,6.523050308227539,-0.22095000743865967
1750559009388501500,2.85850146484375,7.464000225067139,6.511050224304199,-0.24000000953674316
1750559009398105600,2.868105712890625,7.5259504318237305,6.447000503540039,-0.2689500153064728
1750559009407709400,2.87770947265625,7.4659504890441895,6.388950347900391,-0.2569500207901001
1750559009417313500,2.8873134765625,7.432950496673584,6.358050346374512,-0.2160000056028366
1750559009426917400,2.89691748046875,7.450050354003906,6.423000335693359,-0.1879500150680542
1750559009436521200,2.906521240234375,7.471050262451172,6.432000160217285,-0.19500000774860382
1750559009446125600,2.91612548828125,7.44705057144165,6.406050205230713,-0.25005000829696655
1750559009455729400,2.9257294921875,7.3660502433776855,6.38700008392334,-0.208950012922287
1750559009465333200,2.935333251953125,7.332000255584717,6.358050346374512,-0.17595000565052032
1750559009474937300,2.944937255859375,7.423050403594971,6.337050437927246,-0.21195000410079956
1750559009484541200,2.954541259765625,7.438050270080566,6.358050346374512,-0.208950012922287
1750559009494145300,2.964145263671875,7.512000560760498,6.364950180053711,-0.1879500150680542
1750559009503749400,2.973749267578125,7.62000036239624,6.255000114440918,-0.08895000070333481
1750559009513353000,2.98335302734375,7.5450005531311035,6.246000289916992,0.003000000026077032
1750559009522957000,2.99295703125,7.414050579071045,6.327000141143799,0.043950002640485764
1750559009532561400,3.0025615234375,7.390050411224365,6.382050514221191,-0.022050000727176666
1750559009542165000,3.0121650390625,7.330050468444824,6.415950298309326,-0.20400001108646393
1750559009551769000,3.02176904296875,7.33905029296875,6.435000419616699,-0.33105000853538513
1750559009561373200,3.031373291015625,7.426050186157227,6.406050205230713,-0.40995001792907715
1750559009570977000,3.04097705078125,7.498050212860107,6.364950180053711,-0.364950031042099
1750559009580580900,3.050580810546875,7.513950347900391,6.355950355529785,-0.21195000410079956
1750559009590185000,3.06018505859375,7.52400016784668,6.322050094604492,-0.06495000422000885
1750559009599789000,3.0697890625,7.573950290679932,6.313050270080566,-0.015000000596046448
1750559009609393000,3.079392822265625,7.7059502601623535,6.352950096130371,-0.0970500037074089
1750559009618997000,3.0889970703125,7.762950420379639,6.334050178527832,-0.07304999977350235
1750559009628600800,3.098600830078125,7.762950420379639,6.262050151824951,-0.07005000114440918
1750559009638204700,3.10820458984375,7.758000373840332,6.210000514984131,0.0010500000789761543
1750559009647808800,3.117808837890625,7.72005033493042,6.195000171661377,0.06000000238418579
1750559009657412900,3.127412841796875,7.717950344085693,6.199950218200684,0.040950000286102295
1750559009667016700,3.1370166015625,7.6050004959106445,6.262050151824951,-0.025050001218914986
1750559009676620800,3.146620849609375,7.488000392913818,6.277050495147705,-0.06105000153183937
1750559009686224600,3.156224609375,7.471050262451172,6.243000507354736,-0.10905000567436218
1750559009695828700,3.165828857421875,7.4160003662109375,6.250050067901611,-0.11100000888109207
1750559009705432300,3.175432373046875,7.474050521850586,6.234000205993652,-0.09195000678300858
1750559009715036400,3.185036376953125,7.438050270080566,6.186000347137451,-0.010050000622868538
1750559009724640500,3.194640625,7.344000339508057,6.235950469970703,0.0799500048160553
1750559009734244400,3.204244384765625,7.219950199127197,6.265050411224365,0.17805001139640808
1750559009743848200,3.21384814453125,7.07895040512085,6.307950496673584,0.12300000339746475
1750559009753452300,3.223452392578125,7.111950397491455,6.388950347900391,0.022050000727176666
1750559009763056400,3.233056396484375,7.279950141906738,6.403950214385986,-0.037050001323223114
1750559009772660200,3.24266015625,7.464000225067139,6.315000534057617,-0.06105000153183937
1750559009782264300,3.252264404296875,7.657950401306152,6.3510003089904785,-0.2689500153064728
1750559009791868200,3.2618681640625,7.828050136566162,6.478050231933594,-0.48000001907348633
1750559009801472000,3.271471923828125,7.837050437927246,6.541950225830078,-0.6070500016212463
1750559009811076000,3.281076171875,7.684050559997559,6.553950309753418,-0.5490000247955322
1750559009820680000,3.290679931640625,7.621950149536133,6.516000270843506,-0.3460500240325928
1750559009830284000,3.300283935546875,7.600050449371338,6.361050128936768,-0.1879500150680542
1750559009839888100,3.30988818359375,7.567050457000732,6.298050403594971,-0.11100000888109207
1750559009849492000,3.319491943359375,7.53795051574707,6.327000141143799,-0.039000000804662704
1750559009859096000,3.329095947265625,7.501950263977051,6.423000335693359,-0.1879500150680542
1750559009868700000,3.338699951171875,7.615050315856934,6.5400004386901855,-0.4320000112056732
1750559009878304000,3.348303955078125,7.653000354766846,6.541950225830078,-0.5110500454902649
1750559009887907800,3.357907958984375,7.63200044631958,6.535050392150879,-0.5320500135421753
1750559009897512000,3.367511962890625,7.617000579833984,6.456000328063965,-0.4410000145435333
1750559009907115800,3.37711572265625,7.486050128936768,6.355950355529785,-0.24300001561641693
1750559009916719600,3.3867197265625,7.411050319671631,6.298050403594971,-0.04905000329017639
1750559009926323700,3.39632373046875,7.359000205993652,6.277050495147705,0.08205000311136246
1750559009935927600,3.405927490234375,7.420950412750244,6.279000282287598,0.05595000088214874
1750559009945531600,3.41553173828125,7.52400016784668,6.265050411224365,-0.04200000315904617
1750559009955135700,3.4251357421875,7.53795051574707,6.286050319671631,-0.18000000715255737
1750559009964739600,3.434739501953125,7.521000385284424,6.30495023727417,-0.23295001685619354
1750559009974343700,3.44434375,7.5169501304626465,6.319950103759766,-0.20205001533031464
1750559009983947500,3.453947509765625,7.474050521850586,6.298050403594971,-0.003000000026077032
1750559009993551400,3.46355126953125,7.402050495147705,6.289050102233887,0.20400001108646393
1750559010003155500,3.473155517578125,7.452000141143799,6.265050411224365,0.2659500241279602
1750559010012759300,3.48275927734375,7.581000328063965,6.198000431060791,0.040950000286102295
1750559010022363400,3.49236328125,7.540950298309326,6.267000198364258,-0.09405000507831573
1750559010031967500,3.501967529296875,7.617000579833984,6.298050403594971,-0.30705001950263977
1750559010041571300,3.5115712890625,7.629000186920166,6.3319501876831055,-0.46800002455711365
1750559010051175200,3.521175048828125,7.588050365447998,6.436950206756592,-0.45600003004074097
1750559010060779300,3.530779296875,7.4760003089904785,6.478050231933594,-0.3049500286579132
1750559010070383400,3.54038330078125,7.420950412750244,6.39900016784668,-0.15600000321865082
1750559010079987200,3.5499873046875,7.440000534057617,6.3409504890441895,-0.0799500048160553
1750559010089591300,3.55959130859375,7.395000457763672,6.295950412750244,-0.022050000727176666
1750559010099195100,3.569195068359375,7.426050186157227,6.303000450134277,-0.04905000329017639
1750559010108799200,3.57879931640625,7.432950496673584,6.3510003089904785,-0.0990000069141388
1750559010118403300,3.5884033203125,7.384950160980225,6.363000392913818,-0.022050000727176666
1750559010128007200,3.598007080078125,7.330050468444824,6.4009504318237305,0.040950000286102295
1750559010137611000,3.607611083984375,7.303950309753418,6.364950180053711,0.06795000284910202
1750559010147215000,3.617215087890625,7.404000282287598,6.303000450134277,0.036000002175569534
1750559010156819000,3.62681884765625,7.513950347900391,6.2310004234313965,0.013050000183284283
1750559010166423000,3.636423095703125,7.504950523376465,6.195000171661377,0.0010500000789761543
1750559010176027000,3.64602685546875,7.5360002517700195,6.23805046081543,0.00795000046491623
1750559010185631000,3.655630859375,7.5259504318237305,6.315000534057617,-0.07500000298023224
1750559010195234800,3.66523486328125,7.452000141143799,6.424950122833252,-0.0799500048160553
1750559010204838700,3.674838623046875,7.344000339508057,6.3919501304626465,-0.010050000622868538
1750559010214443000,3.684443115234375,7.387050151824951,6.313050270080566,0.019950000569224358
1750559010224046800,3.694046875,7.407000541687012,6.313050270080566,-0.025050001218914986
1750559010233650700,3.703650634765625,7.452000141143799,6.322050094604492,-0.08505000174045563
1750559010243254800,3.7132548828125,7.468950271606445,6.3100504875183105,-0.16395001113414764
1750559010252859000,3.72285888671875,7.371000289916992,6.343950271606445,-0.13500000536441803
1750559010262462700,3.732462646484375,7.378050327301025,6.367950439453125,-0.13305000960826874
1750559010272066800,3.74206689453125,7.533000469207764,6.301050186157227,-0.07695000618696213
1750559010281670700,3.751670654296875,7.678950309753418,6.205050468444824,-0.10905000567436218
1750559010291274800,3.761274658203125,7.780050277709961,6.1810503005981445,-0.08700000494718552
1750559010300878600,3.770878662109375,7.7440505027771,6.142950057983398,-0.04905000329017639
1750559010310482400,3.780482421875,7.64400053024292,6.2410502433776855,-0.06300000101327896
1750559010320086500,3.79008642578125,7.5259504318237305,6.361050128936768,-0.039000000804662704
1750559010329690600,3.799690673828125,7.444950580596924,6.370050430297852,-0.037050001323223114
1750559010339294500,3.80929443359375,7.438050270080566,6.315000534057617,0.06495000422000885
1750559010348898600,3.818898681640625,7.407000541687012,6.246000289916992,0.15600000321865082
1750559010358502400,3.82850244140625,7.438050270080566,6.2310004234313965,0.1489500105381012
1750559010368106500,3.8381064453125,7.404000282287598,6.283950328826904,0.039000000804662704
1750559010377710600,3.847710693359375,7.332000255584717,6.384000301361084,-0.06495000422000885
1750559010387314400,3.857314453125,7.327950477600098,6.499050140380859,-0.2160000056028366
1750559010396918500,3.86691845703125,7.477950572967529,6.49500036239624,-0.34800001978874207
1750559010406522000,3.876522216796875,7.624050140380859,6.418050289154053,-0.35805001854896545
1750559010416126200,3.886126220703125,7.624050140380859,6.325050354003906,-0.30705001950263977
1750559010425730300,3.895730224609375,7.617000579833984,6.229050159454346,-0.21900001168251038
1750559010435334100,3.905334228515625,7.543050289154053,6.322050094604492,-0.0970500037074089
1750559010444938200,3.914938232421875,7.426050186157227,6.396000385284424,-0.10395000129938126
1750559010454542000,3.9245419921875,7.408950328826904,6.41295051574707,-0.06105000153183937
1750559010464146200,3.934146240234375,7.533000469207764,6.355950355529785,-0.04905000329017639
1750559010473750000,3.94375,7.7059502601623535,6.267000198364258,-0.07304999977350235
1750559010483354000,3.95335400390625,7.809000492095947,6.130950450897217,-0.018000001087784767
1750559010492958200,3.962958251953125,7.8349504470825195,6.133050441741943,0.003000000026077032
1750559010502562000,3.97256201171875,7.711050510406494,6.267000198364258,0.010050000622868538
1750559010512166000,3.982165771484375,7.591050148010254,6.295950412750244,-0.037050001323223114
1750559010521770000,3.99177001953125,7.555050373077393,6.334050178527832,-0.16395001113414764
1750559010531373800,4.001373779296875,7.492950439453125,6.367950439453125,-0.21195000410079956
1750559010540978200,4.010978271484375,7.462050437927246,6.367950439453125,-0.283050000667572
1750559010550582000,4.02058203125,7.404000282287598,6.361050128936768,-0.3960000276565552
1750559010560185900,4.030185791015625,7.359000205993652,6.475050449371338,-0.42900002002716064
1750559010569789700,4.039789794921875,7.404000282287598,6.492000102996826,-0.41700002551078796
1750559010579393800,4.049393798828125,7.488000392913818,6.448950290679932,-0.3169500231742859
1750559010588998000,4.058997802734375,7.4350504875183105,6.382050514221191,-0.16095000505447388
1750559010598601700,4.068601806640625,7.483050346374512,6.337050437927246,-0.06495000422000885
1750559010608205800,4.078205810546875,7.576950550079346,6.274050235748291,-0.019950000569224358
1750559010617810000,4.087809814453125,7.629000186920166,6.235950469970703,-0.06105000153183937
1750559010627413800,4.097413818359375,7.576950550079346,6.289050102233887,-0.16395001113414764
1750559010637017600,4.107017578125,7.423050403594971,6.363000392913818,-0.17100000381469727
1750559010646621400,4.116621337890625,7.3470001220703125,6.394050121307373,-0.11295000463724136
1750559010656225500,4.1262255859375,7.378050327301025,6.396000385284424,-0.031950000673532486
1750559010665829600,4.13582958984375,7.41795015335083,6.32895040512085,0.06300000101327896
1750559010675433500,4.14543359375,7.5259504318237305,6.210000514984131,0.039000000804662704
1750559010685037600,4.15503759765625,7.636050224304199,6.100050449371338,0.027000000700354576
1750559010694641400,4.164641357421875,7.648050308227539,6.055950164794922,0.027000000700354576
1750559010704245500,4.17424560546875,7.666950225830078,6.145050525665283,-0.034050002694129944
1750559010713849600,4.183849609375,7.701000213623047,6.20205020904541,-0.06105000153183937
1750559010723453400,4.193453369140625,7.689000129699707,6.205050468444824,-0.11295000463724136
1750559010733057300,4.203057373046875,7.597950458526611,6.246000289916992,-0.1469999998807907
1750559010742661600,4.21266162109375,7.4760003089904785,6.262050151824951,-0.12300000339746475
1750559010752265200,4.22226513671875,7.392000198364258,6.22605037689209,-0.09405000507831573
1750559010761869300,4.231869384765625,7.248000144958496,6.217050075531006,-0.11100000888109207
1750559010771473200,4.24147314453125,7.123950481414795,6.2910003662109375,-0.17595000565052032
1750559010781077200,4.2510771484375,7.119000434875488,6.382050514221191,-0.11100000888109207
1750559010790681300,4.260681396484375,7.1860504150390625,6.388950347900391,-0.039000000804662704
1750559010800285200,4.27028515625,7.299000263214111,6.283950328826904,0.07005000114440918
1750559010809889300,4.27988916015625,7.45395040512085,6.243000507354736,0.08700000494718552
1750559010819493000,4.2894931640625,7.513950347900391,6.205050468444824,-0.031950000673532486
1750559010829097200,4.29909716796875,7.576950550079346,6.289050102233887,-0.22305001318454742
1750559010838701000,4.308701171875,7.521000385284424,6.367950439453125,-0.2950500249862671
1750559010848305200,4.31830517578125,7.372950553894043,6.439950466156006,-0.37005001306533813
1750559010857909000,4.327908935546875,7.204950332641602,6.4830002784729,-0.40800002217292786
1750559010867513000,4.33751318359375,7.114050388336182,6.478050231933594,-0.34995001554489136
1750559010877117000,4.347116943359375,7.087950229644775,6.418050289154053,-0.12105000764131546
1750559010886721000,4.356720947265625,7.0759501457214355,6.408000469207764,0.015000000596046448
1750559010896324900,4.366324951171875,7.011000156402588,6.420000076293945,0.14205001294612885
1750559010905929000,4.375928955078125,6.694950103759766,6.475050449371338,0.24705001711845398
1750559010915532800,4.38553271484375,6.643050193786621,6.601950168609619,0.19200000166893005
1750559010925137000,4.395136962890625,6.50100040435791,6.664950370788574,0.24000000953674316
1750559010934740700,4.40474072265625,6.376950263977051,6.5590500831604,0.17805001139640808
1750559010944344600,4.414344482421875,6.511050224304199,6.466050148010254,0.2970000207424164
1750559010953948700,4.42394873046875,6.205050468444824,6.418050289154053,0.7999500632286072
1750559010963552800,4.433552734375,5.731050491333008,6.352950096130371,1.2960000038146973
1750559010973156600,4.443156494140625,5.6610002517700195,6.538050174713135,1.1830500364303589
1750559010982760700,4.4527607421875,8.215950012207031,7.3660502433776855,0.08205000311136246
1750559010992364800,4.46236474609375,12.451050758361816,7.609950542449951,-0.6070500016212463
1750559011001968600,4.47196875,18.5179500579834,7.627050399780273,-1.6669501066207886
1750559011011572700,4.48157275390625,25.018951416015625,6.613950252532959,-2.674950122833252
1750559011021176600,4.491176513671875,26.487001419067383,4.681950092315674,-3.264000177383423
1750559011030780700,4.50078076171875,25.906951904296875,3.207000255584717,-2.2009501457214355
1750559011040384500,4.510384521484375,23.214000701904297,2.605950117111206,-0.5749500393867493
1750559011049988600,4.519988525390625,20.509950637817383,2.7400500774383545,-0.31005001068115234
1750559011059592700,4.5295927734375,19.540950775146484,3.085050106048584,-1.4970000982284546
1750559011069196500,4.539196533203125,16.665000915527344,2.9290502071380615,-2.6269500255584717
1750559011078800600,4.548800537109375,14.484001159667969,3.046950101852417,-3.376950263977051
1750559011088404500,4.558404541015625,13.761000633239746,1.7989500761032104,-2.5480501651763916
1750559011098008300,4.56800830078125,10.603050231933594,1.048050045967102,-2.074050188064575
1750559011107612400,4.5776123046875,6.865050315856934,1.5670500993728638,-1.8400501012802124
1750559011117216300,4.58721630859375,2.4810001850128174,2.8410000801086426,-2.0689501762390137
1750559011126820400,4.5968203125,-2.968950033187866,4.974000453948975,-1.902000069618225
1750559011136424200,4.606424072265625,-6.805050373077393,6.064050197601318,-0.8650500178337097
1750559011146028300,4.6160283203125,-9.003000259399414,6.364950180053711,0.010050000622868538
1750559011155632400,4.62563232421875,-9.961050033569336,6.724050521850586,0.8359500169754028
1750559011165236000,4.635236083984375,-10.843950271606445,6.942000389099121,1.2529500722885132
1750559011174840300,4.64484033203125,-11.416050910949707,7.179000377655029,1.4490001201629639
1750559011184444200,4.654444091796875,-12.016950607299805,7.218000411987305,1.702950119972229
1750559011194048000,4.664048095703125,-12.130050659179688,7.206000328063965,1.662000060081482
1750559011203652000,4.673652099609375,-11.09595012664795,7.342050552368164,1.7080501317977905
1750559011213256000,4.683255859375,-9.715950012207031,7.324950218200684,1.4800500869750977
1750559011222860000,4.692860107421875,-8.590950012207031,7.195950508117676,1.3339500427246094
1750559011232464000,4.7024638671875,-7.70805025100708,7.186950206756592,1.377000093460083
1750559011242068000,4.71206787109375,-6.949050426483154,6.916050434112549,1.3680000305175781
1750559011251672000,4.721672119140625,-6.415050506591797,6.625950336456299,1.549950122833252
1750559011261276000,4.73127587890625,-6.082050323486328,6.478050231933594,1.7959500551223755
1750559011270880000,4.7408798828125,-5.533950328826904,6.3100504875183105,1.7749500274658203
1750559011280484000,4.750484130859375,-4.902000427246094,6.058950424194336,1.284000039100647
1750559011290088000,4.760087890625,-2.980950117111206,6.286050319671631,0.003000000026077032
1750559011299691800,4.76969189453125,0.3820500075817108,6.862950325012207,-0.9130500555038452
1750559011309295900,4.7792958984375,2.7109501361846924,6.8680500984191895,-0.9439500570297241
1750559011318899700,4.788899658203125,2.8650002479553223,6.660000324249268,-0.3460500240325928
1750559011328503800,4.79850390625,1.576050043106079,6.210000514984131,0.25394999980926514
1750559011338107600,4.808107666015625,0.6280500292778015,5.374050140380859,0.6660000085830688
1750559011347711700,4.817711669921875,0.7960500121116638,4.6080002784729,-0.42195001244544983
1750559011357315800,4.82731591796875,5.697000503540039,5.206050395965576,-2.7400500774383545
1750559011366919700,4.836919677734375,13.684050559997559,5.400000095367432,-1.8540000915527344
1750559011376523800,4.846523681640625,17.974950790405273,4.5,-1.5070500373840332
1750559011386127600,4.856127685546875,19.426050186157227,4.785000324249268,-1.5520501136779785
1750559011395731700,4.865731689453125,18.2530517578125,5.250000476837158,-0.42900002002716064
1750559011405335600,4.87533544921875,14.206050872802734,5.263950347900391,0.48900002241134644
1750559011414939400,4.884939453125,10.483050346374512,5.632950305938721,1.0110000371932983
1750559011424543700,4.894543701171875,8.581950187683105,6.0319504737854,1.059000015258789
1750559011434147600,4.904147705078125,7.332000255584717,6.1710004806518555,0.8119500279426575
1750559011443751400,4.91375146484375,7.3660502433776855,6.090000152587891,0.4459500312805176
1750559011453355300,4.923355224609375,10.25100040435791,6.183000087738037,-0.13005000352859497
1750559011462959400,4.93295947265625,13.462050437927246,6.5620503425598145,-1.1479500532150269
1750559011472563500,4.9425634765625,14.677950859069824,6.28095006942749,-1.0810500383377075
1750559011482167300,4.952167236328125,13.480950355529785,5.725950241088867,-0.29805001616477966
1750559011491771400,4.961771484375,11.44800090789795,5.48205041885376,0.5539500117301941
1750559011501375500,4.97137548828125,9.9660005569458,5.599050045013428,0.690000057220459
1750559011510979000,4.98097900390625,9.147000312805176,5.998950481414795,0.0990000069141388
1750559011520583200,4.990583251953125,8.38800048828125,6.499050140380859,-0.5680500268936157
1750559011530187300,5.000187255859375,8.059950828552246,6.922950267791748,-0.922950029373169
1750559011539791400,5.009791259765625,7.900050163269043,7.048050403594971,-1.0500000715255737
1750559011549395500,5.0193955078125,7.758000373840332,6.954000473022461,-0.9109500646591187
1750559011558999000,5.0289990234375,8.079000473022461,6.9210004806518555,-0.8820000290870667
1750559011568603100,5.03860302734375,8.326050758361816,6.874950408935547,-0.7099500298500061
1750559011578207000,5.04820703125,7.981050491333008,6.838950157165527,-0.5230500102043152
1750559011587811000,5.05781103515625,7.624050140380859,6.889950275421143,-0.3550500273704529
1750559011597415200,5.067415283203125,7.452000141143799,6.8680500984191895,-0.24495001137256622
1750559011607019000,5.07701904296875,7.3969502449035645,6.765000343322754,-0.11100000888109207
1750559011616623000,5.086623046875,7.395000457763672,6.724050521850586,-0.13305000960826874
1750559011626227000,5.09622705078125,7.25100040435791,6.684000492095947,-0.21900001168251038
1750559011635830800,5.105830810546875,6.999000549316406,6.700050354003906,-0.26205000281333923
1750559011645435100,5.11543505859375,6.942000389099121,6.832050323486328,-0.3049500286579132
1750559011655039000,5.1250390625,7.179000377655029,6.79395055770874,-0.24000000953674316
1750559011664642800,5.134642822265625,7.384950160980225,6.613950252532959,-0.10605000704526901
1750559011674247000,5.144246826171875,7.392000198364258,6.600000381469727,0.031950000673532486
1750559011683850800,5.153850830078125,7.035000324249268,6.577950477600098,0.015000000596046448
1750559011693454800,5.163454833984375,6.727050304412842,6.49500036239624,-0.04605000093579292
1750559011703058700,5.17305859375,6.50100040435791,6.6409502029418945,-0.1469999998807907
1750559011712662800,5.182662841796875,6.4609503746032715,6.796050548553467,-0.31905001401901245
1750559011722267000,5.192266845703125,6.58305025100708,6.925950527191162,-0.5230500102043152
1750559011731870700,5.20187060546875,6.820050239562988,6.9210004806518555,-0.6690000295639038
1750559011741474800,5.211474853515625,7.0159502029418945,6.898950099945068,-0.6780000329017639
1750559011751078700,5.22107861328125,7.135950565338135,6.79395055770874,-0.6760500073432922
1750559011760682800,5.230682861328125,7.252950191497803,6.799050331115723,-0.7410000562667847
1750559011770286600,5.24028662109375,7.320000171661377,6.825000286102295,-0.9370500445365906
1750559011779890400,5.249890380859375,7.0570502281188965,6.877950191497803,-0.9439500570297241
1750559011789494500,5.25949462890625,6.7069501876831055,6.844050407409668,-0.7810500264167786
1750559011799098600,5.2690986328125,6.420000076293945,6.850950241088867,-0.690000057220459
1750559011808702500,5.278702392578125,6.252000331878662,6.847050189971924,-0.6400500535964966
1750559011818306600,5.288306640625,6.463050365447998,6.787050247192383,-0.5250000357627869
1750559011827910400,5.297910400390625,6.808050155639648,6.657000541687012,-0.3859500288963318
1750559011837514500,5.307514404296875,7.05495023727417,6.636000156402588,-0.44895002245903015
1750559011847118300,5.317118408203125,7.207950115203857,6.5209503173828125,-0.33105000853538513
1750559011856722400,5.326722412109375,7.153050422668457,6.463050365447998,-0.25905001163482666
1750559011866326500,5.336326416015625,7.086000442504883,6.492000102996826,-0.18495000898838043
1750559011875930400,5.345930419921875,6.954000473022461,6.463050365447998,-0.2070000171661377
1750559011885534200,5.3555341796875,6.742950439453125,6.492000102996826,-0.29100000858306885
1750559011895138300,5.36513818359375,6.609000205993652,6.508950233459473,-0.3169500231742859
1750559011904742100,5.3747421875,6.58305025100708,6.532950401306152,-0.2950500249862671
1750559011914346200,5.38434619140625,6.58305025100708,6.544950485229492,-0.1879500150680542
1750559011923950000,5.3939501953125,6.832050323486328,6.592950344085693,-0.1680000126361847
1750559011933554200,5.40355419921875,7.231950283050537,6.592950344085693,-0.24000000953674316
1750559011943158300,5.413158203125,7.528950214385986,6.484950542449951,-0.34095001220703125
1750559011952762000,5.42276220703125,7.690950393676758,6.472950458526611,-0.28095000982284546
1750559011962366200,5.4323662109375,7.7440505027771,6.396000385284424,-0.15405000746250153
1750559011971970000,5.441969970703125,7.617000579833984,6.361050128936768,-0.04605000093579292
1750559011981574100,5.45157421875,7.392000198364258,6.475050449371338,-0.025050001218914986
1750559011991178200,5.46117822265625,7.1170501708984375,6.616950511932373,-0.10395000129938126
1750559012000781800,5.47078173828125,6.985050201416016,6.732000350952148,-0.31200000643730164
1750559012010386000,5.480385986328125,6.967950344085693,6.7699503898620605,-0.41505002975463867
1750559012019990000,5.489989990234375,7.07895040512085,6.8110504150390625,-0.5680500268936157
1750559012029593900,5.49959375,7.4160003662109375,6.841950416564941,-0.7020000219345093
1750559012039198000,5.509197998046875,7.504950523376465,6.805950164794922,-0.6570000052452087
1750559012048802000,5.518802001953125,7.336950302124023,6.799050331115723,-0.6379500031471252
1750559012058406000,5.528406005859375,7.33905029296875,6.880050182342529,-0.6070500016212463
1750559012068009700,5.538009765625,7.264950275421143,6.865950107574463,-0.492000013589859
1750559012077613800,5.54761376953125,7.1670002937316895,6.825000286102295,-0.45795002579689026
1750559012087218000,5.557218017578125,7.260000228881836,6.813000202178955,-0.42705002427101135
1750559012096821800,5.56682177734375,7.300950527191162,6.708000183105469,-0.364950031042099
1750559012106425900,5.57642578125,7.2870001792907715,6.6739501953125,-0.1969500035047531
1750559012116029700,5.58602978515625,7.324950218200684,6.624000549316406,-0.039000000804662704
1750559012125633500,5.595633544921875,7.291950225830078,6.598050117492676,-0.030000001192092896
1750559012135237600,5.605237548828125,7.237050533294678,6.676950454711914,-0.11295000463724136
1750559012144841700,5.614841796875,7.260000228881836,6.645000457763672,-0.20205001533031464
1750559012154445600,5.624445556640625,7.320000171661377,6.610050201416016,-0.20400001108646393
1750559012164049700,5.634049560546875,7.323000431060791,6.528000354766846,-0.24705001711845398
1750559012173653800,5.64365380859375,7.270050525665283,6.598050117492676,-0.39795002341270447
1750559012183257600,5.653257568359375,7.180950164794922,6.7099504470825195,-0.5010000467300415
1750559012192861400,5.662861328125,7.171950340270996,6.676950454711914,-0.46995002031326294
1750559012202465500,5.672465576171875,7.1860504150390625,6.6739501953125,-0.37005001306533813
1750559012212069600,5.682069580078125,7.330050468444824,6.610050201416016,-0.364950031042099
1750559012221673500,5.691673583984375,7.512000560760498,6.484950542449951,-0.3169500231742859
1750559012231277600,5.701277587890625,7.576950550079346,6.430050373077393,-0.31005001068115234
1750559012240881700,5.710881591796875,7.477950572967529,6.427950382232666,-0.3049500286579132
1750559012250485200,5.7204853515625,7.303950309753418,6.456000328063965,-0.27900001406669617
1750559012260089300,5.73008935546875,7.07895040512085,6.5620503425598145,-0.322050005197525
1750559012269693200,5.739693115234375,6.889050483703613,6.6739501953125,-0.37905001640319824
1750559012279297300,5.74929736328125,6.9370503425598145,6.610050201416016,-0.3430500030517578
1750559012288901400,5.7589013671875,7.14300012588501,6.556950092315674,-0.26205000281333923
1750559012298505200,5.768505126953125,7.303950309753418,6.487050533294678,-0.11295000463724136
1750559012308109300,5.778109375,7.395000457763672,6.436950206756592,-0.04605000093579292
1750559012317713400,5.78771337890625,7.468950271606445,6.552000522613525,-0.23295001685619354
1750559012327317200,5.797317138671875,7.579050540924072,6.637950420379639,-0.364950031042099
1750559012336921300,5.80692138671875,7.627050399780273,6.688950538635254,-0.4650000333786011
1750559012346525200,5.816525146484375,7.507050514221191,6.669000148773193,-0.37905001640319824
1750559012356129000,5.82612890625,7.327950477600098,6.672000408172607,-0.22095000743865967
1750559012365732900,5.83573291015625,7.150050163269043,6.625950336456299,-0.13500000536441803
1750559012375337200,5.845337158203125,7.093050479888916,6.631050109863281,-0.15900000929832458
1750559012384941000,5.854941162109375,7.009050369262695,6.657000541687012,-0.322050005197525
1750559012394545000,5.864544921875,7.059000492095947,6.657000541687012,-0.40800002217292786
1750559012404149000,5.87414892578125,7.204950332641602,6.705000400543213,-0.48900002241134644
1750559012413752800,5.8837529296875,7.258050441741943,6.796050548553467,-0.5130000114440918
1750559012423357000,5.89335693359375,7.228950500488281,6.777000427246094,-0.5040000081062317
1750559012432961000,5.9029609375,7.3560004234313965,6.715050220489502,-0.46995002031326294
1750559012442564900,5.91256494140625,7.4160003662109375,6.672000408172607,-0.3960000276565552
1750559012452169000,5.9221689453125,7.336950302124023,6.57105016708374,-0.2639999985694885
1750559012461772800,5.931772705078125,7.284000396728516,6.516000270843506,-0.286050021648407
1750559012471376600,5.941376708984375,7.180950164794922,6.553950309753418,-0.24000000953674316
1750559012480980700,5.950980712890625,7.050000190734863,6.541950225830078,-0.14205001294612885
1750559012490584800,5.960584716796875,7.111950397491455,6.51900053024292,-0.06495000422000885
1750559012500188700,5.970188720703125,7.174050331115723,6.514050483703613,-0.04905000329017639
1750559012509793000,5.97979296875,7.312950134277344,6.544950485229492,-0.19200000166893005
1750559012519396600,5.989396728515625,7.440000534057617,6.532950401306152,-0.2950500249862671
1750559012529000700,5.999000732421875,7.4350504875183105,6.50700044631958,-0.325950026512146
1750559012538604800,6.008604736328125,7.390050411224365,6.535050392150879,-0.31200000643730164
1750559012548208600,6.018208740234375,7.311000347137451,6.556950092315674,-0.2070000171661377
1750559012557812700,6.027812744140625,7.216950416564941,6.568950176239014,-0.1680000126361847
1750559012567416600,6.03741650390625,7.129050254821777,6.556950092315674,-0.11100000888109207
1750559012577020700,6.047020751953125,7.2270002365112305,6.490050315856934,-0.16095000505447388
1750559012586624800,6.056624755859375,7.2460503578186035,6.484950542449951,-0.23100000619888306
1750559012596228600,6.066228515625,7.203000545501709,6.565950393676758,-0.3769500255584717
1750559012605832700,6.075832763671875,7.284000396728516,6.652950286865234,-0.5130000114440918
1750559012615436300,6.085436279296875,7.3969502449035645,6.679050445556641,-0.45600003004074097
1750559012625040400,6.095040283203125,7.378050327301025,6.6190505027771,-0.36705002188682556
1750559012634644500,6.10464453125,7.348950386047363,6.538050174713135,-0.25005000829696655
1750559012644248300,6.114248291015625,7.359000205993652,6.468000411987305,-0.16395001113414764
1750559012653852400,6.123852294921875,7.272000312805176,6.432000160217285,-0.07005000114440918
1750559012663456300,6.133456298828125,7.258050441741943,6.448950290679932,-0.11595000326633453
1750559012673060400,6.143060302734375,7.191000461578369,6.496950149536133,-0.29100000858306885
1750559012682664200,6.152664306640625,7.122000217437744,6.586050510406494,-0.3840000033378601
1750559012692268300,6.162268310546875,7.07895040512085,6.68595027923584,-0.453000009059906
1750559012701872400,6.171872314453125,7.063950538635254,6.724050521850586,-0.4050000309944153
1750559012711476200,6.181476318359375,7.07895040512085,6.59505033493042,-0.30300000309944153
1750559012721080300,6.191080322265625,7.105050563812256,6.538050174713135,-0.21405000984668732
1750559012730684400,6.200684326171875,7.1770501136779785,6.466050148010254,-0.1489500105381012
1750559012740288300,6.210288330078125,7.348950386047363,6.502050399780273,-0.24300001561641693
1750559012749892000,6.21989208984375,7.414050579071045,6.6190505027771,-0.2760000228881836
1750559012759496200,6.22949609375,7.3750505447387695,6.631050109863281,-0.17100000381469727
1750559012769100000,6.23910009765625,7.27500057220459,6.586050510406494,-0.10395000129938126
1750559012778704100,6.2487041015625,7.27500057220459,6.577950477600098,-0.15900000929832458
1750559012788308000,6.258307861328125,7.344000339508057,6.610050201416016,-0.24300001561641693
1750559012797912000,6.267912109375,7.192950248718262,6.616950511932373,-0.4459500312805176
1750559012807516200,6.27751611328125,7.071000099182129,6.736050128936768,-0.5350500345230103
1750559012817120000,6.2871201171875,6.994950294494629,6.775050163269043,-0.47700002789497375
1750559012826723800,6.296723876953125,7.087950229644775,6.721950531005859,-0.3720000088214874
1750559012836328000,6.306327880859375,7.315950393676758,6.574050426483154,-0.1879500150680542
1750559012845931800,6.315931884765625,7.492950439453125,6.4009504318237305,-0.07695000618696213
1750559012855535900,6.325535888671875,7.4760003089904785,6.313050270080566,-0.10605000704526901
1750559012865139700,6.3351396484375,7.3060503005981445,6.4009504318237305,-0.17100000381469727
1750559012874743800,6.344743896484375,7.026000499725342,6.472950458526611,-0.13305000960826874
1750559012884347600,6.35434765625,7.192950248718262,6.478050231933594,0.11100000888109207
1750559012893951700,6.36395166015625,7.489950180053711,6.352950096130371,0.30900001525878906
1750559012903555600,6.3735556640625,7.420950412750244,6.295950412750244,0.4240500330924988
1750559012913159700,6.38315966796875,7.332000255584717,6.3100504875183105,0.4339500069618225
1750559012922763800,6.392763671875,7.3750505447387695,6.355950355529785,0.06300000101327896
1750559012932367600,6.40236767578125,7.8160505294799805,6.748050212860107,-0.5370000004768372
1750559012941971700,6.4119716796875,8.878950119018555,7.033050537109375,-0.7480500340461731
1750559012951575800,6.421575927734375,10.684050559997559,7.195950508117676,-0.8359500169754028
1750559012961179400,6.431179443359375,14.497950553894043,6.79395055770874,-0.5110500454902649
1750559012970783500,6.440783447265625,16.669950485229492,5.635050296783447,-0.04605000093579292
1750559012980387600,6.4503876953125,16.636051177978516,4.8349504470825195,0.42195001244544983
1750559012989991700,6.45999169921875,16.009050369262695,4.5769500732421875,0.8190000653266907
1750559012999595500,6.469595458984375,14.833950996398926,5.005050182342529,-0.34800001978874207
1750559013009199600,6.47919970703125,15.97800064086914,5.596950054168701,-1.7890501022338867
1750559013018803500,6.488803466796875,17.78805160522461,4.972050189971924,-2.149049997329712
1750559013028407600,6.498407470703125,18.424951553344727,4.014000415802002,-2.63700008392334
1750559013038011400,6.508011474609375,18.0970516204834,2.6830501556396484,-2.3299500942230225
1750559013047615500,6.517615478515625,14.544000625610352,1.371000051498413,-2.2320001125335693
1750559013057219300,6.52721923828125,9.778950691223145,1.423050045967102,-2.557950019836426
1750559013066823400,6.536823486328125,5.764050483703613,2.4910500049591064,-2.3899500370025635
1750559013076427500,6.546427490234375,1.0260000228881836,4.243950366973877,-2.139000177383423
1750559013086031000,6.556031005859375,-3.7830002307891846,6.009000301361084,-1.8780001401901245
1750559013095635200,6.56563525390625,-7.030050277709961,7.119000434875488,-1.6240500211715698
1750559013105239000,6.575239013671875,-9.372000694274902,8.154000282287598,-0.5299500226974487
1750559013114843100,6.584843017578125,-10.699950218200684,8.64900016784668,0.3049500286579132
1750559013124447000,6.594447021484375,-9.964950561523438,9.001049995422363,-0.10395000129938126
1750559013134051000,6.604051025390625,-8.224950790405273,9.325050354003906,-0.6160500049591064
1750559013143655200,6.6136552734375,-7.569000244140625,8.901000022888184,-0.8290500640869141
1750559013153259000,6.623259033203125,-7.051950454711914,8.491050720214844,-0.609000027179718
1750559013162863000,6.632863037109375,-6.939000129699707,8.269050598144531,-0.3910500109195709
1750559013172467200,6.64246728515625,-7.063950538635254,8.353050231933594,-0.05100000277161598
1750559013182071000,6.652071044921875,-7.284000396728516,8.320950508117676,0.2779500186443329
1750559013191675100,6.661675048828125,-7.69605016708374,8.52495002746582,0.48900002241134644
1750559013201278700,6.67127880859375,-8.533950805664062,8.733000755310059,0.6300000548362732
1750559013210882800,6.6808828125,-9.52695083618164,8.761950492858887,0.6640500426292419
1750559013220487000,6.69048681640625,-9.457950592041016,8.470050811767578,0.5610000491142273
1750559013230090800,6.7000908203125,-8.572050094604492,8.26395034790039,0.5899500250816345
1750559013239695000,6.709695068359375,-7.566000461578369,7.888050556182861,0.775950014591217
1750559013249299000,6.719298828125,-6.534000396728516,7.299000263214111,0.778950035572052
1750559013258902800,6.72890283203125,-5.586000442504883,7.018950462341309,0.1870500147342682
1750559013268507000,6.7385068359375,-4.638000011444092,7.05495023727417,-0.7020000219345093
1750559013278110700,6.74811083984375,-3.5440502166748047,7.203000545501709,-1.5570000410079956
1750559013287714800,6.75771484375,-3.15405011177063,7.086000442504883,-1.76295006275177
1750559013297318700,6.767318603515625,-2.77305006980896,6.487050533294678,-1.4299501180648804
1750559013306922800,6.7769228515625,-1.8870000839233398,4.89300012588501,-1.15500009059906
1750559013316526800,6.78652685546875,0.5730000138282776,3.0919501781463623,-1.0810500383377075
1750559013326130400,6.79613037109375,5.320950031280518,1.5670500993728638,-2.0340001583099365
1750559013335734800,6.80573486328125,12.43695068359375,2.1919500827789307,-2.8120501041412354
1750559013345338600,6.815338623046875,16.600950241088867,2.7310500144958496,-1.6549500226974487
1750559013354942500,6.8249423828125,15.870000839233398,3.258000135421753,-1.5520501136779785
1750559013364546600,6.834546630859375,16.25295066833496,4.717950344085693,-1.4830501079559326
1750559013374150400,6.844150390625,18.37200164794922,4.273050308227539,0.19005000591278076
1750559013383754500,6.85375439453125,18.705001831054688,3.1710002422332764,1.228950023651123
1750559013393358300,6.8633583984375,16.645950317382812,3.0199501514434814,1.7940000295639038
1750559013402962400,6.87296240234375,13.878000259399414,3.337050199508667,2.2870500087738037
1750559013412566500,6.88256640625,12.211950302124023,3.9160501956939697,2.098050117492676
1750559013422170400,6.89217041015625,11.53695011138916,4.3279500007629395,1.4749500751495361
1750559013431774500,6.9017744140625,11.316000938415527,4.543050289154053,0.5820000171661377
1750559013441378300,6.91137841796875,10.933050155639648,4.833000183105469,0.20595000684261322
1750559013450982400,6.920982421875,10.155000686645508,4.8949503898620605,0.2179500162601471
1750559013460586500,6.93058642578125,9.97800064086914,5.259000301361084,0.22605000436306
1750559013470190300,6.9401904296875,10.24905014038086,5.5819501876831055,0.09600000083446503
1750559013479794200,6.949794189453125,10.419000625610352,5.628000259399414,-0.05400000140070915
1750559013489398300,6.959398193359375,9.814950942993164,5.75700044631958,-0.2160000056028366
1750559013499002000,6.969002197265625,9.12600040435791,6.097050189971924,-0.3139500021934509
1750559013508606200,6.978606201171875,8.818950653076172,6.3100504875183105,-0.30300000309944153
1750559013518210000,6.9882099609375,8.794950485229492,6.41295051574707,-0.3169500231742859
1750559013527814100,6.997814208984375,9.001049995422363,6.50700044631958,-0.27105000615119934
1750559013537418200,7.007418212890625,8.97705078125,6.408000469207764,0.015000000596046448
1750559013547021800,7.017021728515625,9.310050010681152,6.207000255584717,0.4030500054359436
1750559013556626000,7.0266259765625,8.98905086517334,6.067950248718262,0.4030500054359436
1750559013566229800,7.036229736328125,8.259000778198242,6.219000339508057,0.1469999998807907
1750559013575833900,7.045833740234375,7.689000129699707,6.625950336456299,-0.31200000643730164
1750559013585438000,7.05543798828125,7.354050159454346,6.925950527191162,-0.6109500527381897
1750559013595041800,7.065041748046875,7.222050189971924,7.07205057144165,-0.6739500164985657
1750559013604646000,7.07464599609375,7.2460503578186035,6.9970502853393555,-0.5110500454902649
1750559013614250000,7.08425,7.359000205993652,6.844050407409668,-0.16095000505447388
1750559013623853800,7.093853759765625,7.477950572967529,6.733950138092041,0.028950002044439316
1750559013633458000,7.1034580078125,7.70805025100708,6.621000289916992,-0.15600000321865082
1750559013643061800,7.113061767578125,7.858950138092041,6.5590500831604,-0.30300000309944153
1750559013652665900,7.122665771484375,7.672050476074219,6.59505033493042,-0.4650000333786011
1750559013662269700,7.132269775390625,7.311000347137451,6.628950119018555,-0.44895002245903015
1750559013671873500,7.14187353515625,7.165050506591797,6.610050201416016,-0.46095001697540283
1750559013681478000,7.151477783203125,7.225050449371338,6.4830002784729,-0.31905001401901245
1750559013691081700,7.161081787109375,7.258050441741943,6.339000225067139,-0.23295001685619354
1750559013700685800,7.170685791015625,7.584000587463379,6.211950302124023,-0.14205001294612885
1750559013710289700,7.18028955078125,7.849050521850586,6.046950340270996,-0.0799500048160553
1750559013719893500,7.1898935546875,7.888050556182861,6.090000152587891,0.05595000088214874
1750559013729497600,7.19949755859375,7.7059502601623535,6.100050449371338,0.039000000804662704
1750559013739101700,7.209101806640625,7.684050559997559,6.1810503005981445,-0.1469999998807907
1750559013748705500,7.21870556640625,7.753950595855713,6.21405029296875,-0.30300000309944153
1750559013758309600,7.2283095703125,7.521000385284424,6.139950275421143,-0.3240000009536743
1750559013767913500,7.23791357421875,7.395000457763672,6.28095006942749,-0.6949500441551208
1750559013777517600,7.247517578125,7.411050319671631,6.427950382232666,-0.9079500436782837
1750559013787121700,7.25712158203125,7.16895055770874,6.408000469207764,-0.931950032711029
1750559013796725500,7.2667255859375,7.063950538635254,6.367950439453125,-0.7720500230789185
1750559013806329300,7.276329345703125,7.0159502029418945,6.301050186157227,-0.6019500494003296
1750559013815933400,7.285933349609375,6.970950126647949,6.250050067901611,-0.4440000355243683
1750559013825537300,7.295537353515625,6.994950294494629,6.217050075531006,-0.30300000309944153
1750559013835141400,7.305141357421875,6.98805046081543,6.186000347137451,-0.12495000660419464
1750559013844745200,7.3147451171875,7.098000526428223,6.100050449371338,-0.027000000700354576
1750559013854349300,7.324349365234375,7.420950412750244,5.994000434875488,0.022050000727176666
1750559013863953200,7.333953125,7.6650004386901855,5.974950313568115,-0.018000001087784767
1750559013873557200,7.34355712890625,8.05305004119873,5.977050304412842,-0.1969500035047531
1750559013883161300,7.353161376953125,8.200950622558594,6.078000068664551,-0.2760000228881836
1750559013892765200,7.36276513671875,7.773000240325928,6.175950527191162,-0.32895001769065857
1750559013902369300,7.372369384765625,7.3060503005981445,6.267000198364258,-0.3739500045776367
1750559013911973000,7.38197314453125,6.934950351715088,6.303000450134277,-0.4650000333786011
1750559013921577200,7.3915771484375,6.834000110626221,6.376950263977051,-0.5130000114440918
1750559013931181000,7.40118115234375,7.011000156402588,6.327000141143799,-0.47505003213882446
1750559013940785000,7.410784912109375,7.320000171661377,6.166950225830078,-0.36195001006126404
1750559013950389000,7.420388916015625,7.464000225067139,6.147000312805176,-0.18495000898838043
1750559013959993000,7.4299931640625,7.53795051574707,6.183000087738037,-0.034050002694129944
1750559013969597000,7.439596923828125,7.669950485229492,6.229050159454346,0.015000000596046448
1750559013979201000,7.449200927734375,7.612050533294678,6.2220001220703125,0.031950000673532486
1750559013988804900,7.458804931640625,7.53795051574707,6.243000507354736,-0.0010500000789761543
1750559013998409000,7.468408935546875,7.4760003089904785,6.211950302124023,-0.12105000764131546
1750559014008012800,7.4780126953125,7.330050468444824,6.178950309753418,-0.29295000433921814
1750559014017617000,7.487616943359375,7.312950134277344,6.325050354003906,-0.5440500378608704
1750559014027220700,7.497220703125,7.282050132751465,6.610050201416016,-0.736050009727478
1750559014036824800,7.506824951171875,7.270050525665283,6.745950222015381,-0.8050500154495239
1750559014046428700,7.5164287109375,7.15500020980835,6.789000511169434,-0.7120500206947327
1750559014056032800,7.52603271484375,6.990000247955322,6.739050388336182,-0.5539500117301941
1750559014065636600,7.53563671875,6.966000556945801,6.6499505043029785,-0.4630500078201294
1750559014075240700,7.54524072265625,7.045050144195557,6.502050399780273,-0.45795002579689026
1750559014084844500,7.554844482421875,7.1170501708984375,6.496950149536133,-0.49605002999305725
1750559014094448600,7.56444873046875,7.284000396728516,6.475050449371338,-0.41505002975463867
1750559014104052500,7.574052490234375,7.359000205993652,6.432000160217285,-0.17805001139640808
1750559014113656600,7.583656494140625,7.36305046081543,6.361050128936768,0.11805000901222229
1750559014123260700,7.5932607421875,7.272000312805176,6.2719502449035645,0.2950500249862671
1750559014132864500,7.602864501953125,7.521000385284424,6.183000087738037,0.1660500019788742
1750559014142468600,7.612468505859375,7.852050304412842,6.151950359344482,-0.0010500000789761543
1750559014152072400,7.622072509765625,7.591050148010254,6.115950107574463,-0.10395000129938126
1750559014161676300,7.63167626953125,7.464000225067139,6.195000171661377,-0.11595000326633453
1750559014171280400,7.6412802734375,7.507050514221191,6.322050094604492,-0.17295001447200775
1750559014180884200,7.65088427734375,7.509000301361084,6.319950103759766,-0.24705001711845398
1750559014190488300,7.66048828125,7.5259504318237305,6.301050186157227,-0.30300000309944153
1750559014200092400,7.670092529296875,7.878000259399414,6.313050270080566,-0.43905001878738403
1750559014209696300,7.6796962890625,8.08395004272461,6.22605037689209,-0.4459500312805176
1750559014219300400,7.68930029296875,8.12700080871582,6.235950469970703,-0.4050000309944153
1750559014228904200,7.698904296875,8.110050201416016,6.334050178527832,-0.40995001792907715
1750559014238508300,7.70850830078125,8.005050659179688,6.325050354003906,-0.42000001668930054
1750559014248112400,7.7181123046875,7.830000400543213,6.372000217437744,-0.28095000982284546
1750559014257716200,7.72771630859375,7.693950176239014,6.361050128936768,-0.2950500249862671
1750559014267320000,7.737320068359375,7.675050258636475,6.349050521850586,-0.4030500054359436
1750559014276924200,7.746924072265625,7.657950401306152,6.447000503540039,-0.5470499992370605
1750559014286528000,7.756528076171875,7.609950542449951,6.454050540924072,-0.5350500345230103
1750559014296132000,7.766132080078125,7.464000225067139,6.364950180053711,-0.27900001406669617
1750559014305736200,7.775736083984375,7.3660502433776855,6.211950302124023,-0.08700000494718552
1750559014315340000,7.785340087890625,7.387050151824951,6.22605037689209,-0.0990000069141388
1750559014324944000,7.79494384765625,7.5450005531311035,6.298050403594971,-0.325950026512146
1750559014334548000,7.8045478515625,7.621950149536133,6.376950263977051,-0.4729500114917755
1750559014344152000,7.814152099609375,7.591050148010254,6.363000392913818,-0.4630500078201294
1750559014353756000,7.823755859375,7.440000534057617,6.355950355529785,-0.3550500273704529
1750559014363360000,7.833360107421875,7.299000263214111,6.352950096130371,-0.1399500072002411
1750559014372964000,7.842964111328125,7.335000514984131,6.31695032119751,-0.17100000381469727
1750559014382567700,7.852567626953125,7.5960001945495605,6.375000476837158,-0.34995001554489136
1750559014392171800,7.862171875,7.651050567626953,6.3510003089904785,-0.3910500109195709
1750559014401775900,7.87177587890625,7.557000160217285,6.3409504890441895,-0.527999997138977
1750559014411379700,7.881379638671875,7.438050270080566,6.352950096130371,-0.6109500527381897
1750559014420983800,7.89098388671875,7.35105037689209,6.468000411987305,-0.5869500041007996
1750559014430587600,7.900587646484375,7.288950443267822,6.492000102996826,-0.5710500478744507
1750559014440191700,7.910191650390625,7.219950199127197,6.442050457000732,-0.47505003213882446
1750559014449795600,7.919795654296875,7.267950534820557,6.394050121307373,-0.364950031042099
1750559014459399700,7.929399658203125,7.399050235748291,6.313050270080566,-0.31905001401901245
1750559014469003800,7.939003662109375,7.633950233459473,6.277050495147705,-0.3720000088214874
1750559014478607600,7.948607666015625,7.725000381469727,6.265050411224365,-0.4650000333786011
1750559014488211700,7.958211669921875,7.684050559997559,6.283950328826904,-0.5440500378608704
1750559014497815800,7.96781591796875,7.549950122833252,6.372000217437744,-0.5490000247955322
1750559014507419600,7.977419677734375,7.464000225067139,6.382050514221191,-0.4510500133037567
1750559014517023500,7.9870234375,7.330050468444824,6.39900016784668,-0.3360000252723694
1750559014526627300,7.99662744140625,7.215000152587891,6.406050205230713,-0.30300000309944153
1750559014536231400,8.0062314453125,7.294050216674805,6.379950523376465,-0.3840000033378601
1750559014545835300,8.015835205078124,7.4160003662109375,6.430050373077393,-0.5400000214576721
1750559014555439400,8.025439453125,7.4160003662109375,6.376950263977051,-0.5490000247955322
1750559014565043500,8.03504345703125,7.3470001220703125,6.361050128936768,-0.4650000333786011
1750559014574647300,8.044647216796875,7.318050384521484,6.376950263977051,-0.42900002002716064
1750559014584251100,8.054251220703126,7.426050186157227,6.3510003089904785,-0.4030500054359436
1750559014593855500,8.06385546875,7.44195032119751,6.298050403594971,-0.31200000643730164
1750559014603459300,8.073459228515626,7.35105037689209,6.279000282287598,-0.30000001192092896
1750559014613063200,8.083063232421875,7.174050331115723,6.255000114440918,-0.2670000195503235
1750559014622667300,8.092667236328126,7.141050338745117,6.270000457763672,-0.21195000410079956
1750559014632271000,8.10227099609375,7.267950534820557,6.30495023727417,-0.20205001533031464
1750559014641875200,8.111875244140625,7.3470001220703125,6.223950386047363,-0.17805001139640808
1750559014651479000,8.12147900390625,7.483050346374512,6.229050159454346,-0.10395000129938126
1750559014661083100,8.131083251953125,7.4659504890441895,6.1620001792907715,-0.06495000422000885
1750559014670687000,8.14068701171875,7.395000457763672,6.159000396728516,-0.11805000901222229
1750559014680291000,8.150291015625,7.42995023727417,6.219000339508057,-0.28095000982284546
1750559014689895200,8.159895263671874,7.633950233459473,6.315000534057617,-0.40095001459121704
1750559014699499000,8.1694990234375,7.750950336456299,6.247950077056885,-0.3430500030517578
1750559014709103000,8.17910302734375,7.689000129699707,6.258000373840332,-0.322050005197525
1750559014718707000,8.18870703125,7.581000328063965,6.23805046081543,-0.2950500249862671
1750559014728310800,8.198310791015626,7.500000476837158,6.258000373840332,-0.36000001430511475
1750559014737915000,8.207914794921875,7.36305046081543,6.255000114440918,-0.41505002975463867
1750559014747518700,8.217518798828126,7.324950218200684,6.22605037689209,-0.3360000252723694
1750559014757122800,8.227122802734375,7.581000328063965,6.169050216674805,-0.09405000507831573
1750559014766726700,8.2367265625,7.91895055770874,6.091950416564941,0.1660500019788742
1750559014776330800,8.246330810546874,7.948050498962402,6.021000385284424,0.20595000684261322
1750559014785934800,8.255934814453125,8.10300064086914,6.004050254821777,0.1969500035047531
1750559014795538700,8.26553857421875,8.08905029296875,6.079950332641602,0.039000000804662704
1750559014805142800,8.275142822265625,7.962000370025635,6.055950164794922,-0.0580500029027462
1750559014814746600,8.28474658203125,7.8949503898620605,6.1020002365112305,-0.20400001108646393
1750559014824350500,8.2943505859375,7.656000137329102,6.1210503578186035,-0.29805001616477966
1750559014833954600,8.30395458984375,7.593000411987305,6.3100504875183105,-0.4339500069618225
1750559014843558400,8.313558349609375,7.878000259399414,6.4800004959106445,-0.5250000357627869
1750559014853162500,8.32316259765625,8.199000358581543,6.472950458526611,-0.3820500075817108
1750559014862766600,8.3327666015625,8.713950157165527,6.511050224304199,-0.09405000507831573
1750559014872370400,8.342370361328125,10.31100082397461,6.073050498962402,0.4440000355243683
1750559014881974500,8.351974609375,11.356950759887695,5.63700008392334,0.6469500064849854
1750559014891578400,8.361578369140625,11.70405101776123,5.613000392913818,0.5389500260353088
1750559014901182500,8.371182373046874,12.444000244140625,5.53695011138916,0.4459500312805176
1750559014910786300,8.380786376953125,13.708050727844238,5.977050304412842,-0.5659500360488892
1750559014920390100,8.39039013671875,17.21595001220703,6.784050464630127,-2.2350001335144043
1750559014929994200,8.399994140625,20.539051055908203,6.1710004806518555,-3.364950180053711
1750559014939598300,8.409598388671874,20.23995018005371,5.259000301361084,-4.452000141143799
1750559014949202400,8.419202392578125,17.87700080871582,4.330049991607666,-3.76200008392334
1750559014958806500,8.428806640625,15.277050971984863,3.6979501247406006,-2.794950246810913
1750559014968410000,8.43841015625,13.335000991821289,3.4420502185821533,-2.7060000896453857
1750559014978014200,8.44801416015625,11.601000785827637,3.05400013923645,-2.5600500106811523
1750559014987618300,8.457618408203125,8.746950149536133,2.326050043106079,-1.6579500436782837
1750559014997222100,8.46722216796875,4.954950332641602,2.7280502319335938,-1.6740000247955322
1750559015006826200,8.476826171875,0.6810000538825989,4.138950347900391,-1.6960500478744507
1750559015016430000,8.48643017578125,-4.909050464630127,6.1620001792907715,-1.4659500122070312
1750559015026034200,8.4960341796875,-8.847000122070312,7.852050304412842,-0.8239500522613525
1750559015035637800,8.5056376953125,-10.156950950622559,8.581950187683105,-0.208950012922287
1750559015045241900,8.515241943359374,-10.344000816345215,8.692950248718262,0.4030500054359436
1750559015054846000,8.524845947265625,-10.12605094909668,8.271000862121582,0.43605002760887146
1750559015064449800,8.53444970703125,-9.642000198364258,7.9960503578186035,0.5269500017166138
1750559015074054000,8.544053955078125,-9.369000434875488,8.182950019836426,0.7069500088691711
1750559015083658000,8.553657958984376,-9.594000816345215,8.092050552368164,0.9510000348091125
1750559015093261800,8.56326171875,-10.015950202941895,8.107950210571289,0.9940500259399414
1750559015102866000,8.572865966796876,-10.380000114440918,8.43600082397461,0.9919500350952148
1750559015112469800,8.5824697265625,-10.62405014038086,8.57805061340332,0.999000072479248
1750559015122073900,8.592073974609375,-10.144950866699219,8.163000106811523,0.6760500073432922
1750559015131677700,8.601677734375,-8.284950256347656,7.603050231933594,0.019950000569224358
1750559015141281800,8.61128173828125,-5.356050491333008,7.189050197601318,-0.6829500198364258
1750559015150885600,8.6208857421875,-2.2729501724243164,6.844050407409668,-1.054050087928772
1750559015160489700,8.63048974609375,-0.019950000569224358,6.6190505027771,-1.0930500030517578
1750559015170093600,8.640093505859374,1.6150500774383545,6.817950248718262,-1.4130001068115234
1750559015179697700,8.64969775390625,2.998950242996216,6.95205020904541,-1.5979501008987427
1750559015189301500,8.659301513671876,3.5710501670837402,6.736050128936768,-1.215000033378601
1750559015198905600,8.668905517578125,3.115950107574463,6.186000347137451,-0.697950005531311
1750559015208509400,8.678509521484376,2.644050121307373,5.5489501953125,-0.15405000746250153
1750559015218113500,8.688113525390625,5.26800012588501,4.440000057220459,0.25394999980926514
1750559015227717600,8.697717529296876,11.87700080871582,4.218000411987305,-0.15900000929832458
1750559015237321500,8.707321533203125,19.099950790405273,4.170000076293945,-0.4630500078201294
1750559015246925300,8.71692529296875,22.195951461791992,3.3010501861572266,0.13695000112056732
1750559015256529400,8.726529296875,21.016050338745117,2.9820001125335693,1.7050501108169556
1750559015266133200,8.73613330078125,17.533950805664062,3.372000217437744,3.1080000400543213
1750559015275737300,8.7457373046875,13.902000427246094,3.9280502796173096,3.481950283050537
1750559015285341200,8.755341064453125,11.764050483703613,4.432950019836426,3.2760002613067627
1750559015294945300,8.7649453125,10.099950790405273,5.158950328826904,2.45205020904541
1750559015304549400,8.77454931640625,8.419050216674805,5.824050426483154,1.6170001029968262
1750559015314153200,8.7841533203125,7.1770501136779785,6.600000381469727,1.2480000257492065
1750559015323757300,8.79375732421875,7.069050312042236,6.814950466156006,1.0470000505447388
1750559015333361200,8.803361083984376,7.999950408935547,6.576000213623047,0.9420000314712524
1750559015342965000,8.812965087890625,8.035950660705566,6.496950149536133,0.8029500246047974
1750559015352569000,8.822569091796876,7.14300012588501,6.6739501953125,0.6970500349998474
1750559015362173000,8.8321728515625,6.841050148010254,7.174950122833252,0.4630500078201294
1750559015371777000,8.841777099609375,7.272000312805176,7.375950336456299,0.33105000853538513
1750559015381381000,8.851381103515624,7.4569501876831055,7.384950160980225,0.2569500207901001
1750559015390985000,8.86098486328125,7.5169501304626465,7.323000431060791,0.4720500111579895
1750559015400589000,8.870589111328124,7.725000381469727,7.1700005531311035,0.5820000171661377
1750559015410193000,8.88019287109375,8.170050621032715,6.990000247955322,0.5460000038146973
1750559015419797000,8.889796875,8.67300033569336,7.009050369262695,0.25905001163482666
1750559015429400800,8.89940087890625,8.722949981689453,7.062000274658203,-0.07005000114440918
1750559015439005000,8.9090048828125,8.338050842285156,7.102950572967529,-0.15900000929832458
1750559015448609000,8.918609130859375,7.785000324249268,7.135950565338135,-0.17295001447200775
1750559015458212600,8.928212646484376,7.276950359344482,7.0600504875183105,-0.2160000056028366
1750559015467817000,8.93781689453125,6.853050231933594,7.119000434875488,-0.34095001220703125
1750559015477420500,8.947420654296875,6.676050186157227,7.237050533294678,-0.38895002007484436
1750559015487024600,8.957024658203125,6.778950214385986,7.3999505043029785,-0.4030500054359436
1750559015496628500,8.96662841796875,6.877050399780273,7.392000198364258,-0.3820500075817108
1750559015506232600,8.976232666015624,7.264950275421143,7.2300004959106445,-0.3910500109195709
1750559015515836700,8.985836669921875,7.821000576019287,7.131000518798828,-0.31005001068115234
1750559015525440500,8.9954404296875,8.12700080871582,6.873000144958496,-0.08205000311136246
1750559015535044600,9.005044677734375,8.256000518798828,6.6409502029418945,0.028950002044439316
1750559015544648700,9.014648681640624,8.119950294494629,6.5590500831604,0.028950002044439316
1750559015554252300,9.024252197265625,7.561950206756592,6.672000408172607,0.022050000727176666
1750559015563856400,9.0338564453125,7.002000331878662,6.856050491333008,0.10605000704526901
1750559015573460500,9.04346044921875,6.624000549316406,6.930000305175781,0.19200000166893005
1750559015583064300,9.053064208984376,6.415050506591797,6.906000137329102,0.17805001139640808
1750559015592668400,9.06266845703125,6.561000347137451,6.862950325012207,0.28095000982284546
1750559015602272300,9.072272216796875,6.645000457763672,6.757950305938721,0.3550500273704529
1750559015611876400,9.08187646484375,6.8610005378723145,6.733950138092041,0.3139500021934509
1750559015621480400,9.09148046875,6.892050266265869,6.76800012588501,0.18300001323223114
1750559015631084300,9.101084228515624,6.913050174713135,6.799050331115723,-0.022050000727176666
1750559015640688400,9.1106884765625,7.282050132751465,6.925950527191162,-0.36705002188682556
1750559015650292200,9.120292236328124,7.45395040512085,7.0600504875183105,-0.609000027179718
1750559015659896300,9.129896240234375,7.0159502029418945,7.1170501708984375,-0.6930000185966492
1750559015669500200,9.139500244140624,6.580050468444824,7.119000434875488,-0.7240500450134277
1750559015679104000,9.14910400390625,6.31695032119751,7.215000152587891,-0.8080500364303589
1750559015688708400,9.158708251953126,6.23805046081543,7.273050308227539,-0.7549500465393066
1750559015698312000,9.16831201171875,6.315000534057617,7.219950199127197,-0.6829500198364258
1750559015707916000,9.177916015625,6.636000156402588,7.1509504318237305,-0.6139500141143799
1750559015717520100,9.18752001953125,7.011000156402588,7.005000114440918,-0.4339500069618225
1750559015727124000,9.1971240234375,6.985050201416016,6.808050155639648,-0.2880000174045563
1750559015736728000,9.20672802734375,6.798000335693359,6.715050220489502,-0.22800001502037048
1750559015746332000,9.216331787109375,6.6160502433776855,6.799050331115723,-0.322050005197525
1750559015755936000,9.22593603515625,6.496950149536133,6.9210004806518555,-0.43905001878738403
1750559015765540000,9.2355400390625,6.432000160217285,7.045050144195557,-0.45600003004074097
1750559015775143700,9.245143798828124,6.444000244140625,7.05495023727417,-0.32895001769065857
1750559015784747800,9.254747802734375,6.4270501136779785,6.958950519561768,-0.07500000298023224
1750559015794351600,9.2643515625,6.379050254821777,6.880050182342529,0.17295001447200775
1750559015803955700,9.273955810546875,6.493950366973877,6.799050331115723,0.22605000436306
1750559015813559600,9.2835595703125,6.66195011138916,6.705000400543213,0.24000000953674316
1750559015823163600,9.29316357421875,6.69795036315918,6.612000465393066,0.11805000901222229
1750559015832767700,9.302767822265626,6.79395055770874,6.652950286865234,0.043950002640485764
1750559015842371800,9.312371826171875,6.856050491333008,6.676950454711914,-0.08205000311136246
1750559015851975700,9.3219755859375,6.825000286102295,6.745950222015381,-0.06495000422000885
1750559015861579500,9.33157958984375,6.628050327301025,6.813000202178955,-0.003000000026077032
1750559015871183400,9.341183349609375,6.456000328063965,6.89400053024292,-0.015000000596046448
1750559015880787700,9.35078759765625,6.469950199127197,7.006950378417969,-0.19500000774860382
1750559015890391600,9.3603916015625,6.576000213623047,7.033050537109375,-0.3139500021934509
1750559015899995600,9.36999560546875,6.66195011138916,7.036050319671631,-0.44895002245903015
1750559015909599500,9.379599609375,6.813000202178955,7.084050178527832,-0.6400500535964966
1750559015919203600,9.38920361328125,6.832050323486328,7.16295051574707,-0.6660000085830688
1750559015928807400,9.398807373046875,6.7069501876831055,7.183950424194336,-0.6139500141143799
1750559015938411300,9.408411376953126,6.765000343322754,7.147950172424316,-0.4729500114917755
1750559015948015400,9.418015380859375,6.922950267791748,7.069050312042236,-0.27105000615119934
1750559015957619500,9.427619384765626,7.201050281524658,6.8680500984191895,-0.08700000494718552
1750559015967223000,9.43722314453125,7.440000534057617,6.739050388336182,-0.013050000183284283
1750559015976827100,9.4468271484375,7.459050178527832,6.756000518798828,-0.10395000129938126
1750559015986431200,9.45643115234375,7.335000514984131,6.853950500488281,-0.24000000953674316
1750559015996035000,9.46603515625,7.203000545501709,7.024050235748291,-0.30300000309944153
1750559016005639200,9.47563916015625,7.129050254821777,7.146000385284424,-0.42900002002716064
1750559016015243300,9.4852431640625,6.994950294494629,7.110000133514404,-0.3859500288963318
1750559016024847000,9.49484716796875,6.958950519561768,7.018950462341309,-0.3820500075817108
1750559016034451000,9.504450927734375,7.110000133514404,6.961050510406494,-0.30300000309944153
1750559016044055000,9.514054931640626,7.0570502281188965,6.859050273895264,-0.2569500207901001
1750559016053659100,9.5236591796875,7.083000183105469,6.88200044631958,-0.19995000958442688
1750559016063263000,9.533262939453126,7.210050106048584,6.849000453948975,-0.1879500150680542
1750559016072866800,9.54286669921875,7.36305046081543,6.799050331115723,-0.037050001323223114
1750559016082471000,9.552470947265626,7.387050151824951,6.757950305938721,0.12495000660419464
1750559016092075000,9.562074951171875,7.384950160980225,6.6190505027771,0.283050000667572
1750559016101678800,9.571678955078125,7.3750505447387695,6.547050476074219,0.30000001192092896
1750559016111283000,9.581282958984374,7.231950283050537,6.576000213623047,0.2639999985694885
1750559016120886800,9.59088671875,7.018950462341309,6.703050136566162,0.17100000381469727
1750559016130490600,9.60049072265625,6.919950485229492,6.850950241088867,-0.013050000183284283
1750559016140094700,9.6100947265625,6.844050407409668,6.957000255584717,-0.13305000960826874
1750559016149698800,9.61969873046875,6.784050464630127,6.994950294494629,-0.17100000381469727
1750559016159302700,9.629302734375,6.862950325012207,6.9810004234313965,-0.17595000565052032
1750559016168906800,9.63890673828125,7.062000274658203,6.906000137329102,-0.25200000405311584
1750559016178510600,9.648510498046875,7.2460503578186035,6.913950443267822,-0.34995001554489136
1750559016188114400,9.658114501953126,7.294050216674805,6.946950435638428,-0.3820500075817108
1750559016197718800,9.66771875,7.159950256347656,6.990000247955322,-0.286050021648407
1750559016207322600,9.677322509765625,6.949050426483154,6.958950519561768,-0.09195000678300858
1750559016216926500,9.686926513671875,6.832050323486328,6.98805046081543,-0.09195000678300858
1750559016226530600,9.696530517578125,6.777000427246094,7.002000331878662,-0.16095000505447388
1750559016236134400,9.706134521484374,6.862950325012207,7.038000106811523,-0.2880000174045563
1750559016245738500,9.715738525390625,7.027950286865234,7.038000106811523,-0.4440000355243683
1750559016255342300,9.72534228515625,6.97605037689209,7.024050235748291,-0.5010000467300415
1750559016264946400,9.734946533203125,6.954000473022461,6.985050201416016,-0.3859500288963318
1750559016274550300,9.74455029296875,6.979950428009033,6.904050350189209,-0.24705001711845398
1750559016284154000,9.754154052734375,7.009050369262695,6.862950325012207,-0.22095000743865967
1750559016293758200,9.76375830078125,7.129050254821777,6.849000453948975,-0.24705001711845398
1750559016303362000,9.773362060546875,7.1770501136779785,6.820050239562988,-0.25005000829696655
1750559016312966100,9.782966064453126,6.96405029296875,6.784050464630127,-0.23805001378059387
1750559016322570200,9.7925703125,6.705000400543213,6.829950332641602,-0.18300001323223114
1750559016332174300,9.80217431640625,6.564000129699707,6.8680500984191895,-0.25905001163482666
1750559016341778200,9.811778076171874,6.561000347137451,6.945000171661377,-0.31005001068115234
1750559016351382300,9.82138232421875,6.469950199127197,6.982950210571289,-0.20400001108646393
1750559016360986000,9.830986083984374,6.382050514221191,6.982950210571289,-0.06300000101327896
1750559016370590200,9.840590087890625,6.469950199127197,6.942000389099121,0.06300000101327896
1750559016380194000,9.850194091796874,6.612000465393066,6.904050350189209,0.1489500105381012
1750559016389798100,9.859798095703125,6.880050182342529,6.820050239562988,0.06000000238418579
1750559016399402200,9.86940234375,7.312950134277344,6.849000453948975,-0.07304999977350235
1750559016409006000,9.879006103515625,7.648050308227539,6.813000202178955,-0.12495000660419464
1750559016418610000,9.88860986328125,7.666950225830078,6.777000427246094,-0.013050000183284283
1750559016428214000,9.898214111328125,7.561950206756592,6.732000350952148,0.05295000225305557
1750559016437817900,9.90781787109375,7.371000289916992,6.732000350952148,0.040950000286102295
1750559016447422000,9.917421875,7.264950275421143,6.757950305938721,-0.12495000660419464
1750559016457025800,9.92702587890625,7.215000152587891,6.856050491333008,-0.35295000672340393
1750559016466630000,9.9366298828125,7.23900032043457,6.877950191497803,-0.5659500360488892
1750559016476233700,9.946233642578125,7.2870001792907715,6.916050434112549,-0.4729500114917755
1750559016485837600,9.955837646484374,7.159950256347656,6.913950443267822,-0.18495000898838043
1750559016495441700,9.965441650390625,7.050000190734863,6.849000453948975,0.04800000041723251
1750559016505045500,9.97504541015625,6.949050426483154,6.799050331115723,0.17805001139640808
1750559016514649600,9.984649658203125,6.844050407409668,6.79395055770874,0.19005000591278076
1750559016524253700,9.994253662109376,6.805950164794922,6.7819504737854,0.12495000660419464
1750559016533857500,10.003857421875,6.778950214385986,6.753000259399414,0.031950000673532486
1750559016543461600,10.013461669921876,6.77400016784668,6.79395055770874,-0.043950002640485764
1750559016553065500,10.0230654296875,6.721950531005859,6.813000202178955,-0.0010500000789761543
1750559016562669600,10.032669677734376,6.643050193786621,6.796050548553467,0.07005000114440918
1750559016572273400,10.0422734375,6.730950355529785,6.777000427246094,0.04605000093579292
1750559016581877200,10.051877197265625,6.94005012512207,6.813000202178955,-0.010050000622868538
1750559016591481600,10.061481689453124,6.96405029296875,6.7819504737854,-0.039000000804662704
1750559016601085200,10.071085205078125,6.943950176239014,6.739050388336182,-0.006000000052154064
1750559016610689300,10.080689208984374,6.978000164031982,6.741000175476074,-0.019950000569224358
1750559016620293000,10.090293212890625,7.105050563812256,6.805950164794922,-0.025050001218914986
1750559016629897200,10.099897216796874,7.1260504722595215,6.823050498962402,-0.039000000804662704
1750559016639501300,10.109501220703125,7.228950500488281,6.799050331115723,-0.11805000901222229
1750559016649105200,10.119105224609376,7.344000339508057,6.763050556182861,-0.16395001113414764
1750559016658709200,10.128709228515625,7.3560004234313965,6.775050163269043,-0.24705001711845398
1750559016668313000,10.13831298828125,7.407000541687012,6.859050273895264,-0.35295000672340393
1750559016677917200,10.147917236328125,7.348950386047363,6.901950359344482,-0.3859500288963318
1750559016687521300,10.157521240234376,7.138050556182861,6.910950183868408,-0.322050005197525
1750559016697125000,10.167125,7.021050453186035,6.933000564575195,-0.15600000321865082
1750559016706729000,10.17672900390625,7.003950119018555,6.877950191497803,-0.0990000069141388
1750559016716333000,10.1863330078125,7.033050537109375,6.874950408935547,-0.08205000311136246
1750559016725937000,10.19593701171875,6.98805046081543,6.837000370025635,-0.006000000052154064
1750559016735541000,10.205541015625,6.87000036239624,6.732000350952148,0.10395000129938126
1750559016745144800,10.215144775390625,6.7669501304626465,6.667050361633301,0.19500000774860382
1750559016754749000,10.2247490234375,6.717000484466553,6.688950538635254,0.18495000898838043
1750559016764353000,10.23435302734375,6.796050548553467,6.721950531005859,0.09405000507831573
1750559016773956900,10.243956787109376,6.801000118255615,6.715050220489502,0.1680000126361847
1750559016783561000,10.25356103515625,6.681000232696533,6.700050354003906,0.24000000953674316
1750559016793164800,10.263164794921876,6.4800004959106445,6.652950286865234,0.3240000009536743
1750559016802769000,10.272768798828125,6.058950424194336,6.5209503173828125,0.5869500041007996
1750559016812372700,10.282372802734375,5.806950092315674,6.415950298309326,0.7210500240325928
1750559016821976600,10.2919765625,5.814000129699707,6.442050457000732,0.4939500093460083
1750559016831580700,10.30158056640625,6.0319504737854,6.451050281524658,0.49605002999305725
1750559016841184500,10.3111845703125,6.370050430297852,6.4110002517700195,0.208950012922287
1750559016850788600,10.32078857421875,7.399050235748291,6.753000259399414,-0.1660500019788742
1750559016860392700,10.330392822265624,7.948050498962402,6.739050388336182,-0.2740500271320343
1750559016869996500,10.33999658203125,8.146050453186035,6.68595027923584,-0.3240000009536743
1750559016879600600,10.3496005859375,8.268000602722168,6.652950286865234,-0.46800002455711365
1750559016889204700,10.359204833984375,8.170050621032715,6.436950206756592,-0.5350500345230103
1750559016898808600,10.36880859375,7.8349504470825195,6.418050289154053,-0.6739500164985657
1750559016908412400,10.378412353515625,7.873050212860107,6.59505033493042,-0.7840500473976135
1750559016918016500,10.3880166015625,7.960050582885742,6.6409502029418945,-0.7020000219345093
1750559016927620400,10.397620361328125,9.624000549316406,6.76800012588501,-0.9610500335693359
1750559016937224400,10.407224365234375,13.279951095581055,6.724050521850586,-1.1119500398635864
1750559016946828300,10.416828369140624,16.84200096130371,5.994000434875488,-1.1089500188827515
1750559016956432400,10.426432373046875,19.117050170898438,5.104050159454346,-1.224000096321106
1750559016966036200,10.4360361328125,19.071001052856445,4.444950103759766,-0.89205002784729
1750559016975640300,10.445640380859375,18.135000228881836,4.540950298309326,-0.922950029373169
1750559016985244200,10.455244140625,17.637001037597656,4.852050304412842,-1.308000087738037
1750559016994848000,10.464847900390625,16.990951538085938,5.392950057983398,-2.7330000400543213
1750559017004452000,10.4744521484375,18.006000518798828,5.90595006942749,-4.7059502601623535
1750559017014056200,10.48405615234375,18.601951599121094,5.023950099945068,-5.116950035095215
1750559017023660000,10.493659912109376,15.805951118469238,4.06695032119751,-5.425950050354004
1750559017033264000,10.50326416015625,13.593000411987305,3.1110000610351562,-4.42995023727417
1750559017042868000,10.512867919921876,10.738950729370117,2.197050094604492,-3.343050241470337
1750559017052472000,10.52247216796875,6.370050430297852,2.4340500831604004,-3.0889501571655273
1750559017062076000,10.532075927734375,2.63700008392334,3.66195011138916,-3.1680002212524414
1750559017071680000,10.541679931640624,-0.10305000841617584,4.34505033493042,-2.884050130844116
1750559017081284000,10.5512841796875,-3.252000093460083,4.938000202178955,-2.896050214767456
1750559017090888000,10.560887939453124,-5.6509504318237305,5.713950157165527,-2.206050157546997
1750559017100492000,10.570491943359375,-7.237950325012207,6.526050090789795,-2.4690001010894775
1750559017110096000,10.580095947265624,-6.300000190734863,7.5859503746032715,-2.244000196456909
1750559017119699700,10.58969970703125,-5.293950080871582,7.135950565338135,-0.753000020980835
1750559017129303800,10.5993037109375,-5.929050445556641,6.3100504875183105,0.22095000743865967
1750559017138907600,10.60890771484375,-6.457950115203857,6.133050441741943,1.3369500637054443
1750559017148511700,10.61851171875,-6.654000282287598,6.210000514984131,1.662000060081482
1750559017158115800,10.62811572265625,-8.473950386047363,6.472950458526611,1.3459500074386597
1750559017167719700,10.6377197265625,-10.140000343322754,7.0570502281188965,1.5310500860214233
1750559017177323800,10.64732373046875,-10.993050575256348,7.498050212860107,1.9500000476837158
1750559017186927600,10.656927734375,-12.144001007080078,7.6650004386901855,2.364000082015991
1750559017196531500,10.666531494140624,-13.441950798034668,7.500000476837158,2.8429501056671143
1750559017206135600,10.676135498046875,-13.803000450134277,7.53795051574707,2.7900002002716064
1750559017215739400,10.685739501953124,-13.092000961303711,7.420950412750244,1.702950119972229
1750559017225343500,10.695343505859375,-10.842000961303711,7.084050178527832,0.47505003213882446
1750559017234947300,10.704947265625,-8.220000267028809,6.6910505294799805,0.12495000660419464
1750559017244551400,10.714551513671875,-6.709050178527832,6.372000217437744,0.027000000700354576
1750559017254155300,10.7241552734375,-5.395050048828125,5.997000217437744,0.09405000507831573
1750559017263759400,10.73375927734375,-5.115000247955322,5.692950248718262,0.34995001554489136
1750559017273363500,10.743363525390626,-4.585050106048584,5.5489501953125,-0.18000000715255737
1750559017282967000,10.752967041015625,-2.992950201034546,4.300950050354004,-1.6309500932693481
1750559017292571400,10.7625712890625,1.1569499969482422,3.6790502071380615,-4.969050407409668
1750559017302175200,10.77217529296875,9.098999977111816,4.9960503578186035,-6.274050235748291
1750559017311779000,10.781779052734375,16.684051513671875,4.960050106048584,-4.855950355529785
1750559017321383200,10.791383056640624,20.557950973510742,4.1579999923706055,-2.6230502128601074
1750559017330987000,10.800987060546875,21.59295082092285,4.219950199127197,-1.6669501066207886
1750559017340591000,10.810591064453124,21.094951629638672,4.644000053405762,-0.2670000195503235
1750559017350195000,10.82019482421875,18.766950607299805,4.869000434875488,1.0920000076293945
1750559017359799000,10.829799072265626,16.318050384521484,5.08905029296875,1.39395010471344
1750559017369403100,10.839403076171875,14.010000228881836,5.82705020904541,1.168950080871582
1750559017379007000,10.849007080078126,11.676000595092773,6.31695032119751,1.015950083732605
1750559017388610800,10.85861083984375,10.123950004577637,6.50700044631958,0.8839500546455383
1750559017398215000,10.86821484375,9.133049964904785,6.367950439453125,0.8479500412940979
1750559017407819000,10.877819091796875,8.577000617980957,6.303000450134277,0.9529500603675842
1750559017417422800,10.8874228515625,8.568000793457031,6.31695032119751,1.2769500017166138
1750559017427027000,10.89702685546875,8.259000778198242,6.364950180053711,1.495050072669983
1750559017436630800,10.906630859375,7.9960503578186035,6.739050388336182,1.4250000715255737
1750559017446235000,10.91623486328125,8.42400074005127,6.8110504150390625,1.339050054550171
1750559017455838700,10.925838623046875,8.88900089263916,6.499050140380859,1.420050024986267
1750559017465442800,10.93544287109375,8.829000473022461,6.403950214385986,1.3099501132965088
1750559017475046700,10.945046630859375,8.769000053405762,6.688950538635254,0.9199500679969788
1750559017484650800,10.954650634765626,8.515049934387207,6.825000286102295,0.47700002789497375
1750559017494254600,10.964254638671875,8.029050827026367,6.885000228881836,0.3859500288963318
1750559017503858700,10.973858642578126,7.593000411987305,6.904050350189209,0.2850000262260437
1750559017513462500,10.983462646484375,7.3660502433776855,6.928050518035889,0.18000000715255737
1750559017523066600,10.993066650390626,7.399050235748291,6.892050266265869,0.22305001318454742
1750559017532670700,11.002670654296875,7.770000457763672,7.021050453186035,0.15900000929832458
1750559017542274600,11.012274658203125,8.034000396728516,6.957000255584717,0.06000000238418579
1750559017551878700,11.021878662109375,8.017050743103027,7.063950538635254,-0.2740500271320343
1750559017561482500,11.031482421875,7.72005033493042,7.2270002365112305,-0.44895002245903015
1750559017571086600,11.041086669921874,7.452000141143799,7.278000354766846,-0.41700002551078796
1750559017580690400,11.0506904296875,7.213050365447998,7.291950225830078,-0.34995001554489136
1750559017590294500,11.06029443359375,7.179000377655029,7.231950283050537,-0.27105000615119934
1750559017599898400,11.0698984375,7.276950359344482,7.135950565338135,-0.24705001711845398
1750559017609502500,11.07950244140625,7.402050495147705,7.119000434875488,-0.40995001792907715
1750559017619106300,11.089106201171875,7.440000534057617,7.099950313568115,-0.5059500336647034
1750559017628710400,11.09871044921875,7.15500020980835,7.0909504890441895,-0.4129500091075897
1750559017638314200,11.108314208984375,6.79395055770874,7.084050178527832,-0.30000001192092896
1750559017647918300,11.11791845703125,6.468000411987305,7.171950340270996,-0.1680000126361847
1750559017657522400,11.1275224609375,5.986950397491455,7.153050422668457,-0.05100000277161598
1750559017667126300,11.137126220703125,5.806950092315674,7.021050453186035,0.20595000684261322
1750559017676730400,11.14673046875,5.970000267028809,6.853950500488281,0.4050000309944153
1750559017686334000,11.156333984375,6.457950115203857,6.732000350952148,0.4440000355243683
1750559017695938000,11.16593798828125,6.865050315856934,6.610050201416016,0.45795002579689026
1750559017705542100,11.175542236328125,7.07895040512085,6.721950531005859,0.20595000684261322
1750559017715146000,11.18514599609375,7.248000144958496,6.934950351715088,-0.13500000536441803
1750559017724750000,11.19475,7.288950443267822,7.018950462341309,-0.4339500069618225
1750559017734354000,11.20435400390625,7.23900032043457,7.030950546264648,-0.5230500102043152
1750559017743958000,11.2139580078125,6.832050323486328,6.978000164031982,-0.46095001697540283
1750559017753562000,11.22356201171875,6.50100040435791,6.906000137329102,-0.4050000309944153
1750559017763166000,11.233166015625,6.636000156402588,6.957000255584717,-0.44895002245903015
1750559017772770000,11.24277001953125,6.898950099945068,6.892050266265869,-0.39795002341270447
1750559017782373600,11.25237353515625,7.006950378417969,6.7819504737854,-0.24495001137256622
1750559017791978000,11.26197802734375,7.071000099182129,6.705000400543213,-0.07500000298023224
1750559017801581600,11.27158154296875,7.171950340270996,6.610050201416016,0.040950000286102295
1750559017811185700,11.281185546875,7.348950386047363,6.5620503425598145,0.11505000293254852
1750559017820789500,11.29078955078125,7.471050262451172,6.51900053024292,0.0799500048160553
1750559017830393600,11.3003935546875,7.33905029296875,6.553950309753418,0.036000002175569534
1750559017839997700,11.309997802734374,7.228950500488281,6.655050277709961,0.04605000093579292
1750559017849601500,11.3196015625,6.97605037689209,6.741000175476074,0.10395000129938126
1750559017859205600,11.32920556640625,6.7099504470825195,6.733950138092041,0.19905000925064087
1750559017868809500,11.3388095703125,6.600000381469727,6.732000350952148,0.21405000984668732
1750559017878413300,11.348413330078126,6.8680500984191895,6.736050128936768,0.1870500147342682
1750559017888017400,11.358017333984375,7.07895040512085,6.676950454711914,0.19005000591278076
1750559017897621500,11.36762158203125,7.123950481414795,6.693000316619873,0.12300000339746475
1750559017907225300,11.377225341796875,7.134000301361084,6.847050189971924,0.019950000569224358
1750559017916829200,11.3868291015625,7.045050144195557,6.970950126647949,-0.08205000311136246
1750559017926433300,11.396433349609374,6.892050266265869,7.062000274658203,-0.2760000228881836
1750559017936037400,11.406037353515625,6.925050258636475,7.134000301361084,-0.3360000252723694
1750559017945641200,11.41564111328125,7.018950462341309,7.05495023727417,-0.32895001769065857
1750559017955245300,11.425245361328125,6.931950092315674,7.033050537109375,-0.32895001769065857
1750559017964849200,11.43484912109375,6.834000110626221,7.087950229644775,-0.29805001616477966
1750559017974453200,11.444453369140625,6.928050518035889,7.086000442504883,-0.20205001533031464
1750559017984057300,11.454057373046876,6.838950157165527,7.038000106811523,-0.04605000093579292
1750559017993661200,11.4636611328125,6.841050148010254,7.002000331878662,0.039000000804662704
1750559018003265000,11.47326513671875,6.954000473022461,6.856050491333008,0.10395000129938126
1750559018012868900,11.482868896484375,6.94005012512207,6.849000453948975,0.06300000101327896
1750559018022473000,11.492472900390625,6.922950267791748,6.937950134277344,-0.11805000901222229
1750559018032077000,11.5020771484375,6.814950466156006,7.024050235748291,-0.24300001561641693
1750559018041681000,11.511680908203125,6.6739501953125,7.012050151824951,-0.208950012922287
1750559018051284700,11.52128466796875,6.814950466156006,7.014000415802002,-0.25200000405311584
1750559018060889000,11.53088916015625,7.021050453186035,6.97605037689209,-0.15405000746250153
1750559018070492700,11.54049267578125,7.146000385284424,6.825000286102295,-0.030000001192092896
1750559018080096800,11.5500966796875,7.15500020980835,6.744000434875488,0.06495000422000885
1750559018089700900,11.559700927734376,7.045050144195557,6.739050388336182,0.06495000422000885
1750559018099304700,11.5693046875,6.892050266265869,6.814950466156006,0.11295000463724136
1750559018108908800,11.57890869140625,6.667050361633301,6.918000221252441,0.13500000536441803
1750559018118512600,11.5885126953125,6.625950336456299,6.966000556945801,0.15405000746250153
1750559018128116700,11.59811669921875,6.820050239562988,6.910950183868408,0.10095000267028809
1750559018137720800,11.607720947265625,6.961050510406494,6.906000137329102,0.00795000046491623
1750559018147324400,11.617324462890625,6.98805046081543,6.814950466156006,0.08700000494718552
1750559018156928500,11.626928466796874,7.159950256347656,6.727050304412842,0.1080000028014183
1750559018166532400,11.636532470703125,7.41795015335083,6.753000259399414,-0.04605000093579292
1750559018176136400,11.646136474609374,7.408950328826904,6.841950416564941,-0.18000000715255737
1750559018185740500,11.655740478515625,7.23900032043457,6.930000305175781,-0.17805001139640808
1750559018195344400,11.665344482421874,7.003950119018555,6.970950126647949,-0.07304999977350235
1750559018204948500,11.674948486328125,6.826950550079346,6.954000473022461,-0.018000001087784767
1750559018214552300,11.68455224609375,6.910950183868408,6.874950408935547,-0.037050001323223114
1750559018224156400,11.694156494140625,7.312950134277344,6.813000202178955,-0.07500000298023224
1750559018233760000,11.703760009765626,7.533000469207764,6.733950138092041,-0.14205001294612885
1750559018243364400,11.7133642578125,7.64400053024292,6.748050212860107,-0.11595000326633453
1750559018252968200,11.72296826171875,7.5450005531311035,6.787050247192383,-0.05100000277161598
1750559018262572000,11.732572021484375,7.390050411224365,6.801000118255615,0.039000000804662704
1750559018272176000,11.742176025390625,7.272000312805176,6.89400053024292,0.003000000026077032
1750559018281780000,11.751780029296874,7.083000183105469,6.922950267791748,-0.0970500037074089
1750559018291384000,11.761384033203125,7.059000492095947,6.97605037689209,-0.286050021648407
1750559018300988000,11.77098779296875,7.147950172424316,7.021050453186035,-0.3379500210285187
1750559018310592000,11.780592041015625,6.990000247955322,6.906000137329102,-0.2670000195503235
1750559018320195800,11.79019580078125,6.8680500984191895,6.904050350189209,-0.1969500035047531
1750559018329800000,11.799800048828125,6.837000370025635,6.9210004806518555,-0.0580500029027462
1750559018339404000,11.809404052734376,6.87000036239624,6.877950191497803,0.07200000435113907
1750559018349008000,11.8190078125,7.045050144195557,6.847050189971924,0.16305001080036163
1750559018358612000,11.828612060546876,7.1170501708984375,6.729000091552734,0.21105000376701355
1750559018368215800,11.8382158203125,7.122000217437744,6.703050136566162,0.11805000901222229
1750559018377819600,11.847819580078125,7.119000434875488,6.733950138092041,-0.031950000673532486
1750559018387423700,11.857423828125,7.039950370788574,6.739050388336182,-0.0580500029027462
1750559018397027600,11.867027587890625,6.837000370025635,6.736050128936768,-0.0799500048160553
1750559018406631700,11.876631591796874,6.8460001945495605,6.825000286102295,-0.20400001108646393
1750559018416235800,11.88623583984375,6.837000370025635,6.969000339508057,-0.30000001192092896
1750559018425839600,11.895839599609374,6.739050388336182,7.0570502281188965,-0.3169500231742859
1750559018435443500,11.905443359375,6.544950485229492,7.069050312042236,-0.3169500231742859
1750559018445047600,11.915047607421876,6.403050422668457,7.0600504875183105,-0.3550500273704529
1750559018454651400,11.9246513671875,6.370050430297852,7.06695032119751,-0.3340500295162201
1750559018464255500,11.93425537109375,6.451050281524658,7.084050178527832,-0.3240000009536743
1750559018473859300,11.943859375,6.820050239562988,7.074000358581543,-0.3169500231742859
1750559018483463400,11.95346337890625,7.069050312042236,7.021050453186035,-0.25005000829696655
1750559018493067500,11.963067626953125,7.1260504722595215,6.877950191497803,-0.13305000960826874
1750559018502671400,11.97267138671875,7.210050106048584,6.733950138092041,-0.003000000026077032
1750559018512275500,11.982275390625,7.258050441741943,6.693000316619873,0.05595000088214874
1750559018521879300,11.99187939453125,7.141050338745117,6.68595027923584,0.12000000476837158
1750559018531483100,12.001483154296874,7.033050537109375,6.757950305938721,0.19200000166893005
1750559018541087200,12.011087158203125,7.002000331878662,6.837000370025635,0.19005000591278076
1750559018550691300,12.02069140625,7.114050388336182,6.838950157165527,0.1660500019788742
1750559018560295400,12.03029541015625,7.216950416564941,6.777000427246094,0.18300001323223114
1750559018569899300,12.039899169921876,7.25100040435791,6.763050556182861,0.15900000929832458
1750559018579503400,12.04950341796875,7.23900032043457,6.729000091552734,0.0799500048160553
1750559018589107200,12.059107177734376,7.045050144195557,6.760050296783447,-0.08505000174045563
1750559018598711000,12.0687109375,6.910950183868408,6.859050273895264,-0.1399500072002411
1750559018608315100,12.078315185546876,6.916050434112549,6.885000228881836,-0.06300000101327896
1750559018617919000,12.0879189453125,6.844050407409668,6.873000144958496,0.06000000238418579
1750559018627523000,12.097523193359375,6.805950164794922,6.88200044631958,0.15405000746250153
1750559018637127200,12.107127197265624,6.886950492858887,6.886950492858887,0.1080000028014183
1750559018646731000,12.11673095703125,7.207950115203857,6.961050510406494,-0.16395001113414764
1750559018656334800,12.1263349609375,7.231950283050537,6.942000389099121,-0.3049500286579132
1750559018665939000,12.13593896484375,7.045050144195557,6.969000339508057,-0.3340500295162201
1750559018675542800,12.145542724609374,7.027950286865234,7.012050151824951,-0.34800001978874207
1750559018685146600,12.155146728515625,6.990000247955322,7.029000282287598,-0.31200000643730164
1750559018694750700,12.164750732421876,6.834000110626221,7.045050144195557,-0.1660500019788742
1750559018704354800,12.174354736328125,6.712050437927246,6.994950294494629,0.003000000026077032
1750559018713958700,12.183958740234376,6.724050521850586,6.933000564575195,-0.031950000673532486
1750559018723562800,12.193562744140625,6.7860002517700195,6.942000389099121,-0.1489500105381012
1750559018733166600,12.20316650390625,6.814950466156006,6.916050434112549,-0.08895000070333481
1750559018742770700,12.212770751953125,6.8610005378723145,6.87000036239624,-0.010050000622868538
1750559018752374500,12.22237451171875,6.961050510406494,6.847050189971924,0.07695000618696213
1750559018761978600,12.231978515625,7.099950313568115,6.814950466156006,0.06300000101327896
1750559018771582500,12.24158251953125,7.320000171661377,6.808050155639648,-0.031950000673532486
1750559018781186600,12.2511865234375,7.380000114440918,6.784050464630127,-0.1279500126838684
1750559018790790400,12.260790283203125,7.335000514984131,6.765000343322754,-0.14205001294612885
1750559018800394500,12.27039453125,7.252950191497803,6.744000434875488,-0.08700000494718552
1750559018809998300,12.279998291015625,7.135950565338135,6.796050548553467,-0.08505000174045563
1750559018819602400,12.2896025390625,7.134000301361084,6.825000286102295,-0.08895000070333481
1750559018829206500,12.29920654296875,7.1260504722595215,6.814950466156006,-0.031950000673532486
1750559018838810400,12.308810302734376,6.990000247955322,6.78000020980835,-0.010050000622868538
1750559018848414500,12.31841455078125,6.973050117492676,6.733950138092041,0.08205000311136246
1750559018858018000,12.32801806640625,7.081050395965576,6.667050361633301,0.15405000746250153
1750559018867622400,12.337622314453125,7.189050197601318,6.604950428009033,0.15405000746250153
1750559018877226200,12.347226318359375,7.201050281524658,6.660000324249268,0.20400001108646393
1750559018886830000,12.356830078125,7.071000099182129,6.720000267028809,0.22995001077651978
1750559018896434200,12.36643408203125,7.014000415802002,6.7819504737854,0.17100000381469727
1750559018906038000,12.3760380859375,6.853050231933594,6.805950164794922,0.10605000704526901
