time,seconds_elapsed,z,y,x
1750561114868904200,0.044904296875,8.11500072479248,5.149050235748291,-0.7309500575065613
1750561114878509000,0.054509033203125,8.086950302124023,5.254050254821777,-0.13695000112056732
1750561114888114000,0.064114013671875,7.468950271606445,5.104050159454346,0.49605002999305725
1750561114897718300,0.07371826171875,6.394050121307373,5.059950351715088,0.7330500483512878
1750561114907323100,0.0833232421875,5.63700008392334,4.914000034332275,0.8070000410079956
1750561114916927700,0.092927734375,6.430050373077393,5.299950122833252,0.29295000433921814
1750561114926532400,0.102532470703125,8.94105052947998,6.379950523376465,-0.7069500088691711
1750561114936137000,0.112136962890625,9.73905086517334,5.611050128936768,-0.5520000457763672
1750561114945741800,0.121741943359375,8.319000244140625,4.876049995422363,0.2160000056028366
1750561114955346400,0.131346435546875,7.864050388336182,4.828050136566162,-0.0010500000789761543
1750561114964951000,0.140950927734375,6.820050239562988,4.000050067901611,-1.0350000858306885
1750561114974556000,0.150555908203125,7.203000545501709,4.371000289916992,-2.2009501457214355
1750561114984160500,0.160160400390625,8.070000648498535,5.36400032043457,-2.2420501708984375
1750561114993765400,0.169765380859375,7.737000465393066,5.611050128936768,-1.5480000972747803
1750561115003370000,0.179369873046875,8.209050178527832,5.596950054168701,-0.9079500436782837
1750561115012974600,0.188974609375,9.123000144958496,4.194000244140625,0.49605002999305725
1750561115022579500,0.198579345703125,9.244950294494629,3.8149502277374268,0.283050000667572
1750561115032184000,0.20818408203125,9.271950721740723,4.531050205230713,-0.25005000829696655
1750561115041788700,0.21778857421875,9.480000495910645,3.5299501419067383,1.2600001096725464
1750561115051393300,0.227393310546875,8.620050430297852,4.371000289916992,0.520050048828125
1750561115060998100,0.236998046875,7.737000465393066,4.98105001449585,-0.322050005197525
1750561115070602800,0.246602783203125,7.189050197601318,5.341050148010254,-0.7050000429153442
1750561115080207400,0.256207275390625,5.908050060272217,5.512950420379639,-0.6109500527381897
1750561115089812200,0.265812255859375,5.407050132751465,5.4340500831604,-0.2160000056028366
1750561115099417000,0.2754169921875,5.505000114440918,5.287950038909912,-0.06300000101327896
1750561115109021700,0.285021728515625,6.4800004959106445,4.906949996948242,-0.5010000467300415
1750561115118626300,0.294626220703125,8.315999984741211,5.299950122833252,-1.8300000429153442
1750561115128231000,0.30423095703125,9.71505069732666,5.307000160217285,-1.76295006275177
1750561115137835800,0.313835693359375,10.395000457763672,5.110950469970703,-1.2390000820159912
1750561115147440400,0.3234404296875,9.801000595092773,4.941000461578369,-0.7690500617027283
1750561115157045000,0.333044921875,9.217050552368164,4.797000408172607,-0.8700000643730164
1750561115166649900,0.34264990234375,8.6850004196167,4.6369500160217285,-1.171950101852417
1750561115176254500,0.35225439453125,8.613000869750977,4.684950351715088,-1.210050106048584
1750561115185859000,0.361859130859375,9.457950592041016,4.689000129699707,-1.4800500869750977
1750561115195463700,0.371463623046875,10.267950057983398,4.873950004577637,-1.168950080871582
1750561115205068500,0.381068603515625,10.272000312805176,4.929000377655029,-1.152000069618225
1750561115214673200,0.390673095703125,9.520950317382812,5.041050434112549,-0.9679500460624695
1750561115224278000,0.400278076171875,8.509950637817383,4.888050079345703,-0.9010500311851501
1750561115233882600,0.409882568359375,7.636050224304199,4.89300012588501,-1.0350000858306885
1750561115243487500,0.419487548828125,7.240950107574463,5.041050434112549,-0.820050060749054
1750561115253091800,0.429091796875,7.267950534820557,4.938000202178955,-0.48900002241134644
1750561115262696700,0.43869677734375,7.681950569152832,5.00100040435791,-0.15195000171661377
1750561115272301300,0.44830126953125,8.086950302124023,5.221050262451172,-0.14400000870227814
1750561115281906000,0.457906005859375,8.118000030517578,5.118000030517578,-0.25005000829696655
1750561115291510800,0.4675107421875,8.151000022888184,5.190000057220459,-0.5779500007629395
1750561115301115400,0.477115478515625,8.107950210571289,5.263950347900391,-0.89205002784729
1750561115310720000,0.486719970703125,8.43600082397461,5.296950340270996,-1.1959500312805176
1750561115320324900,0.496324951171875,8.874000549316406,5.329050064086914,-1.2750000953674316
1750561115329929500,0.505929443359375,9.457950592041016,5.185050010681152,-0.7980000376701355
1750561115339534000,0.5155341796875,9.612000465393066,4.9960503578186035,-0.31005001068115234
1750561115349138700,0.525138671875,9.355050086975098,4.924050331115723,-0.0580500029027462
1750561115358743600,0.53474365234375,8.800050735473633,5.098950386047363,-0.25905001163482666
1750561115368348200,0.54434814453125,8.242050170898438,5.27400016784668,-0.8119500279426575
1750561115377952800,0.553952880859375,7.768050193786621,5.44605016708374,-1.3900500535964966
1750561115387557600,0.5635576171875,7.591050148010254,5.347950458526611,-1.453950047492981
1750561115397162200,0.573162353515625,7.399050235748291,4.966950416564941,-1.0260000228881836
1750561115406766800,0.582766845703125,8.36400032043457,5.00100040435791,-1.1929500102996826
1750561115416371500,0.592371337890625,8.575050354003906,5.359950065612793,-1.1119500398635864
1750561115425976300,0.601976318359375,8.653950691223145,5.250000476837158,-0.41700002551078796
1750561115435581000,0.611580810546875,9.10200023651123,4.953000068664551,-0.18300001323223114
1750561115445185800,0.621185791015625,9.193050384521484,5.008050441741943,-0.3169500231742859
1750561115454790400,0.630790283203125,8.773950576782227,5.131950378417969,-0.736050009727478
1750561115464395000,0.64039501953125,8.197050094604492,5.344950199127197,-0.9439500570297241
1750561115473999600,0.64999951171875,7.9069504737854,5.443050384521484,-0.8269500136375427
1750561115483604500,0.6596044921875,8.247000694274902,5.455050468444824,-0.6019500494003296
1750561115493209000,0.669208984375,8.447999954223633,5.386050224304199,-0.21405000984668732
1750561115502813700,0.678813720703125,8.143950462341309,5.329050064086914,0.07200000435113907
1750561115512418300,0.688418212890625,7.9960503578186035,5.443050384521484,-0.08505000174045563
1750561115522023200,0.698023193359375,8.154000282287598,5.518050193786621,-0.3820500075817108
1750561115531627800,0.707627685546875,8.557950019836426,5.439000129699707,-0.931950032711029
1750561115541232400,0.717232421875,8.494050025939941,5.640000343322754,-0.9250500202178955
1750561115550837200,0.726837158203125,8.31195068359375,5.5320000648498535,-0.6109500527381897
1750561115560441900,0.73644189453125,8.185050010681152,5.218050479888916,-0.19200000166893005
1750561115570046500,0.74604638671875,8.086950302124023,5.2420501708984375,-0.034050002694129944
1750561115579651300,0.7556513671875,8.023950576782227,5.355000019073486,-0.019950000569224358
1750561115589256000,0.765255859375,7.837050437927246,5.278050422668457,0.05100000277161598
1750561115598860800,0.77486083984375,7.73205041885376,5.083950042724609,0.30000001192092896
1750561115608465400,0.78446533203125,7.656000137329102,5.460000038146973,0.2569500207901001
1750561115618070000,0.794070068359375,7.629000186920166,5.332950115203857,0.20595000684261322
1750561115627675000,0.8036748046875,7.666950225830078,5.074950218200684,0.06300000101327896
1750561115637279500,0.813279541015625,7.813950538635254,5.026950359344482,-0.36195001006126404
1750561115646884000,0.822884033203125,8.105999946594238,4.945050239562988,-0.8119500279426575
1750561115656488700,0.83248876953125,8.347050666809082,4.969050407409668,-1.1670000553131104
1750561115666093600,0.842093505859375,8.553000450134277,4.921950340270996,-1.1020500659942627
1750561115675698200,0.8516982421875,8.914950370788574,4.966950416564941,-0.7620000243186951
1750561115685302800,0.861302734375,9.291000366210938,4.98900032043457,-0.6070500016212463
1750561115694907600,0.87090771484375,9.541950225830078,4.870950222015381,-0.5080500245094299
1750561115704512300,0.88051220703125,9.967950820922852,4.843050003051758,-0.6330000162124634
1750561115714116900,0.890116943359375,10.390050888061523,4.749000072479248,-0.7219500541687012
1750561115723721700,0.8997216796875,10.272000312805176,4.833000183105469,-0.8629500269889832
1750561115733326600,0.90932666015625,9.20895004272461,4.933950424194336,-1.0500000715255737
1750561115742931200,0.91893115234375,7.930950164794922,5.035950183868408,-1.0830000638961792
1750561115752535800,0.928535888671875,7.021050453186035,5.08905029296875,-0.9490500688552856
1750561115762140400,0.938140380859375,6.8680500984191895,5.041050434112549,-0.6570000052452087
1750561115771745300,0.947745361328125,7.234050273895264,5.041050434112549,-0.5080500245094299
1750561115781350000,0.957349853515625,8.010000228881836,4.984050273895264,-0.597000002861023
1750561115790954500,0.96695458984375,8.905050277709961,5.002950191497803,-0.7480500340461731
1750561115800559000,0.97655908203125,9.324000358581543,4.990950107574463,-0.6139500141143799
1750561115810164000,0.9861640625,9.115950584411621,5.032050132751465,-0.3049500286579132
1750561115819768600,0.9957685546875,8.458050727844238,5.046000003814697,-0.13500000536441803
1750561115829373200,1.005373291015625,7.930950164794922,5.127000331878662,-0.015000000596046448
1750561115838978300,1.014978271484375,7.675050258636475,5.202000141143799,-0.0799500048160553
1750561115848582700,1.024582763671875,7.7470502853393555,5.19195032119751,-0.2350500077009201
1750561115858187500,1.0341875,7.90500020980835,5.245050430297852,-0.44895002245903015
1750561115867792100,1.043792236328125,8.212950706481934,5.182950019836426,-0.6589500308036804
1750561115877396700,1.053396728515625,8.407050132751465,5.0530500411987305,-0.4249500334262848
1750561115887001300,1.06300146484375,8.745000839233398,5.098950386047363,-0.24300001561641693
1750561115896606200,1.072606201171875,8.818950653076172,5.281050205230713,-0.13005000352859497
1750561115906210800,1.0822109375,8.515049934387207,5.329050064086914,-0.006000000052154064
1750561115915815400,1.0918154296875,7.852050304412842,5.254050254821777,0.015000000596046448
1750561115925420300,1.101420166015625,7.519050121307373,5.10105037689209,0.07500000298023224
1750561115935025200,1.111025146484375,7.785000324249268,5.190000057220459,-0.2760000228881836
1750561115944629800,1.120629638671875,8.212950706481934,5.329050064086914,-0.6160500049591064
1750561115954234600,1.130234619140625,8.599050521850586,5.2759504318237305,-0.7980000376701355
1750561115963839200,1.139839111328125,8.640000343322754,5.235000133514404,-0.8719500303268433
1750561115973443800,1.14944384765625,8.640000343322754,5.305050373077393,-0.8389500379562378
1750561115983048400,1.15904833984375,8.545949935913086,5.347950458526611,-0.6450000405311584
1750561115992653300,1.1686533203125,8.449950218200684,5.263950347900391,-0.42705002427101135
1750561116002258000,1.1782578125,8.410050392150879,5.1660003662109375,-0.30300000309944153
1750561116011862500,1.187862548828125,8.625,5.131950378417969,-0.3769500255584717
1750561116021467100,1.197467041015625,8.862000465393066,5.07705020904541,-0.5730000138282776
1750561116031071700,1.20707177734375,9.123000144958496,4.9960503578186035,-0.7069500088691711
1750561116040676600,1.216676513671875,9.15000057220459,5.044050216674805,-0.6660000085830688
1750561116050281500,1.226281494140625,8.656050682067871,4.998000144958496,-0.32895001769065857
1750561116059885800,1.2358857421875,7.9960503578186035,4.942950248718262,-0.06105000153183937
1750561116069491000,1.245490966796875,7.521000385284424,4.957050323486328,-0.07500000298023224
1750561116079095600,1.255095458984375,7.452000141143799,5.047950267791748,-0.325950026512146
1750561116088700200,1.2647001953125,7.8760504722595215,5.062950134277344,-0.6499500274658203
1750561116098304800,1.2743046875,8.506050109863281,5.094000339508057,-0.8989500403404236
1750561116107909400,1.283909423828125,8.986950874328613,5.11305046081543,-1.0350000858306885
1750561116117514200,1.29351416015625,8.88900089263916,5.1060004234313965,-0.8869500160217285
1750561116127118800,1.303118896484375,8.464950561523438,5.010000228881836,-0.4939500093460083
1750561116136723500,1.312723388671875,8.094000816345215,4.98105001449585,-0.2070000171661377
1750561116146328000,1.322328125,7.782000541687012,5.029050350189209,0.00795000046491623
1750561116155933000,1.331932861328125,7.893000602722168,5.070000171661377,-0.022050000727176666
1750561116165537800,1.341537841796875,8.209050178527832,5.08905029296875,-0.27900001406669617
1750561116175142400,1.351142333984375,8.752050399780273,5.074950218200684,-0.5250000357627869
1750561116184747000,1.3607470703125,9.004050254821777,5.0530500411987305,-0.753000020980835
1750561116194351900,1.370351806640625,8.770950317382812,5.07705020904541,-0.7980000376701355
1750561116203956700,1.379956787109375,8.414999961853027,5.0530500411987305,-0.7189500331878662
1750561116213561300,1.389561279296875,8.130000114440918,5.06505012512207,-0.6349500417709351
1750561116223166000,1.399166015625,8.206049919128418,5.082000255584717,-0.6190500259399414
1750561116232770600,1.4087705078125,8.521950721740723,5.154000282287598,-0.6690000295639038
1750561116242375200,1.418375244140625,8.707050323486328,5.068050384521484,-0.5610000491142273
1750561116251979800,1.427979736328125,8.809950828552246,4.918950080871582,-0.31005001068115234
1750561116261584600,1.437584716796875,8.677950859069824,4.954950332641602,-0.21195000410079956
1750561116271189200,1.447189208984375,8.356950759887695,4.948050022125244,-0.31200000643730164
1750561116280793900,1.4567939453125,8.058000564575195,4.962000370025635,-0.6469500064849854
1750561116290398500,1.4663984375,7.926000595092773,4.974000453948975,-0.8320500254631042
1750561116300003300,1.47600341796875,7.9960503578186035,5.092050075531006,-0.9300000667572021
1750561116309608200,1.485608154296875,8.038949966430664,5.250000476837158,-0.9199500679969788
1750561116319212800,1.495212890625,8.094000816345215,5.251950263977051,-0.6379500031471252
1750561116328817700,1.504817626953125,8.167950630187988,4.998000144958496,-0.27105000615119934
1750561116338422300,1.51442236328125,8.212950706481934,4.857000350952148,0.15600000321865082
1750561116348027000,1.52402685546875,8.185050010681152,4.890000343322754,0.42000001668930054
1750561116357631700,1.5336318359375,8.33595085144043,4.909950256347656,0.4240500330924988
1750561116367236400,1.543236328125,8.35200023651123,4.98105001449585,0.09600000083446503
1750561116376841000,1.552841064453125,8.28795051574707,5.0560503005981445,-0.35805001854896545
1750561116386445600,1.562445556640625,8.36205005645752,5.044050216674805,-0.7000500559806824
1750561116396050200,1.57205029296875,8.613000869750977,5.029050350189209,-0.9370500445365906
1750561116405655300,1.5816552734375,8.719050407409668,5.074950218200684,-0.8989500403404236
1750561116415260000,1.591260009765625,8.902950286865234,4.930950164794922,-0.41505002975463867
1750561116424864800,1.60086474609375,8.970000267028809,4.882950305938721,0.08895000070333481
1750561116434469400,1.610469482421875,8.782950401306152,4.986000061035156,0.3240000009536743
1750561116444074000,1.620073974609375,8.461950302124023,5.15595006942749,0.24195000529289246
1750561116453678800,1.629678955078125,8.221050262451172,5.245050430297852,0.015000000596046448
1750561116463283200,1.639283203125,8.07194995880127,5.290050029754639,-0.25200000405311584
1750561116472888000,1.64888818359375,8.031000137329102,5.307000160217285,-0.3720000088214874
1750561116482492700,1.65849267578125,8.043000221252441,5.278050422668457,-0.3859500288963318
1750561116492097300,1.66809716796875,7.9069504737854,5.284950256347656,-0.1680000126361847
1750561116501702100,1.6777021484375,7.82295036315918,5.290050029754639,0.016950000077486038
1750561116511306800,1.687306640625,7.921050548553467,5.239950180053711,-0.05100000277161598
1750561116520911600,1.69691162109375,8.242050170898438,5.187000274658203,-0.31005001068115234
1750561116530516200,1.70651611328125,8.57295036315918,5.130000114440918,-0.527999997138977
1750561116540121000,1.71612109375,8.82194995880127,5.119950294494629,-0.5320500135421753
1750561116549725700,1.7257255859375,8.743050575256348,5.044050216674805,-0.3739500045776367
1750561116559330600,1.73533056640625,8.527050018310547,4.986000061035156,-0.19500000774860382
1750561116568935200,1.74493505859375,8.371050834655762,4.986000061035156,-0.15600000321865082
1750561116578539800,1.754539794921875,8.36400032043457,5.038950443267822,-0.2639999985694885
1750561116588144400,1.764144287109375,8.496000289916992,5.00100040435791,-0.39795002341270447
1750561116597749000,1.7737490234375,8.68695068359375,4.974000453948975,-0.46800002455711365
1750561116607353600,1.783353515625,8.692049980163574,4.948050022125244,-0.4510500133037567
1750561116616958500,1.79295849609375,8.414999961853027,4.966950416564941,-0.3739500045776367
1750561116626563300,1.802563232421875,8.055000305175781,4.998000144958496,-0.25200000405311584
1750561116636168200,1.812168212890625,7.930950164794922,5.013000011444092,-0.15195000171661377
1750561116645772800,1.821772705078125,8.130000114440918,5.041050434112549,-0.1660500019788742
1750561116655377400,1.83137744140625,8.601000785827637,5.07705020904541,-0.3460500240325928
1750561116664982000,1.84098193359375,9.1399507522583,5.005050182342529,-0.4990500211715698
1750561116674587000,1.8505869140625,9.418050765991211,4.948050022125244,-0.5179499983787537
1750561116684191500,1.86019140625,9.271950721740723,4.9170002937316895,-0.45600003004074097
1750561116693796000,1.869796142578125,8.773950576782227,4.88100004196167,-0.3049500286579132
1750561116703401000,1.87940087890625,8.161050796508789,4.942950248718262,-0.208950012922287
1750561116713005300,1.88900537109375,7.794000148773193,5.07705020904541,-0.1660500019788742
1750561116722610200,1.898610107421875,7.7059502601623535,5.161050319671631,-0.1469999998807907
1750561116732214800,1.90821484375,7.90500020980835,5.211000442504883,-0.2689500153064728
1750561116741819600,1.917819580078125,8.227950096130371,5.26200008392334,-0.37905001640319824
1750561116751424300,1.92742431640625,8.479050636291504,5.221050262451172,-0.42195001244544983
1750561116761029000,1.937029052734375,8.541000366210938,5.16795015335083,-0.3859500288963318
1750561116770633700,1.9466337890625,8.356950759887695,5.185050010681152,-0.31005001068115234
1750561116780238300,1.95623828125,8.043000221252441,5.2260003089904785,-0.17100000381469727
1750561116789843200,1.96584326171875,7.960050582885742,5.254050254821777,-0.13500000536441803
1750561116799447800,1.97544775390625,8.079000473022461,5.290050029754639,-0.30300000309944153
1750561116809052400,1.985052490234375,8.38800048828125,5.2260003089904785,-0.4729500114917755
1750561116818657300,1.9946572265625,8.589000701904297,5.125050067901611,-0.6160500049591064
1750561116828262000,2.004261962890625,8.557950019836426,5.070000171661377,-0.583050012588501
1750561116837866800,2.01386669921875,8.271000862121582,4.9930500984191895,-0.3840000033378601
1750561116847471400,2.023471435546875,8.059950828552246,5.002950191497803,-0.2740500271320343
1750561116857076200,2.033076171875,8.043000221252441,5.013000011444092,-0.29805001616477966
1750561116866680800,2.042680908203125,8.236949920654297,5.122950077056885,-0.23805001378059387
1750561116876285400,2.052285400390625,8.470050811767578,5.16795015335083,-0.10095000267028809
1750561116885890300,2.061890380859375,8.569950103759766,5.143950462341309,-0.00795000046491623
1750561116895495000,2.071494873046875,8.532000541687012,5.118000030517578,-0.05595000088214874
1750561116905099500,2.081099609375,8.392950057983398,5.161050319671631,-0.1879500150680542
1750561116914704400,2.090704345703125,8.206049919128418,5.218050479888916,-0.28095000982284546
1750561116924309000,2.10030908203125,8.031000137329102,5.2420501708984375,-0.2760000228881836
1750561116933913600,2.10991357421875,7.984050273895264,5.2420501708984375,-0.20205001533031464
1750561116943518200,2.119518310546875,8.023950576782227,5.278050422668457,-0.0580500029027462
1750561116953123000,2.129123046875,8.218050003051758,5.239950180053711,0.004950000438839197
1750561116962727700,2.138727783203125,8.545949935913086,5.218050479888916,-0.10095000267028809
1750561116972332300,2.148332275390625,8.850000381469727,5.15595006942749,-0.20205001533031464
1750561116981937200,2.157937255859375,8.970000267028809,5.029050350189209,-0.283050000667572
1750561116991542000,2.1675419921875,8.9170503616333,5.044050216674805,-0.39795002341270447
1750561117001146600,2.177146728515625,8.563050270080566,5.104050159454346,-0.3739500045776367
1750561117010751200,2.186751220703125,8.173049926757812,5.11305046081543,-0.3139500021934509
1750561117020356000,2.196356201171875,7.930950164794922,5.143950462341309,-0.25005000829696655
1750561117029960700,2.205960693359375,7.948050498962402,5.154000282287598,-0.2670000195503235
1750561117039565300,2.2155654296875,8.142000198364258,5.104050159454346,-0.34095001220703125
1750561117049170000,2.225169921875,8.356950759887695,5.083950042724609,-0.31200000643730164
1750561117058774800,2.23477490234375,8.580000877380371,5.0560503005981445,-0.32895001769065857
1750561117068379400,2.24437939453125,8.66100025177002,5.071950435638428,-0.3379500210285187
1750561117077984300,2.253984375,8.604000091552734,5.119950294494629,-0.286050021648407
1750561117087589000,2.263589111328125,8.356950759887695,5.115000247955322,-0.22305001318454742
1750561117097193700,2.27319384765625,8.200950622558594,5.130000114440918,-0.19995000958442688
1750561117106798300,2.28279833984375,8.142000198364258,5.1469502449035645,-0.2070000171661377
1750561117116403000,2.29240283203125,8.290050506591797,5.107950210571289,-0.26205000281333923
1750561117126007600,2.302007568359375,8.577000617980957,5.023950099945068,-0.38895002007484436
1750561117135612400,2.3116123046875,8.797950744628906,5.008050441741943,-0.5920500159263611
1750561117145217000,2.321217041015625,8.818950653076172,4.957050323486328,-0.5680500268936157
1750561117154822000,2.33082177734375,8.707050323486328,4.953000068664551,-0.40995001792907715
1750561117164426500,2.340426513671875,8.467050552368164,5.041050434112549,-0.19995000958442688
1750561117174031400,2.35003125,8.391000747680664,5.074950218200684,-0.031950000673532486
1750561117183636000,2.359635986328125,8.460000038146973,5.115000247955322,-0.08505000174045563
1750561117193240800,2.36924072265625,8.604000091552734,5.154000282287598,-0.17805001139640808
1750561117202845400,2.378845458984375,8.692049980163574,5.173050403594971,-0.17805001139640808
1750561117212450000,2.388449951171875,8.656050682067871,5.154000282287598,-0.17805001139640808
1750561117222054700,2.3980546875,8.452950477600098,5.206050395965576,-0.208950012922287
1750561117231659500,2.407659423828125,8.006999969482422,5.287950038909912,-0.10095000267028809
1750561117241264000,2.41726416015625,7.615050315856934,5.308950424194336,0.019950000569224358
1750561117250868700,2.42686865234375,7.440000534057617,5.403000354766846,0.06495000422000885
1750561117260473300,2.436473388671875,7.548000335693359,5.416950225830078,-0.019950000569224358
1750561117270078200,2.446078125,7.890000343322754,5.398050308227539,-0.24000000953674316
1750561117279683000,2.45568310546875,8.254050254821777,5.355000019073486,-0.3840000033378601
1750561117289287700,2.46528759765625,8.422050476074219,5.281050205230713,-0.3820500075817108
1750561117298892500,2.474892578125,8.416950225830078,5.235000133514404,-0.2670000195503235
1750561117308497200,2.4844970703125,8.347050666809082,5.290050029754639,-0.17100000381469727
1750561117318101800,2.494101806640625,8.119950294494629,5.2759504318237305,-0.013050000183284283
1750561117327706600,2.50370654296875,7.945050239562988,5.299950122833252,0.10395000129938126
1750561117337311200,2.513311279296875,7.885050296783447,5.329050064086914,0.05595000088214874
1750561117346915800,2.522915771484375,8.0149507522583,5.293050289154053,-0.11100000888109207
1750561117356520700,2.532520751953125,8.151000022888184,5.250000476837158,-0.2670000195503235
1750561117366125300,2.542125244140625,8.332950592041016,5.239950180053711,-0.3720000088214874
1750561117375730000,2.55172998046875,8.419050216674805,5.257050037384033,-0.3739500045776367
1750561117385334500,2.56133447265625,8.449950218200684,5.2260003089904785,-0.3240000009536743
1750561117394939400,2.570939453125,8.482049942016602,5.190000057220459,-0.24300001561641693
1750561117404544300,2.580544189453125,8.42400074005127,5.143950462341309,-0.05595000088214874
1750561117414148900,2.59014892578125,8.260950088500977,5.142000198364258,0.12495000660419464
1750561117423753700,2.599753662109375,8.09595012664795,5.175000190734863,0.07200000435113907
1750561117433358300,2.6093583984375,8.0149507522583,5.1469502449035645,-0.0580500029027462
1750561117442963000,2.618962890625,8.011950492858887,5.098950386047363,-0.22095000743865967
1750561117452567600,2.628567626953125,8.0910005569458,5.10105037689209,-0.33105000853538513
1750561117462172400,2.63817236328125,8.319000244140625,5.074950218200684,-0.4990500211715698
1750561117471777000,2.647777099609375,8.620050430297852,5.07705020904541,-0.6499500274658203
1750561117481381600,2.657381591796875,8.88900089263916,5.005050182342529,-0.6520500183105469
1750561117490986200,2.666986328125,8.946000099182129,5.014950275421143,-0.5560500025749207
1750561117500591000,2.676591064453125,8.692049980163574,5.002950191497803,-0.41700002551078796
1750561117510195700,2.68619580078125,8.494050025939941,5.022000312805176,-0.25905001163482666
1750561117519800600,2.695800537109375,8.235000610351562,5.058000087738037,-0.15600000321865082
1750561117529405200,2.7054052734375,8.047950744628906,5.1469502449035645,-0.08505000174045563
1750561117539010000,2.715010009765625,8.02695083618164,5.251950263977051,-0.23100000619888306
1750561117548614700,2.72461474609375,8.11500072479248,5.331000328063965,-0.34800001978874207
1750561117558219500,2.734219482421875,8.256000518798828,5.331000328063965,-0.40800002217292786
1750561117567824100,2.74382421875,8.347050666809082,5.344950199127197,-0.34800001978874207
1750561117577428700,2.7534287109375,8.35200023651123,5.331000328063965,-0.30300000309944153
1750561117587033300,2.763033447265625,8.227950096130371,5.2759504318237305,-0.2070000171661377
1750561117596638200,2.77263818359375,8.105999946594238,5.230050086975098,-0.06495000422000885
1750561117606242800,2.782242919921875,8.086950302124023,5.263950347900391,-0.015000000596046448
1750561117615847400,2.791847412109375,8.295000076293945,5.36400032043457,-0.019950000569224358
1750561117625452300,2.801452392578125,8.320950508117676,5.2260003089904785,0.043950002640485764
1750561117635057000,2.811056884765625,8.517000198364258,5.2420501708984375,-0.031950000673532486
1750561117644661800,2.820661865234375,8.541000366210938,5.3359503746032715,-0.11295000463724136
1750561117654266400,2.830266357421875,8.380949974060059,5.307000160217285,-0.12300000339746475
1750561117663871200,2.839871337890625,8.188950538635254,5.3020501136779785,-0.027000000700354576
1750561117673475800,2.849475830078125,8.05305004119873,5.2759504318237305,0.003000000026077032
1750561117683080400,2.85908056640625,8.0910005569458,5.233050346374512,-0.08700000494718552
1750561117692685300,2.868685302734375,8.247000694274902,5.2230000495910645,-0.2670000195503235
1750561117702290000,2.8782900390625,8.447999954223633,5.149050235748291,-0.3430500030517578
1750561117711894500,2.88789453125,8.556000709533691,5.050950050354004,-0.35295000672340393
1750561117721499400,2.89749951171875,8.57295036315918,5.002950191497803,-0.2880000174045563
1750561117731104000,2.90710400390625,8.517000198364258,5.023950099945068,-0.11805000901222229
1750561117740708600,2.91670849609375,8.521950721740723,5.005050182342529,0.07500000298023224
1750561117750313500,2.9263134765625,8.589000701904297,4.986000061035156,0.17805001139640808
1750561117759918000,2.93591796875,8.797950744628906,5.00100040435791,-0.037050001323223114
1750561117769523000,2.94552294921875,8.950950622558594,5.047950267791748,-0.3139500021934509
1750561117779127600,2.95512744140625,9.001049995422363,4.9960503578186035,-0.5470499992370605
1750561117788732400,2.964732421875,8.914950370788574,4.930950164794922,-0.5320500135421753
1750561117798337000,2.9743369140625,8.604000091552734,4.984050273895264,-0.3460500240325928
1750561117807941600,2.983941650390625,8.194050788879395,5.08905029296875,-0.17595000565052032
1750561117817546200,2.993546142578125,7.806000232696533,5.139000415802002,-0.043950002640485764
1750561117827151000,3.003151123046875,7.657950401306152,5.151000022888184,-0.07500000298023224
1750561117836755700,3.012755615234375,7.893000602722168,5.197050094604492,-0.15195000171661377
1750561117846360600,3.022360595703125,8.230050086975098,5.20395040512085,-0.2350500077009201
1750561117855965200,3.031965087890625,8.517000198364258,5.1469502449035645,-0.2569500207901001
1750561117865570000,3.041570068359375,8.67495059967041,5.118000030517578,-0.18495000898838043
1750561117875174700,3.051174560546875,8.628000259399414,5.170950412750244,-0.14205001294612885
1750561117884779500,3.060779541015625,8.371050834655762,5.214000225067139,-0.11295000463724136
1750561117894384000,3.070384033203125,8.142000198364258,5.202000141143799,-0.12495000660419464
1750561117903988700,3.07998876953125,7.9360504150390625,5.2420501708984375,-0.0990000069141388
1750561117913593600,3.089593505859375,7.837050437927246,5.230050086975098,-0.12105000764131546
1750561117923198200,3.0991982421875,7.854000568389893,5.211000442504883,-0.08700000494718552
1750561117932802800,3.108802734375,8.043000221252441,5.185050010681152,-0.05595000088214874
1750561117942407700,3.11840771484375,8.268000602722168,5.209050178527832,-0.07005000114440918
1750561117952012300,3.12801220703125,8.32800006866455,5.238000392913818,-0.09405000507831573
1750561117961617200,3.1376171875,8.320950508117676,5.26200008392334,-0.018000001087784767
1750561117971221800,3.1472216796875,8.31195068359375,5.197050094604492,-0.015000000596046448
1750561117980826600,3.15682666015625,8.315999984741211,5.16795015335083,-0.07005000114440918
1750561117990431200,3.16643115234375,8.260950088500977,5.20395040512085,-0.1469999998807907
1750561118000035800,3.176035888671875,8.211000442504883,5.178000450134277,-0.20400001108646393
1750561118009640400,3.185640380859375,8.292000770568848,5.163000106811523,-0.21405000984668732
1750561118019245300,3.195245361328125,8.371050834655762,5.1660003662109375,-0.21405000984668732
1750561118028850000,3.204849853515625,8.470050811767578,5.139000415802002,-0.1879500150680542
1750561118038454500,3.21445458984375,8.476950645446777,5.122950077056885,-0.14205001294612885
1750561118048059100,3.22405908203125,8.392950057983398,5.08905029296875,-0.17100000381469727
1750561118057664000,3.2336640625,8.31195068359375,5.119950294494629,-0.21900001168251038
1750561118067268900,3.243268798828125,8.338050842285156,5.131950378417969,-0.286050021648407
1750561118076873500,3.25287353515625,8.496000289916992,5.118000030517578,-0.32895001769065857
1750561118086478000,3.26247802734375,8.719050407409668,5.104050159454346,-0.3720000088214874
1750561118096083000,3.2720830078125,8.766000747680664,5.047950267791748,-0.34995001554489136
1750561118105687600,3.2816875,8.565000534057617,5.071950435638428,-0.22305001318454742
1750561118115292200,3.291292236328125,8.218050003051758,5.10105037689209,-0.1469999998807907
1750561118124897000,3.30089697265625,7.969050407409668,5.130000114440918,-0.12495000660419464
1750561118134502000,3.310501953125,7.942950248718262,5.137050151824951,-0.15195000171661377
1750561118144106500,3.3201064453125,8.14905071258545,5.130000114440918,-0.19995000958442688
1750561118153711000,3.329711181640625,8.467050552368164,5.139000415802002,-0.24000000953674316
1750561118163315700,3.339315673828125,8.778000831604004,5.151000022888184,-0.2880000174045563
1750561118172920300,3.34892041015625,8.92905044555664,5.115000247955322,-0.283050000667572
1750561118182525200,3.358525146484375,8.914950370788574,5.08905029296875,-0.28095000982284546
1750561118192129800,3.3681298828125,8.653950691223145,5.083950042724609,-0.29295000433921814
1750561118201734700,3.377734619140625,8.206049919128418,5.086950302124023,-0.1879500150680542
1750561118211339500,3.387339599609375,7.7749505043029785,5.137050151824951,-0.010050000622868538
1750561118220944100,3.396944091796875,7.612050533294678,5.173050403594971,0.1270500123500824
1750561118230548700,3.406548828125,7.725000381469727,5.278050422668457,0.06495000422000885
1750561118240153600,3.416153564453125,8.070000648498535,5.320950031280518,-0.11295000463724136
1750561118249758200,3.42575830078125,8.500950813293457,5.269050121307373,-0.25200000405311584
1750561118259362800,3.43536279296875,8.781000137329102,5.233050346374512,-0.29100000858306885
1750561118268967400,3.444967529296875,8.778000831604004,5.143950462341309,-0.18000000715255737
1750561118278572000,3.454572021484375,8.5489501953125,5.08905029296875,-0.043950002640485764
1750561118288177200,3.46417724609375,8.236949920654297,5.115000247955322,0.0990000069141388
1750561118297781800,3.47378173828125,8.043000221252441,5.125050067901611,0.17805001139640808
1750561118307386400,3.483386474609375,8.062950134277344,5.20395040512085,0.043950002640485764
1750561118316991200,3.4929912109375,8.25195026397705,5.19195032119751,-0.1469999998807907
1750561118326595800,3.502595947265625,8.553000450134277,5.143950462341309,-0.31905001401901245
1750561118336200400,3.512200439453125,8.697000503540039,5.070000171661377,-0.3360000252723694
1750561118345805300,3.521805419921875,8.697000503540039,5.034000396728516,-0.29100000858306885
1750561118355410000,3.531409912109375,8.506050109863281,4.9930500984191895,-0.15195000171661377
1750561118365014800,3.541014892578125,8.34000015258789,5.035950183868408,-0.04200000315904617
1750561118374619400,3.550619384765625,8.319000244140625,5.074950218200684,-0.043950002640485764
1750561118384224000,3.56022412109375,8.403000831604004,5.098950386047363,-0.022050000727176666
1750561118393828900,3.569828857421875,8.52495002746582,5.070000171661377,-0.06300000101327896
1750561118403433700,3.579433837890625,8.556000709533691,5.074950218200684,-0.1279500126838684
1750561118413038300,3.589038330078125,8.472000122070312,5.038950443267822,-0.26205000281333923
1750561118422643000,3.598642822265625,8.344950675964355,5.071950435638428,-0.3460500240325928
1750561118432247600,3.60824755859375,8.163000106811523,5.127000331878662,-0.3049500286579132
1750561118441852400,3.617852294921875,8.005050659179688,5.15595006942749,-0.22095000743865967
1750561118451457000,3.62745703125,7.990950584411621,5.119950294494629,-0.0990000069141388
1750561118461061600,3.6370615234375,8.173049926757812,5.082000255584717,-0.08205000311136246
1750561118470666500,3.64666650390625,8.343000411987305,5.059950351715088,-0.07695000618696213
1750561118480271000,3.65627099609375,8.431050300598145,5.038950443267822,-0.04605000093579292
1750561118489875700,3.665875732421875,8.398050308227539,5.083950042724609,-0.06300000101327896
1750561118499480600,3.67548046875,8.278050422668457,5.115000247955322,-0.1399500072002411
1750561118509085200,3.685085205078125,8.242050170898438,5.158950328826904,-0.16395001113414764
1750561118518689800,3.694689697265625,8.268000602722168,5.122950077056885,-0.16095000505447388
1750561118528295000,3.704294921875,8.278050422668457,5.080050468444824,-0.1279500126838684
1750561118537899500,3.7138994140625,8.347050666809082,5.062950134277344,-0.07500000298023224
1750561118547504000,3.723504150390625,8.391000747680664,5.046000003814697,-0.07304999977350235
1750561118557109000,3.73310888671875,8.32800006866455,5.068050384521484,-0.08505000174045563
1750561118566713600,3.742713623046875,8.331000328063965,5.107950210571289,-0.11295000463724136
1750561118576318200,3.752318115234375,8.37405014038086,5.092050075531006,-0.08895000070333481
1750561118585922800,3.7619228515625,8.517000198364258,5.038950443267822,-0.15600000321865082
1750561118595527700,3.771527587890625,8.625,5.038950443267822,-0.25200000405311584
1750561118605132500,3.781132568359375,8.568000793457031,5.035950183868408,-0.2670000195503235
1750561118614737200,3.790737060546875,8.38800048828125,5.022000312805176,-0.18495000898838043
1750561118624341800,3.800341796875,8.271000862121582,5.058000087738037,-0.10395000129938126
1750561118633946600,3.809946533203125,8.200950622558594,5.092050075531006,-0.07304999977350235
1750561118643551200,3.81955126953125,8.182050704956055,5.062950134277344,-0.031950000673532486
1750561118653155800,3.82915576171875,8.292000770568848,5.020050048828125,-0.07695000618696213
1750561118662760700,3.8387607421875,8.52495002746582,5.034000396728516,-0.1969500035047531
1750561118672365300,3.848365234375,8.802000045776367,5.014950275421143,-0.3049500286579132
1750561118681970000,3.857969970703125,8.910000801086426,5.00100040435791,-0.35295000672340393
1750561118691574500,3.867574462890625,8.794950485229492,5.0560503005981445,-0.3720000088214874
1750561118701179400,3.877179443359375,8.569950103759766,5.058000087738037,-0.325950026512146
1750561118710784300,3.8867841796875,8.259000778198242,5.062950134277344,-0.25005000829696655
1750561118720388900,3.896388916015625,8.07194995880127,5.059950351715088,-0.06300000101327896
1750561118729993700,3.90599365234375,7.91895055770874,5.10105037689209,0.11100000888109207
1750561118739598300,3.915598388671875,7.951950550079346,5.080050468444824,0.12495000660419464
1750561118749203000,3.925202880859375,8.170050621032715,5.1060004234313965,0.010050000622868538
1750561118758807800,3.934807861328125,8.503050804138184,5.092050075531006,-0.13695000112056732
1750561118768412400,3.944412353515625,8.794950485229492,5.10105037689209,-0.2760000228881836
1750561118778017000,3.95401708984375,8.913000106811523,5.047950267791748,-0.32895001769065857
1750561118787622000,3.963621826171875,8.85300064086914,5.013000011444092,-0.364950031042099
1750561118797226500,3.9732265625,8.664000511169434,4.9770002365112305,-0.29100000858306885
1750561118806831000,3.9828310546875,8.392950057983398,4.929000377655029,-0.1680000126361847
1750561118816436000,3.99243603515625,8.12700080871582,4.909950256347656,-0.0990000069141388
1750561118826040600,4.00204052734375,8.031000137329102,4.918950080871582,-0.11595000326633453
1750561118835645400,4.0116455078125,8.166000366210938,4.972050189971924,-0.18300001323223114
1750561118845250300,4.021250244140625,8.473950386047363,5.010000228881836,-0.27900001406669617
1750561118854855000,4.03085498046875,8.6850004196167,5.010000228881836,-0.3910500109195709
1750561118864459500,4.04045947265625,8.707050323486328,4.986000061035156,-0.47700002789497375
1750561118874064100,4.050064208984375,8.500950813293457,4.953000068664551,-0.4339500069618225
1750561118883669000,4.0596689453125,8.200950622558594,4.9960503578186035,-0.3460500240325928
1750561118893273600,4.069273681640625,7.942950248718262,5.0530500411987305,-0.19005000591278076
1750561118902878200,4.078878173828125,7.8949503898620605,5.070000171661377,-0.08700000494718552
1750561118912483000,4.088483154296875,8.05305004119873,5.11305046081543,-0.06795000284910202
1750561118922088000,4.098087890625,8.31195068359375,5.095950126647949,-0.10905000567436218
1750561118931692500,4.107692626953125,8.431050300598145,4.998000144958496,-0.1279500126838684
1750561118941297200,4.117297119140625,8.404950141906738,4.966950416564941,-0.1399500072002411
1750561118950902000,4.126902099609375,8.43600082397461,4.9960503578186035,-0.25005000829696655
1750561118960506600,4.136506591796875,8.404950141906738,4.98105001449585,-0.30300000309944153
1750561118970111500,4.146111572265625,8.403000831604004,5.00100040435791,-0.3169500231742859
1750561118979716000,4.155716064453125,8.553000450134277,5.020050048828125,-0.3430500030517578
1750561118989321000,4.165321044921875,8.785950660705566,4.990950107574463,-0.18300001323223114
1750561118998925600,4.174925537109375,8.908050537109375,4.876049995422363,0.07200000435113907
1750561119008530200,4.1845302734375,8.898000717163086,4.869000434875488,0.15105000138282776
1750561119018134800,4.194134765625,8.677950859069824,4.924050331115723,0.09195000678300858
1750561119027739400,4.203739501953125,8.506050109863281,4.954950332641602,-0.015000000596046448
1750561119037344300,4.21334423828125,8.398050308227539,4.9930500984191895,-0.18300001323223114
1750561119046948900,4.222948974609375,8.395050048828125,4.986000061035156,-0.32895001769065857
1750561119056553700,4.2325537109375,8.431050300598145,4.998000144958496,-0.41505002975463867
1750561119066158300,4.242158447265625,8.331000328063965,4.972050189971924,-0.3240000009536743
1750561119075763200,4.25176318359375,8.199000358581543,4.978950023651123,-0.23100000619888306
1750561119085367800,4.261367919921875,8.167950630187988,4.972050189971924,-0.18300001323223114
1750561119094972700,4.27097265625,8.33595085144043,4.962000370025635,-0.15900000929832458
1750561119104577300,4.280577392578125,8.443050384521484,4.921950340270996,-0.08205000311136246
1750561119114182000,4.290181884765625,8.589000701904297,4.897950172424316,-0.06105000153183937
1750561119123786800,4.299786865234375,8.755050659179688,4.852050304412842,-0.20205001533031464
1750561119133391600,4.3093916015625,8.857050895690918,4.837950229644775,-0.364950031042099
1750561119142996200,4.318996337890625,8.9170503616333,4.861950397491455,-0.42000001668930054
1750561119152600800,4.328600830078125,8.756999969482422,4.861950397491455,-0.3820500075817108
1750561119162205400,4.338205322265625,8.464950561523438,4.870950222015381,-0.27900001406669617
1750561119171810300,4.347810302734375,8.11305046081543,4.8949503898620605,-0.13005000352859497
1750561119181415000,4.357414794921875,7.888050556182861,4.954950332641602,-0.010050000622868538
1750561119191019800,4.367019775390625,7.846950531005859,4.950000286102295,-0.039000000804662704
1750561119200624400,4.376624267578125,7.942950248718262,4.926000118255615,-0.19200000166893005
1750561119210229000,4.38622900390625,8.188950538635254,4.906949996948242,-0.3430500030517578
1750561119219833900,4.395833740234375,8.440950393676758,4.906949996948242,-0.4410000145435333
1750561119229438500,4.4054384765625,8.635050773620605,4.929000377655029,-0.527999997138977
1750561119239043300,4.415043212890625,8.644050598144531,4.924050331115723,-0.4939500093460083
1750561119248648000,4.42464794921875,8.67495059967041,4.950000286102295,-0.3240000009536743
1750561119258252500,4.43425244140625,9.145050048828125,4.8949503898620605,-0.05100000277161598
1750561119267857200,4.443857177734375,9.765000343322754,4.914000034332275,0.10095000267028809
1750561119277462000,4.4534619140625,10.318050384521484,5.137050151824951,0.06300000101327896
1750561119287067000,4.46306689453125,10.665000915527344,5.410050392150879,-0.19995000958442688
1750561119296671500,4.47267138671875,10.833000183105469,5.716050148010254,-0.3550500273704529
1750561119306276000,4.482276123046875,11.652000427246094,6.151950359344482,-0.2639999985694885
1750561119315881000,4.491880859375,12.382050514221191,6.361050128936768,-0.208950012922287
1750561119325485600,4.501485595703125,13.384950637817383,6.38700008392334,-0.12105000764131546
1750561119335090200,4.511090087890625,14.296950340270996,6.246000289916992,-0.11805000901222229
1750561119344695000,4.520695068359375,14.281050682067871,5.724000453948975,0.013050000183284283
1750561119354299600,4.530299560546875,13.963951110839844,5.542050361633301,-0.21405000984668732
1750561119363904500,4.539904541015625,13.170001029968262,5.475000381469727,-0.5749500393867493
1750561119373509400,4.54950927734375,12.328950881958008,5.427000045776367,-0.6589500308036804
1750561119383114000,4.559114013671875,11.235000610351562,5.427000045776367,-0.7240500450134277
1750561119392718600,4.568718505859375,9.72195053100586,5.38800048828125,-0.7410000562667847
1750561119402323200,4.5783232421875,8.503050804138184,5.518050193786621,-0.9540000557899475
1750561119411928000,4.587927978515625,7.234050273895264,5.533950328826904,-1.141050100326538
1750561119421532700,4.59753271484375,6.315000534057617,5.4340500831604,-1.2390000820159912
1750561119431137300,4.60713720703125,5.716050148010254,5.496000289916992,-1.1670000553131104
1750561119440742100,4.6167421875,5.043000221252441,5.47005033493042,-0.597000002861023
1750561119450347000,4.626346923828125,4.681950092315674,5.3359503746032715,-0.15405000746250153
1750561119459951900,4.635951904296875,3.9660000801086426,5.19195032119751,-0.13500000536441803
1750561119469556500,4.645556396484375,2.926950216293335,5.257050037384033,-0.35295000672340393
1750561119479161000,4.6551611328125,2.2159500122070312,5.350050449371338,-0.7810500264167786
1750561119488765700,4.664765625,1.519050121307373,5.194050312042236,-1.0879501104354858
1750561119498370600,4.67437060546875,1.2480000257492065,5.014950275421143,-1.3420500755310059
1750561119507975200,4.68397509765625,0.8440500497817993,4.926000118255615,-1.495050072669983
1750561119517579800,4.693579833984375,0.3340500295162201,4.840050220489502,-1.1190000772476196
1750561119527184400,4.703184326171875,-0.019950000569224358,4.882950305938721,-0.6330000162124634
1750561119536789200,4.712789306640625,-0.1660500019788742,5.092050075531006,0.22800001502037048
1750561119546394000,4.72239404296875,0.25995001196861267,5.284950256347656,1.0519500970840454
1750561119555999000,4.7319990234375,0.9130500555038452,5.27400016784668,1.2619500160217285
1750561119565603600,4.741603515625,1.4760000705718994,5.142000198364258,1.2480000257492065
1750561119575208200,4.751208251953125,1.9380000829696655,5.137050151824951,1.01295006275177
1750561119584813000,4.76081298828125,2.1630001068115234,5.15595006942749,0.7519500255584717
1750561119594417700,4.770417724609375,2.467050075531006,5.127000331878662,1.1790000200271606
1750561119604022300,4.780022216796875,3.4180500507354736,5.247000217437744,1.9260001182556152
1750561119613627100,4.789627197265625,4.383000373840332,5.281050205230713,2.746950149536133
1750561119623231700,4.799231689453125,5.094000339508057,5.1060004234313965,3.601950168609619
1750561119632836400,4.80883642578125,5.565000057220459,4.852050304412842,3.9559502601623535
1750561119642441000,4.81844091796875,5.865000247955322,4.651050090789795,3.9370501041412354
1750561119652045800,4.8280458984375,6.4270501136779785,4.584000110626221,3.391050100326538
1750561119661650400,4.837650390625,6.492000102996826,4.408950328826904,3.1300501823425293
1750561119671255300,4.84725537109375,7.5960001945495605,3.793950080871582,3.349950075149536
1750561119680860200,4.856860107421875,10.122000694274902,3.712050199508667,3.52305006980896
1750561119690464800,4.86646484375,13.84695053100586,3.973050117492676,4.408050060272217
1750561119700069400,4.8760693359375,17.24505043029785,4.141050338745117,5.076000213623047
1750561119709674000,4.885674072265625,19.38300132751465,4.230000019073486,4.987950325012207
1750561119719278800,4.89527880859375,20.458051681518555,4.462050437927246,3.9150002002716064
1750561119728883500,4.904883544921875,19.44300079345703,4.819050312042236,2.3710501194000244
1750561119738488300,4.91448828125,17.034000396728516,4.795050144195557,1.987950086593628
1750561119748093000,4.924093017578125,14.242051124572754,4.6459503173828125,2.2420501708984375
1750561119757697800,4.93369775390625,11.937000274658203,4.633950233459473,2.1790502071380615
1750561119767302400,4.943302490234375,10.830000877380371,4.641000270843506,1.8030000925064087
1750561119776907300,4.9529072265625,10.510050773620605,4.519050121307373,1.3200000524520874
1750561119786512000,4.962511962890625,11.3860502243042,4.1670002937316895,1.4629501104354858
1750561119796116500,4.972116455078125,12.019950866699219,3.9780001640319824,1.3150500059127808
1750561119805721000,4.98172119140625,12.267000198364258,3.96405029296875,0.39795002341270447
1750561119815326000,4.991325927734375,12.625950813293457,3.9400501251220703,-0.1469999998807907
1750561119824930800,5.000930908203125,11.994000434875488,3.8680500984191895,-0.6019500494003296
1750561119834535200,5.01053515625,10.569000244140625,3.787050247192383,-1.1880000829696655
1750561119844140000,5.02014013671875,8.476950645446777,3.7600502967834473,-1.609950065612793
1750561119853744600,5.02974462890625,6.525000095367432,3.9690001010894775,-1.855950117111206
1750561119863349500,5.039349609375,5.383050441741943,4.4569501876831055,-1.8090001344680786
1750561119872954400,5.048954345703125,5.127000331878662,4.677000045776367,-1.2169500589370728
1750561119882559200,5.058559326171875,5.260950088500977,4.729950428009033,-0.3769500255584717
1750561119892163600,5.06816357421875,6.211950302124023,4.789950370788574,0.09195000678300858
1750561119901768400,5.0777685546875,7.414050579071045,4.821000099182129,-0.3049500286579132
1750561119911373000,5.087373046875,8.11500072479248,4.672950267791748,-1.2600001096725464
1750561119920977700,5.096977783203125,7.9860005378723145,4.6369500160217285,-2.0239500999450684
1750561119930582500,5.10658251953125,7.102050304412842,4.692000389099121,-1.927950143814087
1750561119940187100,5.116187255859375,6.067950248718262,4.729950428009033,-0.7380000352859497
1750561119949791700,5.125791748046875,5.316000461578369,4.98900032043457,0.2760000228881836
1750561119959396900,5.13539697265625,5.058000087738037,5.235000133514404,0.7330500483512878
1750561119969001500,5.14500146484375,4.986000061035156,5.392950057983398,0.4510500133037567
1750561119978606000,5.154606201171875,5.163000106811523,5.479050159454346,-0.13005000352859497
1750561119988211000,5.1642109375,5.814000129699707,5.569950103759766,-0.5680500268936157
1750561119997815600,5.173815673828125,6.820050239562988,5.566050052642822,-0.39795002341270447
1750561120007420200,5.183420166015625,7.492950439453125,5.512950420379639,-0.1680000126361847
1750561120017025000,5.19302490234375,8.019000053405762,5.464950084686279,-0.04200000315904617
1750561120026629600,5.202629638671875,8.211000442504883,5.452950477600098,0.0010500000789761543
1750561120036234200,5.212234130859375,8.211000442504883,5.427000045776367,0.1660500019788742
1750561120045838800,5.2218388671875,8.315999984741211,5.424000263214111,0.4939500093460083
1750561120055443700,5.231443603515625,8.521950721740723,5.443050384521484,0.6970500349998474
1750561120065048600,5.241048583984375,8.761950492858887,5.439000129699707,0.7189500331878662
1750561120074653400,5.2506533203125,8.812050819396973,5.451000213623047,0.6040500402450562
1750561120084258000,5.260258056640625,8.63700008392334,5.520000457763672,0.4990500211715698
1750561120093862700,5.269862548828125,8.221050262451172,5.6419501304626465,0.25394999980926514
1750561120103467500,5.279467529296875,7.753950595855713,5.608950138092041,0.0799500048160553
1750561120113072000,5.289072021484375,7.576950550079346,5.632950305938721,-0.17100000381469727
1750561120122676700,5.2986767578125,7.91895055770874,5.5489501953125,-0.2670000195503235
1750561120132281300,5.30828125,8.539050102233887,5.4120001792907715,-0.11805000901222229
1750561120141886200,5.31788623046875,8.944050788879395,5.359950065612793,0.11505000293254852
1750561120151490800,5.32749072265625,8.968050003051758,5.307000160217285,0.34095001220703125
1750561120161095400,5.337095458984375,8.785950660705566,5.319000244140625,0.4939500093460083
1750561120170700300,5.3467001953125,8.476950645446777,5.326050281524658,0.775950014591217
1750561120180305000,5.356304931640625,8.308950424194336,5.320950031280518,0.8910000324249268
1750561120189909800,5.36590966796875,8.245050430297852,5.403000354766846,0.6180000305175781
1750561120199514600,5.3755146484375,8.539050102233887,5.436000347137451,0.027000000700354576
1750561120209119200,5.385119140625,8.950950622558594,5.436000347137451,-0.35805001854896545
1750561120218723800,5.394723876953125,9.196950912475586,5.347950458526611,-0.45600003004074097
1750561120228328400,5.404328369140625,8.998950004577637,5.307000160217285,-0.4630500078201294
1750561120237933300,5.413933349609375,8.52495002746582,5.299950122833252,-0.30300000309944153
1750561120247538000,5.423537841796875,8.146050453186035,5.247000217437744,0.05595000088214874
1750561120257142500,5.433142578125,7.975950241088867,5.175000190734863,0.40800002217292786
1750561120266747400,5.442747314453125,8.002950668334961,5.15595006942749,0.7020000219345093
1750561120276352000,5.45235205078125,8.476950645446777,5.194050312042236,0.7000500559806824
1750561120285956900,5.461956787109375,8.920050621032715,5.227950096130371,0.4650000333786011
1750561120295561500,5.4715615234375,9.163949966430664,5.245050430297852,0.1469999998807907
1750561120305166300,5.481166259765625,8.958000183105469,5.239950180053711,-0.14205001294612885
1750561120314771000,5.49077099609375,8.496000289916992,5.263950347900391,-0.286050021648407
1750561120324375800,5.500375732421875,8.050950050354004,5.323950290679932,-0.25200000405311584
1750561120333980400,5.50998046875,7.7560505867004395,5.307000160217285,-0.034050002694129944
1750561120343585000,5.5195849609375,7.81095027923584,5.290050029754639,0.13500000536441803
1750561120353190000,5.52918994140625,8.02695083618164,5.239950180053711,0.30000001192092896
1750561120362794500,5.53879443359375,8.211000442504883,5.1469502449035645,0.5230500102043152
1750561120372399000,5.548399169921875,8.425950050354004,5.143950462341309,0.4510500133037567
1750561120382004000,5.55800390625,8.613000869750977,5.139000415802002,0.19200000166893005
1750561120391608600,5.567608642578125,8.520000457763672,5.11305046081543,-0.08895000070333481
1750561120401213400,5.57721337890625,8.42400074005127,5.10105037689209,-0.3379500210285187
1750561120410818000,5.586818115234375,8.422050476074219,5.1469502449035645,-0.2950500249862671
1750561120420423000,5.5964228515625,8.488950729370117,5.158950328826904,-0.18300001323223114
1750561120430027500,5.606027587890625,8.379000663757324,5.092050075531006,0.05295000225305557
1750561120439632400,5.61563232421875,8.13705062866211,5.026950359344482,0.2689500153064728
1750561120449237000,5.625237060546875,8.023950576782227,5.143950462341309,0.283050000667572
1750561120458841600,5.634841552734375,7.975950241088867,5.15595006942749,0.39795002341270447
1750561120468446200,5.6444462890625,8.170050621032715,5.154000282287598,0.4030500054359436
1750561120478051000,5.654051025390625,8.485950469970703,5.199000358581543,0.2880000174045563
1750561120487656000,5.663656005859375,8.85300064086914,5.182950019836426,0.013050000183284283
1750561120497260500,5.673260498046875,9.063000679016113,5.15595006942749,-0.1680000126361847
1750561120506865400,5.682865478515625,8.938950538635254,5.182950019836426,-0.22095000743865967
1750561120516470000,5.692469970703125,8.563050270080566,5.266050338745117,-0.10095000267028809
1750561120526074600,5.70207470703125,8.017050743103027,5.27400016784668,0.10605000704526901
1750561120535679500,5.711679443359375,7.6650004386901855,5.329050064086914,0.29295000433921814
1750561120545284000,5.7212841796875,7.572000503540039,5.311950206756592,0.4440000355243683
1750561120554888700,5.730888671875,7.612050533294678,5.295000076293945,0.6540000438690186
1750561120564493600,5.74049365234375,7.711050510406494,5.355000019073486,0.5539500117301941
1750561120574098200,5.75009814453125,8.006999969482422,5.400000095367432,0.33105000853538513
1750561120583702800,5.759702880859375,8.272950172424316,5.37600040435791,0.10095000267028809
1750561120593307400,5.769307373046875,8.593950271606445,5.386050224304199,-0.08505000174045563
1750561120602912300,5.778912353515625,8.766000747680664,5.359950065612793,-0.13005000352859497
1750561120612517000,5.78851708984375,8.677950859069824,5.235000133514404,-0.00795000046491623
1750561120622121700,5.798121826171875,8.331000328063965,5.202000141143799,0.0990000069141388
1750561120631726600,5.8077265625,7.933050155639648,5.187000274658203,0.15600000321865082
1750561120641331200,5.817331298828125,7.794000148773193,5.2420501708984375,0.12000000476837158
1750561120650935800,5.826935791015625,7.82295036315918,5.250000476837158,0.12495000660419464
1750561120660540700,5.836540771484375,8.119950294494629,5.215950012207031,0.11505000293254852
1750561120670145300,5.846145263671875,8.410050392150879,5.238000392913818,0.07500000298023224
1750561120679750000,5.85575,8.575050354003906,5.20395040512085,0.07005000114440918
1750561120689355000,5.86535498046875,8.51294994354248,5.15595006942749,0.10605000704526901
1750561120698959400,5.87495947265625,8.383049964904785,5.185050010681152,0.13905000686645508
1750561120708564200,5.884564208984375,8.272950172424316,5.178000450134277,0.08205000311136246
1750561120718169000,5.894169189453125,8.343000411987305,5.15595006942749,0.1469999998807907
1750561120727773700,5.903773681640625,8.36400032043457,5.10105037689209,0.22305001318454742
1750561120737378300,5.91337841796875,8.36400032043457,5.104050159454346,0.29295000433921814
1750561120746983200,5.922983154296875,8.326050758361816,5.104050159454346,0.24000000953674316
1750561120756587800,5.932587890625,8.218050003051758,5.098950386047363,0.11805000901222229
1750561120766192400,5.9421923828125,8.08395004272461,5.143950462341309,0.036000002175569534
1750561120775797200,5.95179736328125,8.08905029296875,5.211000442504883,-0.06495000422000885
1750561120785401900,5.96140185546875,8.200950622558594,5.197050094604492,-0.06300000101327896
1750561120795006700,5.9710068359375,8.403000831604004,5.142000198364258,0.0580500029027462
1750561120804611600,5.980611572265625,8.551050186157227,5.119950294494629,0.10395000129938126
1750561120814216000,5.9902158203125,8.51294994354248,5.047950267791748,0.19905000925064087
1750561120823820800,5.99982080078125,8.355000495910645,5.086950302124023,0.22995001077651978
1750561120833425700,6.00942578125,8.272950172424316,5.170950412750244,0.1680000126361847
1750561120843030300,6.0190302734375,8.211000442504883,5.227950096130371,0.16095000505447388
1750561120852635000,6.028634765625,8.122050285339355,5.269050121307373,0.13695000112056732
1750561120862239500,6.038239501953125,8.173049926757812,5.254050254821777,0.06300000101327896
1750561120871844400,6.04784423828125,8.292000770568848,5.221050262451172,-0.10905000567436218
1750561120881449000,6.057448974609375,8.485950469970703,5.190000057220459,-0.21195000410079956
1750561120891053600,6.067053466796875,8.509950637817383,5.11305046081543,-0.0580500029027462
1750561120900658400,6.076658447265625,8.410050392150879,5.1469502449035645,0.12000000476837158
1750561120910263300,6.08626318359375,8.173049926757812,5.1469502449035645,0.3840000033378601
1750561120919868000,6.095867919921875,8.079000473022461,5.119950294494629,0.38100001215934753
1750561120929472800,6.10547265625,8.233050346374512,5.086950302124023,0.2880000174045563
1750561120939077400,6.115077392578125,8.517000198364258,5.080050468444824,0.08205000311136246
1750561120948682000,6.124681884765625,8.836050033569336,5.071950435638428,-0.15600000321865082
1750561120958286800,6.134286865234375,8.902950286865234,5.07705020904541,-0.21405000984668732
1750561120967891500,6.143891357421875,8.755050659179688,5.110950469970703,-0.1279500126838684
1750561120977496300,6.153496337890625,8.617950439453125,5.1469502449035645,0.0799500048160553
1750561120987101000,6.163100830078125,8.28795051574707,5.1660003662109375,0.09195000678300858
1750561120996705500,6.17270556640625,8.062950134277344,5.139000415802002,-0.04905000329017639
1750561121006310100,6.18231005859375,7.91895055770874,5.137050151824951,-0.08700000494718552
1750561121015915000,6.1919150390625,7.858950138092041,5.083950042724609,-0.04200000315904617
1750561121025519900,6.201519775390625,7.912050247192383,5.083950042724609,0.07500000298023224
1750561121035124700,6.211124755859375,8.187000274658203,5.134950160980225,0.1270500123500824
1750561121044729300,6.220729248046875,8.302050590515137,5.104050159454346,0.1660500019788742
1750561121054334000,6.230333984375,8.347050666809082,5.0560503005981445,0.07695000618696213
1750561121063938600,6.2399384765625,8.047950744628906,5.094000339508057,0.003000000026077032
1750561121073543400,6.24954345703125,7.7470502853393555,5.0560503005981445,-0.06795000284910202
1750561121083148000,6.25914794921875,7.758000373840332,5.058000087738037,-0.17595000565052032
1750561121092752600,6.268752685546875,8.122050285339355,5.017050266265869,-0.14400000870227814
1750561121102357200,6.278357177734375,8.520000457763672,4.897950172424316,0.04605000093579292
1750561121111962000,6.287962158203125,8.601000785827637,4.8259501457214355,0.23805001378059387
1750561121121567000,6.29756689453125,8.191950798034668,4.789950370788574,0.37605002522468567
1750561121131171600,6.307171630859375,7.828050136566162,4.801950454711914,0.30900001525878906
1750561121140776400,6.3167763671875,7.723050594329834,4.866000175476074,0.16305001080036163
1750561121150381000,6.326381103515625,7.999950408935547,4.9360504150390625,0.06795000284910202
1750561121159986000,6.33598583984375,8.272950172424316,4.9770002365112305,-0.034050002694129944
1750561121169590500,6.345590576171875,8.709000587463379,4.942950248718262,-0.08700000494718552
1750561121179195100,6.355195068359375,9.196950912475586,5.017050266265869,-0.13005000352859497
1750561121188800000,6.364800048828125,9.38700008392334,4.984050273895264,0.29295000433921814
1750561121198404600,6.374404541015625,9.583050727844238,4.962000370025635,1.1350500583648682
1750561121208009200,6.38400927734375,9.973050117492676,5.07705020904541,1.2030000686645508
1750561121217614000,6.393614013671875,10.383000373840332,5.143950462341309,0.7189500331878662
1750561121227219000,6.403218994140625,10.993050575256348,5.4120001792907715,-0.15405000746250153
1750561121236823600,6.412823486328125,11.697000503540039,5.613000392913818,-0.931950032711029
1750561121246428200,6.42242822265625,12.403050422668457,5.628000259399414,-1.1980500221252441
1750561121256032800,6.43203271484375,12.949050903320312,5.554050445556641,-1.15500009059906
1750561121265637600,6.4416376953125,13.107000350952148,5.3020501136779785,-0.6619500517845154
1750561121275242200,6.4512421875,13.519050598144531,5.070000171661377,0.17505000531673431
1750561121284847000,6.46084716796875,13.522050857543945,4.749000072479248,0.7620000243186951
1750561121294451700,6.47045166015625,14.721000671386719,4.717950344085693,0.7020000219345093
1750561121304056300,6.480056396484375,14.812050819396973,4.713000297546387,0.043950002640485764
1750561121313661200,6.4896611328125,14.6850004196167,4.159950256347656,0.027000000700354576
1750561121323265800,6.499265869140625,13.906950950622559,4.014000415802002,-0.17295001447200775
1750561121332870400,6.508870361328125,11.719050407409668,4.099950313568115,-0.9660000205039978
1750561121342475300,6.518475341796875,10.015950202941895,4.3090500831604,-1.5570000410079956
1750561121352080100,6.528080078125,8.428950309753418,4.78695011138916,-1.9500000476837158
1750561121361684700,6.537684814453125,6.916050434112549,4.897950172424316,-1.3819500207901
1750561121371289300,6.547289306640625,6.184950351715088,5.0530500411987305,-0.11295000463724136
1750561121380894000,6.55689404296875,4.98105001449585,5.254050254821777,0.47895002365112305
1750561121390498800,6.566498779296875,3.8389501571655273,5.2230000495910645,0.8359500169754028
1750561121400103400,6.576103515625,2.4460501670837402,5.311950206756592,0.7669500112533569
1750561121409708300,6.585708251953125,0.8149500489234924,5.368950366973877,0.36900001764297485
1750561121419313000,6.59531298828125,-0.3139500021934509,5.460000038146973,-0.05595000088214874
1750561121428917800,6.604917724609375,-1.284000039100647,5.628000259399414,-0.2950500249862671
1750561121438522400,6.6145224609375,-1.7359501123428345,5.664000034332275,-0.24705001711845398
1750561121448127000,6.624126953125,-1.7310000658035278,5.716050148010254,-0.41505002975463867
1750561121457731800,6.63373193359375,-1.7530500888824463,5.781000137329102,-0.76500004529953
1750561121467336700,6.643336669921875,-1.6960500478744507,5.893950462341309,-0.9679500460624695
1750561121476941300,6.65294140625,-1.8460501432418823,5.788050174713135,-1.0950000286102295
1750561121486546000,6.6625458984375,-1.842000126838684,5.623050212860107,-1.308000087738037
1750561121496150500,6.672150634765625,-1.5139501094818115,5.293050289154053,-1.3510500192642212
1750561121505755400,6.68175537109375,-0.6370500326156616,4.855050086975098,-1.3150500059127808
1750561121515360000,6.691360107421875,0.22095000743865967,4.6369500160217285,-0.922950029373169
1750561121524964600,6.700964599609375,0.6450000405311584,4.432950019836426,0.7810500264167786
1750561121534569700,6.71056982421875,1.3440001010894775,4.2970499992370605,2.266050100326538
1750561121544174300,6.72017431640625,2.1409502029418945,4.276950359344482,2.8429501056671143
1750561121553779000,6.729779052734375,3.2280001640319824,4.1670002937316895,3.421950101852417
1750561121563383800,6.7393837890625,5.746950149536133,4.170000076293945,3.919950246810913
1750561121572988400,6.748988525390625,10.25100040435791,4.330049991607666,4.068000316619873
1750561121582593000,6.758593017578125,14.656050682067871,4.725000381469727,4.236000061035156
1750561121592198000,6.768197998046875,16.810951232910156,4.804050445556641,5.056950092315674
1750561121601802500,6.777802490234375,17.33595085144043,4.962000370025635,5.533950328826904
1750561121611407000,6.787406982421875,15.991950988769531,5.689950466156006,6.079950332641602
1750561121621012000,6.797011962890625,14.269050598144531,6.01800012588501,6.793050289154053
1750561121630616600,6.806616455078125,12.37695026397705,5.962950229644775,6.403050422668457
1750561121640221400,6.816221435546875,11.640000343322754,5.719050407409668,5.031000137329102
1750561121649826000,6.825825927734375,11.66100025177002,5.523000240325928,4.059000015258789
1750561121659431000,6.835430908203125,12.15000057220459,5.475000381469727,3.4650001525878906
1750561121669035500,6.845035400390625,12.856050491333008,5.496000289916992,2.8159501552581787
1750561121678640000,6.85464013671875,13.543050765991211,5.443050384521484,1.7700001001358032
1750561121688245000,6.864244873046875,13.806000709533691,5.017050266265869,1.4610000848770142
1750561121697849600,6.873849609375,12.921000480651855,4.380000114440918,1.4250000715255737
1750561121707454200,6.8834541015625,11.716050148010254,4.123950004577637,0.5560500025749207
1750561121717059000,6.89305908203125,10.596000671386719,4.1770501136779785,-0.5779500007629395
1750561121726663700,6.90266357421875,9.516000747680664,4.159950256347656,-1.311000108718872
1750561121736268500,6.9122685546875,8.938950538635254,4.22504997253418,-1.384950041770935
1750561121745873200,6.921873046875,8.95305061340332,4.380000114440918,-1.0090500116348267
1750561121755477800,6.931477783203125,9.205050468444824,4.419000148773193,-0.06795000284910202
1750561121765082600,6.94108251953125,8.938950538635254,4.483050346374512,0.013050000183284283
1750561121774687500,6.9506875,8.569950103759766,4.303950309753418,-0.5470499992370605
1750561121784292000,6.9602919921875,8.134050369262695,4.378050327301025,-1.818000078201294
1750561121793896700,6.969896728515625,7.492950439453125,4.402050018310547,-2.7280502319335938
1750561121803501600,6.97950146484375,6.676050186157227,4.375950336456299,-2.6200501918792725
1750561121813106200,6.989106201171875,5.968050479888916,4.62000036239624,-1.7700001001358032
1750561121822710800,6.998710693359375,5.496000289916992,4.6870503425598145,-0.6619500517845154
1750561121832315400,7.0083154296875,5.304000377655029,4.693950176239014,0.022050000727176666
1750561121841920300,7.017920166015625,5.797950267791748,4.752000331878662,0.23805001378059387
1750561121851525000,7.027525146484375,6.580050468444824,4.945050239562988,-0.1279500126838684
1750561121861130000,7.0371298828125,7.73205041885376,4.869000434875488,-0.625950038433075
1750561121870734600,7.046734619140625,8.57295036315918,4.809000015258789,-1.171950101852417
1750561121880339200,7.056339111328125,8.85300064086914,4.761000156402588,-1.4130001068115234
1750561121889944000,7.065944091796875,8.766000747680664,4.764000415802002,-1.152000069618225
1750561121899548700,7.075548583984375,8.404950141906738,4.866000175476074,-0.8340000510215759
1750561121909153300,7.0851533203125,8.130000114440918,4.890000343322754,-0.1279500126838684
1750561121918758000,7.0947578125,8.158050537109375,5.041050434112549,0.2659500241279602
1750561121928362500,7.104362548828125,8.485950469970703,5.094000339508057,0.16305001080036163
1750561121937967600,7.113967529296875,9.087000846862793,5.110950469970703,-0.17295001447200775
1750561121947572200,7.123572265625,9.394050598144531,5.134950160980225,-0.36705002188682556
1750561121957176800,7.1331767578125,9.175950050354004,5.211000442504883,-0.22095000743865967
1750561121966781400,7.142781494140625,8.425950050354004,5.2759504318237305,-0.04605000093579292
1750561121976386300,7.15238623046875,7.7560505867004395,5.3020501136779785,0.09195000678300858
1750561121985991000,7.161990966796875,7.572000503540039,5.3959503173828125,0.11805000901222229
1750561121995595800,7.171595703125,7.854000568389893,5.332950115203857,0.12300000339746475
1750561122005200400,7.181200439453125,8.278050422668457,5.287950038909912,0.15600000321865082
1750561122014805200,7.19080517578125,8.664000511169434,5.269050121307373,0.16305001080036163
1750561122024409900,7.200409912109375,8.898000717163086,5.283000469207764,0.2179500162601471
1750561122034014500,7.210014404296875,8.69895076751709,5.320950031280518,0.20400001108646393
1750561122043619300,7.219619384765625,8.37600040435791,5.350050449371338,-0.030000001192092896
1750561122053224000,7.229223876953125,8.167950630187988,5.404950141906738,-0.19200000166893005
1750561122062828800,7.238828857421875,7.9170002937316895,5.371950149536133,-0.325950026512146
1750561122072433400,7.248433349609375,7.902000427246094,5.281050205230713,-0.23295001685619354
1750561122082038000,7.2580380859375,8.167950630187988,5.251950263977051,-0.13305000960826874
1750561122091643000,7.267642822265625,8.26395034790039,5.194050312042236,-0.0799500048160553
1750561122101247500,7.27724755859375,8.5489501953125,5.119950294494629,-0.022050000727176666
1750561122110852000,7.28685205078125,8.569950103759766,5.139000415802002,-0.003000000026077032
1750561122120457000,7.29645703125,8.344950675964355,5.202000141143799,0.17100000381469727
1750561122130061600,7.3060615234375,7.912050247192383,5.238000392913818,0.1680000126361847
1750561122139666400,7.31566650390625,7.621950149536133,5.319000244140625,0.09195000678300858
1750561122149271000,7.32527099609375,7.579050540924072,5.374050140380859,-0.06105000153183937
1750561122158876000,7.3348759765625,7.882950305938721,5.344950199127197,-0.19995000958442688
1750561122168480500,7.34448046875,8.419050216674805,5.269050121307373,-0.19500000774860382
1750561122178085400,7.35408544921875,8.802000045776367,5.1660003662109375,-0.14400000870227814
1750561122187689700,7.363689697265625,9.061050415039062,5.122950077056885,-0.010050000622868538
1750561122197294600,7.373294677734375,8.9839506149292,5.080050468444824,0.13695000112056732
1750561122206899500,7.3828994140625,8.68695068359375,4.990950107574463,0.21405000984668732
1750561122216504000,7.392504150390625,8.434050559997559,4.986000061035156,0.1870500147342682
1750561122226108700,7.402108642578125,8.35200023651123,5.017050266265869,0.11805000901222229
1750561122235713500,7.411713623046875,8.470050811767578,5.041050434112549,0.028950002044439316
1750561122245318100,7.421318115234375,8.527050018310547,5.046000003814697,-0.08205000311136246
1750561122254923000,7.430923095703125,8.40000057220459,5.035950183868408,-0.08895000070333481
1750561122264527600,7.440527587890625,8.29995059967041,5.082000255584717,-0.00795000046491623
1750561122274132200,7.45013232421875,8.086950302124023,5.107950210571289,-0.003000000026077032
1750561122283737300,7.4597373046875,8.0910005569458,5.104050159454346,-0.08895000070333481
1750561122293342000,7.469342041015625,8.209050178527832,5.095950126647949,-0.21195000410079956
1750561122302946600,7.478946533203125,8.443050384521484,5.082000255584717,-0.14205001294612885
1750561122312551200,7.48855126953125,8.721000671386719,5.127000331878662,-0.10605000704526901
1750561122322155800,7.49815576171875,8.920050621032715,5.119950294494629,-0.0990000069141388
1750561122331760600,7.5077607421875,8.805000305175781,5.098950386047363,-0.018000001087784767
1750561122341365200,7.517365234375,8.497950553894043,5.143950462341309,-0.0010500000789761543
1750561122350969900,7.526969970703125,8.12700080871582,5.173050403594971,0.034050002694129944
1750561122360574700,7.53657470703125,7.833000183105469,5.15595006942749,0.04800000041723251
1750561122370179300,7.546179443359375,7.81095027923584,5.194050312042236,0.040950000286102295
1750561122379784200,7.5557841796875,7.960050582885742,5.1660003662109375,0.20400001108646393
1750561122389389000,7.56538916015625,8.256000518798828,5.149050235748291,0.325950026512146
1750561122398993700,7.57499365234375,8.632050514221191,5.1469502449035645,0.16305001080036163
1750561122408598300,7.584598388671875,8.926950454711914,5.163000106811523,-0.04905000329017639
1750561122418203100,7.594203125,8.97705078125,5.122950077056885,-0.27900001406669617
1750561122427807700,7.603807861328125,8.758950233459473,5.1660003662109375,-0.322050005197525
1750561122437412400,7.613412353515625,8.40000057220459,5.15595006942749,-0.29100000858306885
1750561122447017000,7.623016845703125,8.029050827026367,5.107950210571289,-0.08205000311136246
1750561122456621800,7.632621826171875,7.806000232696533,5.139000415802002,0.20205001533031464
1750561122466226700,7.642226806640625,7.82295036315918,5.1469502449035645,0.2569500207901001
1750561122475831300,7.651831298828125,8.185050010681152,5.16795015335083,0.0990000069141388
1750561122485436200,7.661436279296875,8.625,5.163000106811523,-0.08700000494718552
1750561122495040800,7.671040771484375,8.766000747680664,5.104050159454346,-0.11295000463724136
1750561122504645600,7.680645751953125,8.620050430297852,5.074950218200684,-0.06795000284910202
1750561122514250000,7.69025,8.33595085144043,5.131950378417969,-0.13305000960826874
1750561122523854800,7.699854736328125,8.105999946594238,5.142000198364258,-0.12495000660419464
1750561122533459500,7.70945947265625,8.118000030517578,5.209050178527832,-0.13500000536441803
1750561122543064000,7.71906396484375,8.458050727844238,5.173050403594971,-0.22800001502037048
1750561122552669000,7.7286689453125,8.733000755310059,5.050950050354004,-0.2639999985694885
1750561122562273500,7.7382734375,8.71095085144043,4.9930500984191895,-0.16395001113414764
1750561122571878400,7.74787841796875,8.368950843811035,5.022000312805176,-0.010050000622868538
1750561122581483000,7.75748291015625,7.91895055770874,5.06505012512207,0.07500000298023224
1750561122591087900,7.767087890625,7.591050148010254,5.06505012512207,0.16305001080036163
1750561122600692700,7.776692626953125,7.555050373077393,5.110950469970703,0.18300001323223114
1750561122610297300,7.78629736328125,7.8760504722595215,5.110950469970703,0.12000000476837158
1750561122619902000,7.79590185546875,8.296950340270996,5.086950302124023,0.010050000622868538
1750561122629506600,7.805506591796875,8.641950607299805,5.041050434112549,-0.09195000678300858
1750561122639111400,7.815111328125,8.749950408935547,5.044050216674805,-0.08895000070333481
1750561122648716000,7.824716064453125,8.611050605773926,5.06505012512207,-0.15195000171661377
1750561122658320600,7.834320556640625,8.355000495910645,5.059950351715088,-0.23100000619888306
1750561122667925200,7.84392529296875,8.06505012512207,5.086950302124023,-0.19200000166893005
1750561122677530000,7.853530029296875,7.885050296783447,5.104050159454346,0.003000000026077032
1750561122687135000,7.863135009765625,7.866000175476074,5.070000171661377,0.24705001711845398
1750561122696739600,7.872739501953125,8.158050537109375,5.134950160980225,0.22095000743865967
1750561122706344400,7.882344482421875,8.557950019836426,5.151000022888184,0.11100000888109207
1750561122715949000,7.891948974609375,8.800050735473633,5.095950126647949,-0.05595000088214874
1750561122725553700,7.9015537109375,8.733000755310059,5.115000247955322,-0.19200000166893005
1750561122735158500,7.911158447265625,8.517000198364258,5.149050235748291,-0.2639999985694885
1750561122744763100,7.92076318359375,8.259000778198242,5.190000057220459,-0.2070000171661377
1750561122754367700,7.93036767578125,8.122050285339355,5.187000274658203,-0.19500000774860382
1750561122763972600,7.93997265625,8.284950256347656,5.19195032119751,-0.21195000410079956
1750561122773577200,7.9495771484375,8.565000534057617,5.161050319671631,-0.2070000171661377
1750561122783182000,7.95918212890625,8.83395004272461,5.086950302124023,-0.043950002640485764
1750561122792786700,7.96878662109375,8.908050537109375,5.058000087738037,0.05595000088214874
1750561122802391600,7.9783916015625,8.719050407409668,5.023950099945068,0.0799500048160553
1750561122811996200,7.98799609375,8.452950477600098,5.083950042724609,0.016950000077486038
1750561122821601000,7.99760107421875,8.224950790405273,5.119950294494629,-0.07695000618696213
1750561122831205600,8.00720556640625,8.199000358581543,5.185050010681152,-0.1660500019788742
1750561122840810200,8.016810302734376,8.290050506591797,5.194050312042236,-0.2639999985694885
1750561122850414800,8.026414794921875,8.391000747680664,5.137050151824951,-0.2160000056028366
1750561122860019700,8.036019775390624,8.414999961853027,5.074950218200684,-0.15600000321865082
1750561122869624300,8.045624267578125,8.446050643920898,5.005050182342529,-0.0990000069141388
1750561122879229200,8.055229248046874,8.395050048828125,4.98900032043457,-0.09405000507831573
1750561122888834000,8.064833984375,8.295000076293945,5.014950275421143,-0.10905000567436218
1750561122898438700,8.074438720703125,8.28795051574707,5.013000011444092,-0.11295000463724136
1750561122908043300,8.084043212890625,8.32800006866455,4.998000144958496,-0.2070000171661377
1750561122917648000,8.09364794921875,8.484000205993652,4.990950107574463,-0.25005000829696655
1750561122927252700,8.103252685546876,8.644050598144531,4.948050022125244,-0.2160000056028366
1750561122936857300,8.112857421875,8.66100025177002,4.902000427246094,-0.1399500072002411
1750561122946462000,8.1224619140625,8.440950393676758,4.9770002365112305,0.010050000622868538
1750561122956066800,8.13206689453125,8.119950294494629,5.008050441741943,0.07695000618696213
1750561122965671700,8.141671630859374,7.909050464630127,5.034000396728516,0.07500000298023224
1750561122975276500,8.151276611328125,7.938000202178955,5.029050350189209,0.00795000046491623
1750561122984881200,8.160881103515624,8.002950668334961,5.034000396728516,-0.034050002694129944
1750561122994485800,8.17048583984375,8.211000442504883,4.98105001449585,-0.06105000153183937
1750561123004090400,8.18009033203125,8.419050216674805,5.026950359344482,-0.0990000069141388
1750561123013695200,8.1896953125,8.764050483703613,5.020050048828125,-0.19200000166893005
1750561123023299800,8.1992998046875,9.030000686645508,4.984050273895264,-0.21405000984668732
1750561123032904700,8.20890478515625,9.004050254821777,4.9170002937316895,-0.16395001113414764
1750561123042509300,8.21850927734375,8.743050575256348,4.953000068664551,-0.0580500029027462
1750561123052114200,8.2281142578125,8.256000518798828,4.972050189971924,0.0799500048160553
1750561123061718800,8.23771875,7.845000267028809,4.926000118255615,0.25200000405311584
1750561123071323600,8.24732373046875,7.846950531005859,4.9360504150390625,0.2569500207901001
1750561123080928300,8.25692822265625,8.256000518798828,4.98900032043457,0.11295000463724136
1750561123090532900,8.266532958984374,8.782950401306152,4.9960503578186035,-0.15405000746250153
1750561123100137500,8.276137451171875,9.17400074005127,5.032050132751465,-0.364950031042099
1750561123109742300,8.285742431640625,9.103950500488281,5.038950443267822,-0.33105000853538513
1750561123119347200,8.29534716796875,8.781000137329102,5.026950359344482,-0.11295000463724136
1750561123128951800,8.304951904296875,8.41200065612793,5.059950351715088,-0.07304999977350235
1750561123138556700,8.314556640625,8.167950630187988,5.00100040435791,-0.06795000284910202
1750561123148161300,8.324161376953125,8.098050117492676,4.965000152587891,-0.08895000070333481
1750561123157766100,8.33376611328125,8.035950660705566,4.965000152587891,-0.05595000088214874
1750561123167370500,8.34337060546875,8.005050659179688,4.962000370025635,0.019950000569224358
1750561123176975400,8.352975341796874,8.07705020904541,5.010000228881836,0.013050000183284283
1750561123186580000,8.362580078125,8.12505054473877,4.972050189971924,0.004950000438839197
1750561123196184600,8.3721845703125,7.974000453948975,4.8949503898620605,-0.04605000093579292
1750561123205789400,8.38178955078125,8.035950660705566,4.930950164794922,-0.28095000982284546
1750561123215394000,8.39139404296875,8.37600040435791,4.88100004196167,-0.5040000081062317
1750561123224998700,8.40099853515625,8.67495059967041,4.789950370788574,-0.6019500494003296
1750561123234603500,8.410603515625,8.628000259399414,4.653000354766846,-0.5179499983787537
1750561123244208400,8.42020849609375,8.161050796508789,4.6459503173828125,-0.20400001108646393
1750561123253813200,8.429813232421875,7.789950370788574,4.681950092315674,0.25200000405311584
1750561123263417900,8.43941796875,7.533000469207764,4.69605016708374,0.5539500117301941
1750561123273022500,8.4490224609375,7.501950263977051,4.725000381469727,0.6349500417709351
1750561123282627000,8.458626953125,7.593000411987305,4.785000324249268,0.4120500087738037
1750561123292232000,8.46823193359375,7.950000286102295,4.912050247192383,-0.0799500048160553
1750561123301836500,8.47783642578125,8.878950119018555,4.950000286102295,-0.3240000009536743
1750561123311441200,8.487441162109375,10.57395076751709,4.81095027923584,0.6540000438690186
1750561123321046000,8.4970458984375,11.869050979614258,4.972050189971924,1.321950078010559
1750561123330650600,8.506650634765625,13.194000244140625,5.283000469207764,1.237950086593628
1750561123340255200,8.516255126953125,13.8589506149292,5.3620500564575195,0.7399500608444214
1750561123349859800,8.52585986328125,14.821950912475586,5.194050312042236,0.36195001006126404
1750561123359464700,8.535464599609375,16.555049896240234,5.115000247955322,0.43905001878738403
1750561123369069300,8.5450693359375,17.10300064086914,4.914000034332275,-0.24300001561641693
1750561123378674000,8.554673828125,17.3929500579834,4.330049991607666,-1.2030000686645508
1750561123388279000,8.564279052734374,16.85205078125,3.847050189971924,-1.7059500217437744
1750561123397883400,8.57388330078125,15.528000831604004,3.6259500980377197,-1.7340000867843628
1750561123407488300,8.58348828125,13.960050582885742,3.793950080871582,-1.1119500398635864
1750561123417092900,8.5930927734375,11.34795093536377,3.844050168991089,-0.7290000319480896
1750561123426697500,8.602697509765624,9.529950141906738,4.0759501457214355,-0.9660000205039978
1750561123436302300,8.61230224609375,7.672050476074219,4.4569501876831055,-1.5070500373840332
1750561123445907000,8.621906982421875,6.111000061035156,4.498050212860107,-1.39395010471344
1750561123455511800,8.63151171875,4.678950309753418,4.761000156402588,-0.9180000424385071
1750561123465116400,8.641116455078125,1.9090501070022583,4.98900032043457,0.19005000591278076
1750561123474721300,8.65072119140625,-0.1969500035047531,5.400000095367432,1.0609500408172607
1750561123484326000,8.660325927734375,-0.9510000348091125,5.980050086975098,1.2030000686645508
1750561123493930500,8.669930419921876,-0.6559500098228455,6.355950355529785,0.9250500202178955
1750561123503535400,8.679535400390625,0.2670000195503235,6.346050262451172,0.0010500000789761543
1750561123513139700,8.6891396484375,0.40800002217292786,6.183000087738037,-1.224000096321106
1750561123522744600,8.69874462890625,0.2639999985694885,5.6610002517700195,-1.9260001182556152
1750561123532349200,8.70834912109375,0.5590500235557556,5.52495002746582,-2.4210000038146973
1750561123541954300,8.717954345703125,0.8730000257492065,5.463000297546387,-2.8429501056671143
1750561123551559000,8.727558837890625,1.1239500045776367,5.11305046081543,-3.1110000610351562
1750561123561163500,8.73716357421875,1.2460500001907349,4.7989501953125,-3.4270501136779785
1750561123570768100,8.74676806640625,1.3150500059127808,4.560000419616699,-2.7900002002716064
1750561123580373000,8.756373046875,1.396950125694275,4.633950233459473,-1.9260001182556152
1750561123589977600,8.7659775390625,1.2750000953674316,4.761000156402588,0.05100000277161598
1750561123599582200,8.775582275390626,1.4520000219345093,5.080050468444824,2.385000228881836
1750561123609187000,8.78518701171875,1.4500501155853271,5.599050045013428,3.7260000705718994
1750561123618791700,8.794791748046874,0.5059500336647034,5.9509501457214355,4.921050071716309
1750561123628396500,8.804396484375,-0.07500000298023224,6.0520501136779785,4.9710001945495605
1750561123638001400,8.81400146484375,-0.003000000026077032,5.767050266265869,3.8749501705169678
1750561123647606000,8.82360595703125,0.44895002245903015,5.20395040512085,3.1900501251220703
1750561123657210600,8.833210693359375,1.7149500846862793,4.5259504318237305,3.0510001182556152
1750561123666815200,8.842815185546876,3.5280001163482666,3.9300003051757812,4.746000289916992
1750561123676420000,8.852420166015625,5.131950378417969,3.3960001468658447,7.65000057220459
1750561123686024700,8.862024658203126,7.399050235748291,2.9100000858306885,9.664050102233887
1750561123695629600,8.871629638671875,10.593000411987305,2.7120001316070557,9.451050758361816
1750561123705234200,8.881234130859376,14.167950630187988,2.9029500484466553,7.975950241088867
1750561123714838800,8.8908388671875,17.266050338745117,3.1210501194000244,6.360000133514404
1750561123724443400,8.900443359375,19.29705047607422,3.6090002059936523,5.551050186157227
1750561123734048300,8.91004833984375,19.579050064086914,4.0759501457214355,5.308950424194336
1750561123743653000,8.919653076171874,19.01205062866211,4.363950252532959,5.151000022888184
1750561123753257700,8.9292578125,18.1429500579834,4.555050373077393,3.5490002632141113
1750561123762862300,8.9388623046875,17.56800079345703,4.656000137329102,1.702950119972229
1750561123772467200,8.94846728515625,16.80405044555664,4.3090500831604,1.5019500255584717
1750561123782071800,8.95807177734375,14.599050521850586,3.9280502796173096,1.4869500398635864
1750561123791676400,8.967676513671876,12.127950668334961,3.595050096511841,0.8700000643730164
1750561123801281300,8.97728125,10.119000434875488,3.3630001544952393,0.5440500378608704
1750561123810886000,8.986885986328126,9.070950508117676,3.3199501037597656,1.3129500150680542
1750561123820490500,8.996490478515625,8.836050033569336,3.367950201034546,1.741050124168396
1750561123830095000,9.00609521484375,9.493950843811035,3.2809500694274902,1.6789500713348389
1750561123839700200,9.0157001953125,10.440000534057617,3.1930501461029053,1.3410000801086426
1750561123849304800,9.025304931640624,11.362051010131836,3.1500000953674316,0.7069500088691711
1750561123858909700,9.03490966796875,12.478050231933594,3.2410502433776855,0.4720500111579895
1750561123868514300,9.044514404296875,12.42300033569336,3.6529502868652344,0.21405000984668732
1750561123878119000,9.054118896484376,11.041050910949707,3.8200502395629883,-0.5869500041007996
1750561123887723500,9.0637236328125,8.782950401306152,3.8230502605438232,-1.453950047492981
1750561123897328400,9.073328369140626,6.511050224304199,3.925950288772583,-2.2829999923706055
1750561123906933000,9.08293310546875,5.158050060272217,4.051949977874756,-2.3710501194000244
1750561123916537600,9.09253759765625,4.804050445556641,4.138950347900391,-1.8060001134872437
1750561123926142500,9.102142578125,5.074050426483154,4.074000358581543,-0.7980000376701355
1750561123935747300,9.111747314453124,5.982000350952148,4.134000301361084,0.09195000678300858
1750561123945352000,9.12135205078125,6.789000511169434,4.276950359344482,0.39795002341270447
1750561123954956800,9.130956787109374,7.384950160980225,4.270050048828125,0.3450000286102295
1750561123964561400,9.1405615234375,7.9960503578186035,4.480950355529785,-0.15600000321865082
1750561123974166000,9.150166015625,8.302050590515137,4.7470502853393555,-0.9799500703811646
1750561123983771000,9.15977099609375,8.484000205993652,4.693950176239014,-1.3320000171661377
1750561123993375500,9.16937548828125,8.266050338745117,4.648950099945068,-1.3780500888824463
1750561124002980000,9.17897998046875,7.845000267028809,4.764000415802002,-1.2340500354766846
1750561124012584700,9.188584716796875,7.134000301361084,4.876049995422363,-0.6540000438690186
1750561124022189600,9.198189453125,6.433950424194336,4.885950088500977,0.13905000686645508
1750561124031794400,9.20779443359375,6.163950443267822,5.014950275421143,0.40800002217292786
1750561124041399000,9.21739892578125,6.577950477600098,5.068050384521484,0.44805002212524414
1750561124051003600,9.227003662109375,7.521000385284424,5.094000339508057,0.28995001316070557
1750561124060608500,9.2366083984375,8.761950492858887,5.014950275421143,0.15600000321865082
1750561124070213000,9.246213134765625,9.664050102233887,5.002950191497803,0.022050000727176666
1750561124079817700,9.255817626953124,10.110000610351562,4.990950107574463,-0.15405000746250153
1750561124089422600,9.265422607421876,9.892050743103027,4.965000152587891,-0.22305001318454742
1750561124099027200,9.275027099609375,9.199950218200684,4.98105001449585,-0.27105000615119934
1750561124108631800,9.2846318359375,8.04104995727539,5.083950042724609,-0.23100000619888306
1750561124118236700,9.294236572265625,7.195950508117676,5.125050067901611,0.003000000026077032
1750561124127841300,9.30384130859375,6.942000389099121,5.17995023727417,0.28095000982284546
1750561124137446100,9.313446044921875,7.171950340270996,5.187000274658203,0.6850500106811523
1750561124147050800,9.32305078125,7.5960001945495605,5.149050235748291,0.62295001745224
1750561124156655400,9.3326552734375,8.188950538635254,5.11305046081543,0.16305001080036163
1750561124166260000,9.342260009765624,8.797950744628906,5.199000358581543,-0.45600003004074097
1750561124175864800,9.35186474609375,9.219000816345215,5.182950019836426,-0.7000500559806824
1750561124185469700,9.3614697265625,9.324000358581543,5.023950099945068,-0.3769500255584717
1750561124195074300,9.37107421875,9.184950828552246,4.978950023651123,0.010050000622868538
1750561124204679000,9.380678955078125,8.776050567626953,5.008050441741943,0.3739500045776367
1750561124214283800,9.39028369140625,8.188950538635254,5.002950191497803,0.6160500049591064
1750561124223888400,9.399888427734375,7.681950569152832,4.957050323486328,0.9100500345230103
1750561124233493000,9.409492919921876,7.486050128936768,5.059950351715088,0.7740000486373901
1750561124243097600,9.41909765625,7.639050483703613,5.199000358581543,0.42000001668930054
1750561124252702500,9.428702392578124,8.284950256347656,5.278050422668457,-0.025050001218914986
1750561124262307000,9.43830712890625,9.025050163269043,5.2230000495910645,-0.3340500295162201
1750561124271912000,9.447911865234374,9.541950225830078,5.16795015335083,-0.4320000112056732
1750561124281516500,9.4575166015625,9.71505069732666,5.06505012512207,-0.364950031042099
1750561124291121400,9.467121337890624,9.403050422668457,5.0560503005981445,-0.05400000140070915
1750561124300726000,9.47672607421875,8.734950065612793,4.972050189971924,0.33105000853538513
1750561124310331000,9.486330810546875,8.08395004272461,4.941000461578369,0.7020000219345093
1750561124319935500,9.495935546875,7.711050510406494,4.9770002365112305,0.8479500412940979
1750561124329540000,9.5055400390625,7.854000568389893,5.080050468444824,0.5110500454902649
1750561124339145000,9.51514501953125,8.259000778198242,5.149050235748291,0.07500000298023224
1750561124348749300,9.524749267578125,8.647050857543945,5.098950386047363,-0.17805001139640808
1750561124358354200,9.534354248046874,8.664000511169434,5.0530500411987305,-0.22605000436306
1750561124367959000,9.543958984375,8.437950134277344,5.0560503005981445,-0.12105000764131546
1750561124377563600,9.553563720703124,8.151000022888184,5.082000255584717,0.0010500000789761543
1750561124387168300,9.563168212890625,7.90500020980835,5.070000171661377,0.09405000507831573
1750561124396773000,9.572773193359374,7.845000267028809,5.125050067901611,0.10395000129938126
1750561124406377700,9.582377685546875,7.938000202178955,5.062950134277344,0.13905000686645508
1750561124415982600,9.591982666015625,8.155950546264648,5.010000228881836,0.06300000101327896
1750561124425587200,9.601587158203126,8.428950309753418,4.953000068664551,0.025050001218914986
1750561124435192000,9.611192138671875,8.641950607299805,4.882950305938721,-0.07005000114440918
1750561124444796700,9.620796630859376,8.664000511169434,4.882950305938721,-0.039000000804662704
1750561124454401300,9.6304013671875,8.545949935913086,4.897950172424316,-0.018000001087784767
1750561124464006000,9.640005859375,8.404950141906738,4.8949503898620605,-0.037050001323223114
1750561124473610800,9.64961083984375,8.344950675964355,4.88100004196167,-0.09405000507831573
1750561124483215400,9.65921533203125,8.419050216674805,4.864050388336182,-0.13305000960826874
1750561124492820200,9.6688203125,8.604000091552734,4.858950138092041,-0.18300001323223114
1750561124502424800,9.6784248046875,8.826000213623047,4.804050445556641,-0.21405000984668732
1750561124512029700,9.68802978515625,8.910000801086426,4.7659502029418945,-0.16395001113414764
1750561124521634300,9.69763427734375,8.805000305175781,4.813950061798096,-0.07500000298023224
1750561124531239000,9.707239013671876,8.563050270080566,4.852050304412842,-0.031950000673532486
1750561124540843800,9.71684375,8.31195068359375,4.882950305938721,0.027000000700354576
1750561124550448400,9.726448486328126,8.170050621032715,4.974000453948975,-0.04605000093579292
1750561124560053200,9.73605322265625,8.247000694274902,4.998000144958496,-0.14400000870227814
1750561124569657600,9.74565771484375,8.437950134277344,4.9960503578186035,-0.19005000591278076
1750561124579262500,9.755262451171875,8.592000007629395,4.930950164794922,-0.1279500126838684
1750561124588867000,9.7648671875,8.722949981689453,4.929000377655029,0.028950002044439316
1750561124598471700,9.7744716796875,8.6850004196167,4.929000377655029,0.1270500123500824
1750561124608076500,9.78407666015625,8.473950386047363,4.926000118255615,0.20205001533031464
1750561124617681200,9.79368115234375,8.32800006866455,4.974000453948975,0.1270500123500824
1750561124627286000,9.8032861328125,8.188950538635254,5.032050132751465,0.013050000183284283
1750561124636891000,9.812890869140626,8.254050254821777,5.038950443267822,-0.15600000321865082
1750561124646495500,9.82249560546875,8.443050384521484,5.041050434112549,-0.31200000643730164
1750561124656100000,9.83210009765625,8.635050773620605,4.9960503578186035,-0.2670000195503235
1750561124665704700,9.84170458984375,8.800050735473633,4.969050407409668,-0.2550000250339508
1750561124675309600,9.8513095703125,8.817000389099121,4.941000461578369,-0.16395001113414764
1750561124684914200,9.8609140625,8.689949989318848,4.912050247192383,-0.0799500048160553
1750561124694518800,9.870518798828124,8.500950813293457,4.9170002937316895,0.043950002640485764
1750561124704123600,9.88012353515625,8.248950004577637,4.878000259399414,0.1870500147342682
1750561124713728500,9.889728515625,8.12700080871582,4.882950305938721,0.24195000529289246
1750561124723333000,9.8993330078125,8.233050346374512,4.921950340270996,0.13695000112056732
1750561124732938000,9.90893798828125,8.447999954223633,4.912050247192383,-0.08505000174045563
1750561124742542600,9.91854248046875,8.611050605773926,4.909950256347656,-0.322050005197525
1750561124752147200,9.928147216796875,8.506050109863281,4.912050247192383,-0.4459500312805176
1750561124761752000,9.937751953125,8.440950393676758,4.938000202178955,-0.42900002002716064
1750561124771356400,9.9473564453125,8.38800048828125,5.023950099945068,-0.34095001220703125
1750561124780961300,9.956961181640626,8.403000831604004,4.954950332641602,-0.11100000888109207
1750561124790566000,9.96656591796875,8.414999961853027,4.909950256347656,0.12300000339746475
1750561124800170500,9.97617041015625,8.38800048828125,4.929000377655029,0.1870500147342682
1750561124809775400,9.985775390625,8.473950386047363,4.90500020980835,0.11295000463724136
1750561124819380200,9.995380126953124,8.517000198364258,4.8949503898620605,0.025050001218914986
1750561124828984800,10.00498486328125,8.473950386047363,4.918950080871582,-0.0799500048160553
1750561124838589700,10.014589599609375,8.304000854492188,4.9170002937316895,-0.15600000321865082
1750561124848194300,10.0241943359375,8.236949920654297,4.897950172424316,-0.22800001502037048
1750561124857799000,10.033798828125,8.218050003051758,4.8949503898620605,-0.2070000171661377
1750561124867403800,10.04340380859375,8.315999984741211,4.918950080871582,-0.18000000715255737
1750561124877008400,10.05300830078125,8.449950218200684,4.924050331115723,-0.11595000326633453
1750561124886613000,10.062613037109376,8.623050689697266,4.950000286102295,-0.06105000153183937
1750561124896217900,10.0722177734375,8.69895076751709,4.941000461578369,0.016950000077486038
1750561124905822500,10.081822509765624,8.63700008392334,4.924050331115723,0.13005000352859497
1750561124915427000,10.091427001953125,8.472000122070312,4.938000202178955,0.24495001137256622
1750561124925032000,10.101031982421874,8.182050704956055,4.954950332641602,0.1969500035047531
1750561124934636800,10.11063671875,7.9960503578186035,4.978950023651123,0.07695000618696213
1750561124944241400,10.120241455078125,8.010000228881836,4.972050189971924,-0.037050001323223114
1750561124953846300,10.12984619140625,8.122050285339355,4.974000453948975,-0.09405000507831573
1750561124963451000,10.139450927734375,8.496000289916992,4.960050106048584,-0.034050002694129944
1750561124973055500,10.149055419921876,8.86500072479248,4.941000461578369,-0.034050002694129944
1750561124982660000,10.15866015625,9.10200023651123,4.909950256347656,0.016950000077486038
1750561124992264700,10.1682646484375,9.039000511169434,4.89300012588501,0.019950000569224358
1750561125001869600,10.17786962890625,8.692049980163574,4.909950256347656,0.010050000622868538
1750561125011474200,10.18747412109375,8.307000160217285,4.90500020980835,0.039000000804662704
1750561125021079000,10.1970791015625,8.002950668334961,4.849950313568115,0.0799500048160553
1750561125030683600,10.20668359375,7.999950408935547,4.866000175476074,0.07005000114440918
1750561125040288500,10.21628857421875,8.27595043182373,4.906949996948242,-0.039000000804662704
1750561125049893000,10.22589306640625,8.56095027923584,4.866000175476074,-0.15195000171661377
1750561125059498000,10.235498046875,8.857050895690918,4.843050003051758,-0.08205000311136246
1750561125069102300,10.245102294921875,8.773950576782227,4.804050445556641,0.10095000267028809
1750561125078707200,10.254707275390626,8.580000877380371,4.8070502281188965,0.10095000267028809
1750561125088311800,10.264311767578125,8.380949974060059,4.8259501457214355,-0.0010500000789761543
1750561125097916400,10.27391650390625,8.27595043182373,4.852050304412842,-0.07005000114440918
1750561125107521300,10.283521240234375,8.404950141906738,4.876049995422363,-0.0799500048160553
1750561125117126000,10.2931259765625,8.613000869750977,4.8259501457214355,-0.10095000267028809
1750561125126730500,10.30273046875,8.617950439453125,4.759050369262695,-0.0010500000789761543
1750561125136335400,10.31233544921875,8.565000534057617,4.792050361633301,0.08205000311136246
1750561125145940200,10.321940185546875,8.611050605773926,4.857000350952148,0.09195000678300858
1750561125155544800,10.331544921875,8.63700008392334,4.902000427246094,0.043950002640485764
1750561125165149700,10.341149658203125,8.628000259399414,4.840050220489502,-0.07500000298023224
1750561125174754300,10.35075439453125,8.484000205993652,4.88100004196167,-0.17295001447200775
1750561125184359000,10.36035888671875,8.10105037689209,4.8349504470825195,-0.1489500105381012
1750561125193963500,10.369963623046875,7.914000511169434,4.81095027923584,-0.06105000153183937
1750561125203568400,10.379568359375,8.022000312805176,4.849950313568115,-0.031950000673532486
1750561125213173000,10.389173095703125,8.268000602722168,4.795050144195557,-0.025050001218914986
1750561125222777600,10.398777587890624,8.544000625610352,4.764000415802002,-0.13695000112056732
1750561125232382500,10.408382568359375,8.665950775146484,4.693950176239014,-0.24495001137256622
1750561125241987000,10.417987060546874,8.395050048828125,4.675050258636475,-0.24000000953674316
1750561125251591700,10.427591796875,7.954950332641602,4.684950351715088,-0.16395001113414764
1750561125261196500,10.437196533203124,7.552950382232666,4.633950233459473,0.12495000660419464
1750561125270801400,10.446801513671875,7.380000114440918,4.725000381469727,0.17805001139640808
1750561125280406000,10.456406005859375,7.420950412750244,4.8070502281188965,0.09600000083446503
1750561125290011000,10.466010986328126,7.726950168609619,4.789950370788574,-0.04200000315904617
1750561125299615500,10.475615478515625,8.10300064086914,4.785000324249268,0.13005000352859497
1750561125309220000,10.48522021484375,8.731050491333008,4.675050258636475,0.5560500025749207
1750561125318824700,10.49482470703125,9.427050590515137,4.6369500160217285,0.8029500246047974
1750561125328429300,10.50442919921875,10.027950286865234,4.761000156402588,0.6810000538825989
1750561125338034200,10.5140341796875,10.62405014038086,4.8070502281188965,0.831000030040741
1750561125347639000,10.52363916015625,11.206050872802734,4.876049995422363,0.9610500335693359
1750561125357244000,10.533243896484375,11.707050323486328,5.1060004234313965,0.6060000061988831
1750561125366848300,10.54284814453125,12.22095012664795,5.2230000495910645,0.3139500021934509
1750561125376453000,10.552453125,12.346050262451172,5.230050086975098,0.05100000277161598
1750561125386057700,10.5620576171875,12.619050979614258,5.214000225067139,-0.06495000422000885
1750561125395662600,10.57166259765625,13.01205062866211,5.170950412750244,-0.21195000410079956
1750561125405267200,10.58126708984375,13.54800033569336,4.909950256347656,-0.820050060749054
1750561125414871800,10.590871826171876,14.458050727844238,4.813950061798096,-1.3699500560760498
1750561125424476400,10.600476318359375,14.652000427246094,4.72005033493042,-1.4970000982284546
1750561125434081300,10.610081298828124,13.990950584411621,4.468950271606445,-1.818000078201294
1750561125443686000,10.619685791015625,12.892050743103027,4.222050189971924,-1.6410000324249268
1750561125453290500,10.62929052734375,11.625000953674316,4.189050197601318,-1.519050121307373
1750561125462895400,10.638895263671875,11.223000526428223,4.215000152587891,-0.8800500631332397
1750561125472500000,10.6485,11.28795051574707,4.455000400543213,-0.4129500091075897
1750561125482104600,10.6581044921875,11.154000282287598,4.354050159454346,-0.34995001554489136
1750561125491709400,10.66770947265625,10.813950538635254,4.165050029754639,-0.6420000195503235
1750561125501314300,10.677314208984376,8.802000045776367,4.04295015335083,-0.7690500617027283
1750561125510919000,10.6869189453125,6.255000114440918,4.1509504318237305,-0.6949500441551208
1750561125520523500,10.6965234375,3.2790000438690186,4.62000036239624,-0.9490500688552856
1750561125530128100,10.706128173828125,0.6670500040054321,5.15595006942749,-1.0639500617980957
1750561125539733000,10.71573291015625,-0.9460500478744507,5.350050449371338,-0.9490500688552856
1750561125549337600,10.725337646484375,-1.675950050354004,5.494050025939941,-0.7930500507354736
1750561125558942500,10.7349423828125,-2.3110501766204834,5.383950233459473,-0.19500000774860382
1750561125568546800,10.744546875,-1.9399501085281372,5.338050365447998,-0.0970500037074089
1750561125578151700,10.754151611328124,-0.7639500498771667,5.428950309753418,-0.6469500064849854
1750561125587756500,10.763756591796875,0.34800001978874207,5.398050308227539,-1.4329500198364258
1750561125597361200,10.773361083984375,0.8650500178337097,5.074950218200684,-2.0119500160217285
1750561125606966000,10.782966064453126,0.5680500268936157,4.837950229644775,-1.686000108718872
1750561125616570600,10.792570556640625,0.19005000591278076,4.656000137329102,0.027000000700354576
1750561125626175500,10.802175537109376,0.31905001401901245,4.759050369262695,1.3819500207901
1750561125635780000,10.811780029296875,1.075950026512146,4.974000453948975,1.8610501289367676
1750561125645384700,10.821384765625,2.098050117492676,5.107950210571289,1.759950041770935
1750561125654989300,10.8309892578125,2.635050058364868,5.131950378417969,1.4130001068115234
1750561125664594200,10.84059423828125,2.39805006980896,5.170950412750244,1.7770501375198364
1750561125674198800,10.85019873046875,1.6240500211715698,5.098950386047363,3.570000171661377
1750561125683803400,10.859803466796874,0.9970500469207764,4.531050205230713,5.032950401306152
1750561125693408300,10.869408203125,2.7300000190734863,3.7270500659942627,5.689050197601318
1750561125703012900,10.879012939453125,5.323050022125244,3.541950225830078,5.5410003662109375
1750561125712617700,10.88861767578125,7.878000259399414,3.4710001945495605,5.164950370788574
1750561125722222300,10.898222412109375,10.693950653076172,3.3199501037597656,4.521000385284424
1750561125731827000,10.907826904296876,14.331000328063965,3.186000108718872,3.82200026512146
1750561125741431800,10.917431884765625,17.968050003051758,3.621000289916992,3.772050142288208
1750561125751036400,10.927036376953126,19.603050231933594,4.14300012588501,4.758000373840332
1750561125760641300,10.936641357421875,19.027950286865234,4.206000328063965,5.272950172424316
1750561125770246000,10.946245849609374,15.904050827026367,4.7059502601623535,4.72005033493042
1750561125779850500,10.9558505859375,12.655050277709961,4.789950370788574,4.404000282287598
1750561125789455400,10.965455322265624,11.320950508117676,4.713000297546387,3.7789502143859863
1750561125799060200,10.975060302734375,13.062000274658203,4.7059502601623535,3.3259501457214355
1750561125808664800,10.984664794921875,15.091950416564941,4.693950176239014,3.003000259399414
1750561125818269400,10.99426953125,16.201051712036133,4.43595027923584,2.176950216293335
1750561125827874300,11.003874267578125,16.5570011138916,4.087950229644775,1.7959500551223755
1750561125837479000,11.01347900390625,15.75105094909668,3.850950241088867,1.590000033378601
1750561125847083500,11.02308349609375,14.307001113891602,3.655050277709961,1.3030500411987305
1750561125856688000,11.032688232421876,12.72900104522705,3.3390002250671387,1.4560500383377075
1750561125866292700,11.042292724609375,11.541000366210938,3.337050199508667,1.2340500354766846
1750561125875897600,11.051897705078124,10.644000053405762,3.4420502185821533,0.7639500498771667
1750561125885502200,11.061502197265625,9.492000579833984,3.3030002117156982,0.1680000126361847
1750561125895107300,11.071107421875,8.266050338745117,3.097050189971924,-0.5130000114440918
1750561125904712000,11.0807119140625,7.222050189971924,3.3919501304626465,-0.9370500445365906
1750561125914316500,11.090316650390625,6.529950141906738,3.4780502319335938,-0.8650500178337097
1750561125923921200,11.099921142578125,6.396000385284424,3.4609501361846924,-0.15195000171661377
1750561125933526000,11.109526123046875,6.946950435638428,3.544950246810913,0.7069500088691711
1750561125943130600,11.119130615234376,7.993050575256348,3.6880502700805664,1.1430000066757202
1750561125952735200,11.1287353515625,9.10200023651123,3.705000162124634,0.3330000042915344
1750561125962339800,11.13833984375,9.820050239562988,3.52305006980896,-1.3060500621795654
1750561125971944700,11.14794482421875,9.319950103759766,3.5400002002716064,-2.953050136566162
1750561125981549300,11.15754931640625,7.678950309753418,3.7099502086639404,-3.252000093460083
1750561125991154000,11.16715380859375,5.5410003662109375,4.218000411987305,-2.4600000381469727
1750561126000758800,11.1767587890625,3.882000207901001,4.753950119018555,-1.1209501028060913
1750561126010363600,11.18636376953125,3.3409502506256104,4.924050331115723,0.17100000381469727
1750561126019968300,11.19596826171875,4.15500020980835,5.107950210571289,1.072950005531311
1750561126029572900,11.20557275390625,5.647050380706787,5.422050476074219,1.2769500017166138
1750561126039177700,11.215177734375,7.111950397491455,5.539050102233887,0.27105000615119934
1750561126048782300,11.2247822265625,7.8160505294799805,5.332950115203857,-0.931950032711029
1750561126058387000,11.234386962890625,7.9360504150390625,5.284950256347656,-1.6390501260757446
1750561126067991800,11.24399169921875,7.612050533294678,5.254050254821777,-1.456950068473816
1750561126077596200,11.25359619140625,7.332000255584717,5.16795015335083,-0.9439500570297241
1750561126087201000,11.263200927734376,7.201050281524658,5.221050262451172,-0.43905001878738403
1750561126096806000,11.272805908203125,7.383000373840332,5.296950340270996,-0.00795000046491623
1750561126106410500,11.282410400390624,7.82295036315918,5.209050178527832,0.5419500470161438
1750561126116015000,11.29201513671875,8.058000564575195,5.287950038909912,1.0920000076293945
1750561126125620000,11.301619873046874,8.130000114440918,5.403000354766846,1.0420500040054321
1750561126135224800,11.311224853515625,8.13705062866211,5.427000045776367,0.4939500093460083
1750561126144829400,11.320829345703125,8.035950660705566,5.392950057983398,-0.0990000069141388
1750561126154434000,11.33043408203125,7.945050239562988,5.523000240325928,-0.5710500478744507
1750561126164038700,11.34003857421875,7.975950241088867,5.57295036315918,-0.753000020980835
1750561126173643500,11.3496435546875,8.105999946594238,5.569950103759766,-0.5080500245094299
1750561126183248100,11.359248046875,8.13705062866211,5.475000381469727,-0.027000000700354576
1750561126192852700,11.368852783203126,8.070000648498535,5.392950057983398,0.40995001792907715
1750561126202457300,11.378457275390625,7.794000148773193,5.44605016708374,0.8530500531196594
1750561126212062200,11.388062255859374,7.729950428009033,5.4340500831604,1.1809500455856323
1750561126221667000,11.3976669921875,7.845000267028809,5.422050476074219,1.0110000371932983
1750561126231271700,11.407271728515624,8.428950309753418,5.398050308227539,0.48900002241134644
1750561126240876300,11.416876220703125,9.16200065612793,5.428950309753418,-0.025050001218914986
1750561126250481200,11.426481201171875,9.682950019836426,5.422050476074219,-0.31005001068115234
1750561126260085800,11.436085693359376,9.693000793457031,5.391000270843506,-0.2950500249862671
1750561126269690600,11.445690673828125,9.073050498962402,5.379000186920166,-0.14400000870227814
1750561126279295200,11.455295166015626,8.134050369262695,5.44605016708374,-0.019950000569224358
1750561126288899800,11.46489990234375,7.6050004959106445,5.443050384521484,0.1489500105381012
1750561126298504400,11.47450439453125,7.512000560760498,5.3959503173828125,0.3049500286579132
1750561126308109000,11.484109130859375,7.960050582885742,5.329050064086914,0.46695002913475037
1750561126317714000,11.4937138671875,8.66100025177002,5.329050064086914,0.33105000853538513
1750561126327318500,11.503318603515625,9.372000694274902,5.308950424194336,0.10605000704526901
1750561126336923100,11.512923095703124,9.625950813293457,5.295000076293945,-0.04605000093579292
1750561126346528000,11.522528076171875,9.352950096130371,5.326050281524658,-0.11595000326633453
1750561126356132600,11.532132568359375,8.601000785827637,5.343000411987305,-0.11100000888109207
1750561126365737500,11.541737548828126,7.768050193786621,5.380950450897217,0.043950002640485764
1750561126375342300,11.55134228515625,7.267950534820557,5.368950366973877,0.2160000056028366
1750561126384947000,11.560947021484376,7.069050312042236,5.338050365447998,0.29295000433921814
1750561126394551600,11.570551513671875,7.252950191497803,5.299950122833252,0.2160000056028366
1750561126404156200,11.58015625,7.806000232696533,5.338050365447998,0.1080000028014183
1750561126413761000,11.589760986328125,8.260950088500977,5.338050365447998,-0.06105000153183937
1750561126423365600,11.59936572265625,8.428950309753418,5.308950424194336,-0.1879500150680542
1750561126432970200,11.60897021484375,8.497950553894043,5.293050289154053,-0.27105000615119934
1750561126442574800,11.618574951171874,8.629950523376465,5.259000301361084,-0.3340500295162201
1750561126452179700,11.6281796875,8.701950073242188,5.149050235748291,-0.12495000660419464
1750561126461784300,11.637784423828125,8.592000007629395,5.041050434112549,0.37605002522468567
1750561126471389200,11.64738916015625,8.212950706481934,5.022000312805176,0.7429500222206116
1750561126480993800,11.656993896484375,7.885050296783447,5.071950435638428,0.703950047492981
1750561126490598700,11.6665986328125,7.660050392150879,5.197050094604492,0.4630500078201294
1750561126500203300,11.676203369140625,7.633950233459473,5.269050121307373,0.11805000901222229
1750561126509808000,11.68580810546875,7.858950138092041,5.214000225067139,-0.18300001323223114
1750561126519412700,11.695412841796875,8.242050170898438,5.134950160980225,-0.26205000281333923
1750561126529017300,11.705017333984374,8.484000205993652,5.115000247955322,-0.23100000619888306
1750561126538622200,11.714622314453125,8.713950157165527,5.047950267791748,-0.0799500048160553
1750561126548226800,11.724226806640624,8.794950485229492,5.083950042724609,0.1080000028014183
1750561126557831400,11.73383154296875,8.785950660705566,5.127000331878662,0.16095000505447388
1750561126567436000,11.74343603515625,8.422050476074219,5.050950050354004,0.20595000684261322
1750561126577040600,11.75304052734375,8.11500072479248,5.023950099945068,0.16305001080036163
1750561126586645500,11.7626455078125,8.09595012664795,5.044050216674805,0.019950000569224358
1750561126596250000,11.77225,8.200950622558594,5.06505012512207,-0.15900000929832458
1750561126605855000,11.78185498046875,8.308950424194336,5.110950469970703,-0.24000000953674316
1750561126615459800,11.7914599609375,8.355000495910645,5.190000057220459,-0.14400000870227814
1750561126625064400,11.801064453125,8.403000831604004,5.269050121307373,0.0990000069141388
1750561126634669000,11.8106689453125,8.482049942016602,5.247000217437744,0.24195000529289246
1750561126644273700,11.820273681640625,8.5489501953125,5.239950180053711,0.10395000129938126
1750561126653878500,11.82987841796875,8.974950790405273,5.259000301361084,-0.09195000678300858
1750561126663483100,11.839483154296875,9.183000564575195,5.16795015335083,-0.12495000660419464
1750561126673087700,11.849087646484374,9.030000686645508,5.071950435638428,0.034050002694129944
1750561126682692600,11.858692626953125,8.43600082397461,5.15595006942749,0.38805001974105835
1750561126692297200,11.868297119140625,7.885050296783447,5.16795015335083,0.6709500551223755
1750561126701901800,11.87790185546875,7.64400053024292,5.161050319671631,0.6660000085830688
1750561126711506700,11.887506591796875,7.893000602722168,5.187000274658203,0.3240000009536743
1750561126721111600,11.897111572265626,8.158050537109375,5.190000057220459,0.036000002175569534
1750561126730716200,11.906716064453125,8.35004997253418,5.154000282287598,-0.11295000463724136
1750561126740320800,11.91632080078125,8.503050804138184,5.143950462341309,-0.1489500105381012
1750561126749925400,11.92592529296875,8.66100025177002,5.142000198364258,-0.16095000505447388
1750561126759530200,11.9355302734375,8.830950736999512,5.119950294494629,-0.1969500035047531
1750561126769134800,11.945134765625,8.962950706481934,5.098950386047363,-0.2070000171661377
1750561126778739500,11.954739501953124,8.86500072479248,5.062950134277344,0.010050000622868538
1750561126788344300,11.96434423828125,8.57295036315918,5.041050434112549,0.21105000376701355
1750561126797949000,11.973948974609375,8.233050346374512,5.059950351715088,0.26205000281333923
1750561126807553500,11.983553466796875,7.987950325012207,5.044050216674805,0.2850000262260437
1750561126817158400,11.993158447265625,7.854000568389893,5.0560503005981445,0.283050000667572
1750561126826763300,12.00276318359375,7.909050464630127,5.130000114440918,0.14205001294612885
1750561126836368000,12.012367919921875,8.047950744628906,5.137050151824951,0.05295000225305557
1750561126845972500,12.021972412109376,8.473950386047363,5.104050159454346,-0.022050000727176666
1750561126855577300,12.031577392578125,8.854949951171875,5.143950462341309,0.004950000438839197
1750561126865182000,12.041181884765624,8.994000434875488,5.095950126647949,-0.027000000700354576
1750561126874786600,12.05078662109375,8.794950485229492,5.182950019836426,-0.208950012922287
1750561126884391200,12.06039111328125,8.34000015258789,5.173050403594971,-0.22095000743865967
1750561126893996000,12.06999609375,7.924050331115723,5.118000030517578,-0.015000000596046448
1750561126903601000,12.079600830078125,7.758000373840332,5.143950462341309,0.18495000898838043
1750561126913205200,12.089205322265625,7.7749505043029785,5.202000141143799,0.2779500186443329
1750561126922810000,12.09881005859375,8.118000030517578,5.2230000495910645,0.283050000667572
1750561126932415000,12.1084150390625,8.338050842285156,5.283000469207764,0.31200000643730164
1750561126942019600,12.11801953125,8.35200023651123,5.266050338745117,0.2350500077009201
1750561126951624200,12.127624267578126,8.170050621032715,5.284950256347656,0.022050000727176666
1750561126961229000,12.13722900390625,7.963950157165527,5.329050064086914,-0.10395000129938126
1750561126970833700,12.146833740234374,7.813950538635254,5.199000358581543,0.010050000622868538
1750561126980438300,12.156438232421875,7.81095027923584,5.122950077056885,0.17505000531673431
1750561126990043100,12.166043212890624,7.981050491333008,5.071950435638428,0.24000000953674316
1750561126999647700,12.175647705078125,8.407050132751465,5.026950359344482,0.22605000436306
1750561127009252400,12.18525244140625,8.95305061340332,5.00100040435791,0.24000000953674316
1750561127018857000,12.19485693359375,9.15195083618164,4.9770002365112305,0.13500000536441803
1750561127028461600,12.204461669921875,8.968050003051758,4.953000068664551,-0.022050000727176666
1750561127038066700,12.214066650390626,8.482049942016602,4.98105001449585,-0.039000000804662704
1750561127047671000,12.223671142578125,8.185050010681152,5.013000011444092,-0.0970500037074089
1750561127057276000,12.23327587890625,8.038949966430664,5.0560503005981445,-0.18000000715255737
1750561127066880500,12.242880615234375,8.06505012512207,5.010000228881836,-0.08895000070333481
1750561127076485400,12.2524853515625,8.176950454711914,5.017050266265869,0.06795000284910202
1750561127086090000,12.262090087890625,8.211000442504883,5.020050048828125,0.17100000381469727
1750561127095694600,12.271694580078124,8.292000770568848,5.047950267791748,0.2850000262260437
1750561127105299200,12.28129931640625,8.431050300598145,5.034000396728516,0.30705001950263977
1750561127114904000,12.290904052734374,8.529000282287598,5.07705020904541,0.15405000746250153
1750561127124508700,12.3005087890625,8.740050315856934,5.11305046081543,-0.17295001447200775
1750561127134113300,12.31011328125,8.926950454711914,5.094000339508057,-0.4030500054359436
1750561127143718400,12.319718505859376,9.018000602722168,5.029050350189209,-0.4630500078201294
1750561127153323000,12.329322998046875,8.908050537109375,4.950000286102295,-0.2550000250339508
1750561127162927900,12.338927978515626,8.63700008392334,4.950000286102295,-0.04905000329017639
1750561127172532500,12.348532470703125,8.407050132751465,4.998000144958496,0.1270500123500824
1750561127182137000,12.35813720703125,8.058000564575195,4.9930500984191895,0.35295000672340393
1750561127191741700,12.36774169921875,7.90500020980835,5.010000228881836,0.40005001425743103
1750561127201346300,12.37734619140625,7.969050407409668,5.032050132751465,0.3139500021934509
