time,seconds_elapsed,z,y,x
1750561114878509000,0.054509033203125,-0.16974300146102905,-0.023979000747203827,-0.49911901354789734
1750561114888114000,0.064114013671875,-0.7952280044555664,-0.16147099435329437,0.11835599690675735
1750561114897718300,0.07371826171875,-1.8832019567489624,-0.1808129996061325,0.3109990060329437
1750561114907323100,0.0833232421875,-2.656464099884033,-0.2975130081176758,0.3504070043563843
1750561114916927700,0.092927734375,-1.889611005783081,0.12902000546455383,-0.16439099609851837
1750561114926532400,0.102532470703125,0.6016960144042969,1.2380900382995605,-1.1233470439910889
1750561114936137000,0.112136962890625,1.368185043334961,0.5183669924736023,-0.9493730068206787
1750561114945741800,0.121741943359375,-0.0859690010547638,-0.16288000345230103,-0.13964299857616425
1750561114955346400,0.131346435546875,-0.5582159757614136,-0.1866299957036972,-0.2804200053215027
1750561114964951000,0.140950927734375,-1.622441053390503,-0.9860060214996338,-1.1962180137634277
1750561114974556000,0.150555908203125,-1.2561219930648804,-0.588985025882721,-2.209141969680786
1750561114984160500,0.160160400390625,-0.38840100169181824,0.40919700264930725,-1.9934569597244263
1750561114993765400,0.169765380859375,-0.7131410241127014,0.6497769951820374,-1.1758639812469482
1750561115003370000,0.179369873046875,-0.24372699856758118,0.6403930187225342,-0.5218420028686523
1750561115012974600,0.188974609375,0.6217560172080994,-0.6836479902267456,0.8027679920196533
1750561115022579500,0.198579345703125,0.6817060112953186,-0.9561390280723572,0.5157660245895386
1750561115032184000,0.20818408203125,0.674036979675293,-0.17922000586986542,-0.02901099994778633
1750561115041788700,0.21778857421875,0.8472080230712891,-1.1168969869613647,1.4461840391159058
1750561115051393300,0.227393310546875,-0.02944299951195717,-0.2454719990491867,0.683014988899231
1750561115060998100,0.236998046875,-0.8943309783935547,0.3313499987125397,-0.1339700073003769
1750561115070602800,0.246602783203125,-1.4078370332717896,0.628371000289917,-0.47487300634384155
1750561115080207400,0.256207275390625,-2.6948039531707764,0.8113200068473816,-0.3907650113105774
1750561115089812200,0.265812255859375,-3.211529016494751,0.7614880204200745,-0.01333600003272295
1750561115099417000,0.2754169921875,-3.143033027648926,0.6698750257492065,0.12315499782562256
1750561115109021700,0.285021728515625,-2.2118780612945557,0.3708460032939911,-0.324880987405777
1750561115118626300,0.294626220703125,-0.40084099769592285,0.816178023815155,-1.5765550136566162
1750561115128231000,0.30423095703125,0.9632599949836731,0.8946290016174316,-1.4444350004196167
1750561115137835800,0.313835693359375,1.6122839450836182,0.7625280022621155,-0.8901529908180237
1750561115147440400,0.3234404296875,1.0001250505447388,0.6321790218353271,-0.39313700795173645
1750561115157045000,0.333044921875,0.4125230014324188,0.4995799958705902,-0.44936999678611755
1750561115166649900,0.34264990234375,-0.11381100118160248,0.33389100432395935,-0.6994240283966064
1750561115176254500,0.35225439453125,-0.17660899460315704,0.3679029941558838,-0.6978939771652222
1750561115185859000,0.361859130859375,0.6710860133171082,0.3711310029029846,-0.9393429756164551
1750561115195463700,0.371463623046875,1.485084056854248,0.542568027973175,-0.6552389860153198
1750561115205068500,0.381068603515625,1.503736972808838,0.5654540061950684,-0.6752690076828003
1750561115214673200,0.390673095703125,0.7740280032157898,0.6296589970588684,-0.5313839912414551
1750561115224278000,0.400278076171875,-0.1963450014591217,0.3972179889678955,-0.4721580147743225
1750561115233882600,0.409882568359375,-1.0183639526367188,0.3041140139102936,-0.5923539996147156
1750561115243487500,0.419487548828125,-1.35595703125,0.34807899594306946,-0.35318100452423096
1750561115253091800,0.429091796875,-1.2947609424591064,0.18228699266910553,-0.01811400055885315
1750561115262696700,0.43869677734375,-0.8563899993896484,0.20045499503612518,0.3107829988002777
1750561115272301300,0.44830126953125,-0.42581799626350403,0.3725149929523468,0.2924160063266754
1750561115281906000,0.457906005859375,-0.37376800179481506,0.2313939929008484,0.1686609983444214
1750561115291510800,0.4675107421875,-0.32367798686027527,0.27454298734664917,-0.1593170017004013
1750561115301115400,0.477115478515625,-0.34991198778152466,0.32185399532318115,-0.4494810104370117
1750561115310720000,0.486719970703125,-0.010635999962687492,0.33979201316833496,-0.7145079970359802
1750561115320324900,0.496324951171875,0.43394899368286133,0.3647629916667938,-0.7464789748191833
1750561115329929500,0.505929443359375,1.0201469659805298,0.21996000409126282,-0.24938200414180756
1750561115339534000,0.5155341796875,1.181035041809082,0.01841999962925911,0.24439799785614014
1750561115349138700,0.525138671875,0.9217259883880615,-0.05121000111103058,0.4673619866371155
1750561115358743600,0.53474365234375,0.3762179911136627,0.10378900170326233,0.23770099878311157
1750561115368348200,0.54434814453125,-0.15646100044250488,0.23645399510860443,-0.31419599056243896
1750561115377952800,0.553952880859375,-0.5952159762382507,0.35436001420021057,-0.8525450229644775
1750561115387557600,0.5635576171875,-0.7374029755592346,0.2042510062456131,-0.8704839944839478
1750561115397162200,0.573162353515625,-0.9119060039520264,-0.20270699262619019,-0.43119001388549805
1750561115406766800,0.582766845703125,0.052097998559474945,-0.1691109985113144,-0.6107289791107178
1750561115416371500,0.592371337890625,0.253154993057251,0.20263099670410156,-0.5558639764785767
1750561115425976300,0.601976318359375,0.3240070044994354,0.09904299676418304,0.07320400327444077
1750561115435581000,0.611580810546875,0.7502620220184326,-0.1685820072889328,0.24515099823474884
1750561115445185800,0.621185791015625,0.8226450085639954,-0.08609499782323837,0.07332000136375427
1750561115454790400,0.630790283203125,0.39902400970458984,0.04574500024318695,-0.3490830063819885
1750561115464395000,0.64039501953125,-0.16603800654411316,0.24074900150299072,-0.5374709963798523
1750561115473999600,0.64999951171875,-0.43586599826812744,0.30814000964164734,-0.3997980058193207
1750561115483604500,0.6596044921875,-0.08292199671268463,0.29989999532699585,-0.16549299657344818
1750561115493209000,0.669208984375,0.12219200283288956,0.22303099930286407,0.21056799590587616
1750561115502813700,0.678813720703125,-0.17712099850177765,0.15509599447250366,0.4622659981250763
1750561115512418300,0.688418212890625,-0.3156310021877289,0.2516610026359558,0.27059799432754517
1750561115522023200,0.698023193359375,-0.14809800684452057,0.30944299697875977,-0.04510200023651123
1750561115531627800,0.707627685546875,0.2542249858379364,0.23375900089740753,-0.6013140082359314
1750561115541232400,0.717232421875,0.1959889978170395,0.42344000935554504,-0.6140400171279907
1750561115550837200,0.726837158203125,0.022190000861883163,0.30061599612236023,-0.33817699551582336
1750561115560441900,0.73644189453125,-0.10112100094556808,-0.021033000200986862,0.03197000175714493
1750561115570046500,0.74604638671875,-0.195359006524086,-0.004887999966740608,0.14918799698352814
1750561115579651300,0.7556513671875,-0.24863499402999878,0.09281300008296967,0.1426520049571991
1750561115589256000,0.765255859375,-0.4259049892425537,0.0011060000397264957,0.2075439989566803
1750561115598860800,0.77486083984375,-0.5277820229530334,-0.19859600067138672,0.4448480010032654
1750561115608465400,0.78446533203125,-0.5926579833030701,0.15892300009727478,0.3991140127182007
1750561115618070000,0.794070068359375,-0.6093850135803223,0.017342999577522278,0.35757699608802795
1750561115627675000,0.8036748046875,-0.573731005191803,-0.23646700382232666,0.2354709953069687
1750561115637279500,0.813279541015625,-0.4372729957103729,-0.2675580084323883,-0.14024299383163452
1750561115646884000,0.822884033203125,-0.16336899995803833,-0.31622499227523804,-0.5055180191993713
1750561115656488700,0.83248876953125,0.05538700148463249,-0.24844500422477722,-0.7526980042457581
1750561115666093600,0.842093505859375,0.23603899776935577,-0.2466450035572052,-0.5845490097999573
1750561115675698200,0.8516982421875,0.5688989758491516,-0.14679600298404694,-0.17147600650787354
1750561115685302800,0.861302734375,0.9141340255737305,-0.06922599673271179,0.030538000166416168
1750561115694907600,0.87090771484375,1.1334199905395508,-0.12945899367332458,0.1557070016860962
1750561115704512300,0.88051220703125,1.5516819953918457,-0.14127400517463684,0.057507000863552094
1750561115714116900,0.890116943359375,1.9713629484176636,-0.23031599819660187,-0.0207700002938509
1750561115723721700,0.8997216796875,1.86005699634552,-0.15835100412368774,-0.17410799860954285
1750561115733326600,0.90932666015625,0.805230975151062,-0.07490299642086029,-0.38492900133132935
1750561115742931200,0.91893115234375,-0.4511620104312897,-0.01093399990350008,-0.43377798795700073
1750561115752535800,0.928535888671875,-1.335724949836731,-0.0028510000556707382,-0.3225649893283844
1750561115762140400,0.938140380859375,-1.4795269966125488,-0.06941000372171402,-0.05733500048518181
1750561115771745300,0.947745361328125,-1.1027040481567383,-0.08819799870252609,0.07652699947357178
1750561115781350000,0.957349853515625,-0.3241719901561737,-0.15043899416923523,-0.014317000284790993
1750561115790954500,0.96695458984375,0.5576900243759155,-0.10890199989080429,-0.16304899752140045
1750561115800559000,0.97655908203125,0.957925021648407,-0.09179399907588959,-0.043852001428604126
1750561115810164000,0.9861640625,0.7368999719619751,-0.03478299826383591,0.22172799706459045
1750561115819768600,0.9957685546875,0.07856199890375137,-0.026172000914812088,0.3347510099411011
1750561115829373200,1.005373291015625,-0.4367370009422302,0.031376998871564865,0.39673298597335815
1750561115838978300,1.014978271484375,-0.6767839789390564,0.07563299685716629,0.28522899746894836
1750561115848582700,1.024582763671875,-0.5922170281410217,0.04361100122332573,0.10405100136995316
1750561115858187500,1.0341875,-0.4272559881210327,0.08479200303554535,-0.11321000009775162
1750561115867792100,1.043792236328125,-0.11816500127315521,0.023212000727653503,-0.3082920014858246
1750561115877396700,1.053396728515625,0.06822499632835388,-0.09305000305175781,-0.0618010014295578
1750561115887001300,1.06300146484375,0.393869012594223,-0.028085000813007355,0.12097000330686569
1750561115896606200,1.072606201171875,0.4606949985027313,0.16542400419712067,0.22606199979782104
1750561115906210800,1.0822109375,0.1570499986410141,0.21143800020217896,0.33334898948669434
1750561115915815400,1.0918154296875,-0.49753299355506897,0.12195000052452087,0.3364279866218567
1750561115925420300,1.101420166015625,-0.8190730214118958,-0.050158001482486725,0.3866100013256073
1750561115935025200,1.111025146484375,-0.5483589768409729,0.03173999860882759,0.055698998272418976
1750561115944629800,1.120629638671875,-0.1201850026845932,0.17476500570774078,-0.2337920069694519
1750561115954234600,1.130234619140625,0.2579379975795746,0.13874900341033936,-0.3566179871559143
1750561115963839200,1.139839111328125,0.28995099663734436,0.11699199676513672,-0.37823599576950073
1750561115973443800,1.14944384765625,0.2851710021495819,0.19791199266910553,-0.3080669939517975
1750561115983048400,1.15904833984375,0.18998199701309204,0.24522200226783752,-0.10227199643850327
1750561115992653300,1.1686533203125,0.09216800332069397,0.1635580062866211,0.10412900149822235
1750561116002258000,1.1782578125,0.04767699912190437,0.06915800273418427,0.20463800430297852
1750561116011862500,1.187862548828125,0.2569429874420166,0.044109001755714417,0.11258099973201752
1750561116021467100,1.197467041015625,0.48521000146865845,0.00304200011305511,-0.0883840024471283
1750561116031071700,1.20707177734375,0.7359899878501892,-0.06112299859523773,-0.21865999698638916
1750561116040676600,1.216676513671875,0.7549939751625061,-0.0011650000233203173,-0.17908699810504913
1750561116050281500,1.226281494140625,0.26234200596809387,-0.04945800080895424,0.13895200192928314
1750561116059885800,1.2358857421875,-0.3890179991722107,-0.12310300022363663,0.3749150037765503
1750561116069491000,1.245490966796875,-0.8474090099334717,-0.13682100176811218,0.33368998765945435
1750561116079095600,1.255095458984375,-0.9002259969711304,-0.07335299998521805,0.07833699882030487
1750561116088700200,1.2647001953125,-0.4693250060081482,-0.06887800246477127,-0.22405299544334412
1750561116098304800,1.2743046875,0.15579000115394592,-0.027379000559449196,-0.43934500217437744
1750561116107909400,1.283909423828125,0.6258370280265808,0.013183999806642532,-0.5426459908485413
1750561116117514200,1.29351416015625,0.519527018070221,0.021230999380350113,-0.3754369914531708
1750561116127118800,1.303118896484375,0.09362199902534485,-0.07155299931764603,0.012258999980986118
1750561116136723500,1.312723388671875,-0.2746959924697876,-0.10685700178146362,0.27941301465034485
1750561116146328000,1.322328125,-0.5783140063285828,-0.07390899956226349,0.4690769910812378
1750561116155933000,1.331932861328125,-0.4625529944896698,-0.044130999594926834,0.4184289872646332
1750561116165537800,1.341537841796875,-0.1476060003042221,-0.023336000740528107,0.16040900349617004
1750561116175142400,1.351142333984375,0.38590100407600403,-0.02062300033867359,-0.07805600017309189
1750561116184747000,1.3607470703125,0.6229209899902344,-0.017635000869631767,-0.2959839999675751
1750561116194351900,1.370351806640625,0.38269901275634766,0.020097000524401665,-0.33501800894737244
1750561116203956700,1.379956787109375,0.025187000632286072,-0.002400000113993883,-0.25409600138664246
1750561116213561300,1.389561279296875,-0.2552340030670166,0.00202700006775558,-0.17122399806976318
1750561116223166000,1.399166015625,-0.1748100072145462,0.012497999705374241,-0.15436099469661713
1750561116232770600,1.4087705078125,0.140407994389534,0.08602999895811081,-0.20099399983882904
1750561116242375200,1.418375244140625,0.32019099593162537,0.00748499995097518,-0.09250199794769287
1750561116251979800,1.427979736328125,0.4138469994068146,-0.12678000330924988,0.14515799283981323
1750561116261584600,1.437584716796875,0.27559199929237366,-0.08178500086069107,0.22218599915504456
1750561116271189200,1.447189208984375,-0.04508500173687935,-0.09028799831867218,0.10914500057697296
1750561116280793900,1.4567939453125,-0.33836498856544495,-0.0849900022149086,-0.21499699354171753
1750561116290398500,1.4663984375,-0.4613400101661682,-0.08514399826526642,-0.3728489875793457
1750561116300003300,1.47600341796875,-0.383543998003006,0.020364999771118164,-0.4491659998893738
1750561116309608200,1.485608154296875,-0.3315509855747223,0.16469000279903412,-0.4294390082359314
1750561116319212800,1.495212890625,-0.2687230110168457,0.15312199294567108,-0.15963999927043915
1750561116328817700,1.504817626953125,-0.19596800208091736,-0.10177399963140488,0.1676580011844635
1750561116338422300,1.51442236328125,-0.1582230031490326,-0.23516599833965302,0.5359060168266296
1750561116348027000,1.52402685546875,-0.1937520056962967,-0.19510699808597565,0.7306889891624451
1750561116357631700,1.5336318359375,-0.04893200099468231,-0.1690479964017868,0.6812899708747864
1750561116367236400,1.543236328125,-0.035996001213788986,-0.09209799766540527,0.3283489942550659
1750561116376841000,1.552841064453125,-0.10079000145196915,-0.017187999561429024,-0.11704099923372269
1750561116386445600,1.562445556640625,-0.027161000296473503,-0.026494000107049942,-0.4263159930706024
1750561116396050200,1.57205029296875,0.21876999735832214,-0.029392000287771225,-0.6219729781150818
1750561116405655300,1.5816552734375,0.3182910084724426,0.028085000813007355,-0.5487480163574219
1750561116415260000,1.591260009765625,0.49300700426101685,-0.09913700073957443,-0.06012500077486038
1750561116424864800,1.60086474609375,0.5491799712181091,-0.13068099319934845,0.417587012052536
1750561116434469400,1.610469482421875,0.35824498534202576,-0.023143000900745392,0.6125190258026123
1750561116444074000,1.620073974609375,0.04470000043511391,0.13294099271297455,0.5003359913825989
1750561116453678800,1.629678955078125,-0.1828259974718094,0.19692599773406982,0.2582609951496124
1750561116463283200,1.639283203125,-0.31520599126815796,0.2158689945936203,-0.007821000181138515
1750561116472888000,1.64888818359375,-0.34078699350357056,0.2081809937953949,-0.11807700246572495
1750561116482492700,1.65849267578125,-0.3171420097351074,0.16074900329113007,-0.12418100237846375
1750561116492097300,1.66809716796875,-0.4423919916152954,0.14956000447273254,0.09208499640226364
1750561116501702100,1.6777021484375,-0.5153999924659729,0.13634300231933594,0.26871898770332336
1750561116511306800,1.687306640625,-0.4109019935131073,0.07564400136470795,0.1953659951686859
1750561116520911600,1.69691162109375,-0.09172099828720093,0.026247000321745872,-0.05077100172638893
1750561116530516200,1.70651611328125,0.23047199845314026,-0.01665000058710575,-0.2445410043001175
1750561116540121000,1.71612109375,0.4679130017757416,-0.006260999944061041,-0.22881700098514557
1750561116549725700,1.7257255859375,0.3791159987449646,-0.06641600281000137,-0.06279599666595459
1750561116559330600,1.73533056640625,0.15800899267196655,-0.11490900069475174,0.11279900372028351
1750561116568935200,1.74493505859375,0.00010699999984353781,-0.11161299794912338,0.14383000135421753
1750561116578539800,1.754539794921875,-0.007424999959766865,-0.058462001383304596,0.03441900014877319
1750561116588144400,1.764144287109375,0.12160299718379974,-0.09213899821043015,-0.09521900117397308
1750561116597749000,1.7737490234375,0.3073129951953888,-0.10853999853134155,-0.15906399488449097
1750561116607353600,1.783353515625,0.3065750002861023,-0.12555000185966492,-0.1389710009098053
1750561116616958500,1.79295849609375,0.02809000015258789,-0.10526899993419647,-0.06415700167417526
1750561116626563300,1.802563232421875,-0.3254610002040863,-0.08366499841213226,0.05319400131702423
1750561116636168200,1.812168212890625,-0.4432710111141205,-0.08065100014209747,0.14820900559425354
1750561116645772800,1.821772705078125,-0.24257700145244598,-0.05529699847102165,0.13138799369335175
1750561116655377400,1.83137744140625,0.22357399761676788,-0.009885000064969063,-0.041186001151800156
1750561116664982000,1.84098193359375,0.7479829788208008,-0.057429999113082886,-0.1838269978761673
1750561116674587000,1.8505869140625,1.0089130401611328,-0.08662600070238113,-0.1981939971446991
1750561116684191500,1.86019140625,0.8504509925842285,-0.09716600179672241,-0.13905100524425507
1750561116693796000,1.869796142578125,0.3494569957256317,-0.12869499623775482,0.0017470000311732292
1750561116703401000,1.87940087890625,-0.2549610137939453,-0.08141399919986725,0.08627799898386002
1750561116713005300,1.88900537109375,-0.6042590141296387,0.02370399981737137,0.11979900300502777
1750561116722610200,1.898610107421875,-0.6751599907875061,0.07778000086545944,0.13095100224018097
1750561116732214800,1.90821484375,-0.46396300196647644,0.10753300040960312,0.008427999913692474
1750561116741819600,1.917819580078125,-0.13438600301742554,0.1477919965982437,-0.09494999796152115
1750561116751424300,1.92742431640625,0.11737699806690216,0.10689699649810791,-0.13092699646949768
1750561116761029000,1.937029052734375,0.17803199589252472,0.056954000145196915,-0.09285300225019455
1750561116770633700,1.9466337890625,-0.004098999779671431,0.06983699649572372,-0.02033100090920925
1750561116780238300,1.95623828125,-0.30920401215553284,0.09604299813508987,0.10857199877500534
1750561116789843200,1.96584326171875,-0.38211899995803833,0.10651999711990356,0.13373799622058868
1750561116799447800,1.97544775390625,-0.25356099009513855,0.12815000116825104,-0.03353499993681908
1750561116809052400,1.985052490234375,0.05765099823474884,0.06027400121092796,-0.19293799996376038
1750561116818657300,1.9946572265625,0.2549610137939453,-0.033174000680446625,-0.31946200132369995
1750561116828262000,2.004261962890625,0.21932700276374817,-0.080035001039505,-0.2703999876976013
1750561116837866800,2.01386669921875,-0.06941699981689453,-0.1539279967546463,-0.06506399810314178
1750561116847471400,2.023471435546875,-0.2774749994277954,-0.1486400067806244,0.04484099894762039
1750561116857076200,2.033076171875,-0.2917279899120331,-0.14307700097560883,0.021515000611543655
1750561116866680800,2.042680908203125,-0.09745900332927704,-0.033876001834869385,0.07486599683761597
1750561116876285400,2.052285400390625,0.13134999573230743,0.01600700058043003,0.19159600138664246
1750561116885890300,2.061890380859375,0.22626599669456482,-0.00033599999733269215,0.25648701190948486
1750561116895495000,2.071494873046875,0.18337100744247437,-0.020450999960303307,0.1836709976196289
1750561116905099500,2.081099609375,0.04441500082612038,0.02228499948978424,0.04100299999117851
1750561116914704400,2.090704345703125,-0.13740800321102142,0.07179400324821472,-0.05130400136113167
1750561116924309000,2.10030908203125,-0.30363500118255615,0.08221399784088135,-0.039400000125169754
1750561116933913600,2.10991357421875,-0.3441399931907654,0.0705839991569519,0.04066399857401848
1750561116943518200,2.119518310546875,-0.29770201444625854,0.09720200300216675,0.18271900713443756
1750561116953123000,2.129123046875,-0.1036520004272461,0.058368001133203506,0.2399130016565323
1750561116962727700,2.138727783203125,0.21810699999332428,0.04665499925613403,0.12705999612808228
1750561116972332300,2.148332275390625,0.5111240148544312,0.002139999996870756,0.023993000388145447
1750561116981937200,2.157937255859375,0.6177989840507507,-0.10364300012588501,-0.05840200185775757
1750561116991542000,2.1675419921875,0.5558990240097046,-0.07414499670267105,-0.1712850034236908
1750561117001146600,2.177146728515625,0.20168599486351013,-0.014328000135719776,-0.14306899905204773
1750561117010751200,2.186751220703125,-0.18080799281597137,-0.017297999933362007,-0.08030200004577637
1750561117020356000,2.196356201171875,-0.4118509888648987,-0.003548000007867813,-0.012715999968349934
1750561117029960700,2.205960693359375,-0.3863280117511749,-0.007859000004827976,-0.023339999839663506
1750561117039565300,2.2155654296875,-0.1900629997253418,-0.06135400012135506,-0.08637300133705139
1750561117049170000,2.225169921875,0.02158600091934204,-0.07392500340938568,-0.04983200132846832
1750561117058774800,2.23477490234375,0.23625299334526062,-0.08953999727964401,-0.0634469985961914
1750561117068379400,2.24437939453125,0.31009599566459656,-0.06046599894762039,-0.07242000102996826
1750561117077984300,2.253984375,0.24846400320529938,-0.005987000185996294,-0.023528000339865685
1750561117087589000,2.263589111328125,0.0030129998922348022,-0.012949000112712383,0.03318899869918823
1750561117097193700,2.27319384765625,-0.1483059972524643,-0.005872000008821487,0.051468998193740845
1750561117106798300,2.28279833984375,-0.20356300473213196,0.0032500000670552254,0.04090899974107742
1750561117116403000,2.29240283203125,-0.0548739992082119,-0.03545000031590462,-0.014115000143647194
1750561117126007600,2.302007568359375,0.2258789986371994,-0.10830499976873398,-0.13516700267791748
1750561117135612400,2.3116123046875,0.4360460042953491,-0.10785800218582153,-0.3244360089302063
1750561117145217000,2.321217041015625,0.4481639862060547,-0.14201200008392334,-0.28786900639533997
1750561117154822000,2.33082177734375,0.3291569948196411,-0.13602399826049805,-0.12745699286460876
1750561117164426500,2.340426513671875,0.08966100215911865,-0.047850001603364944,0.07364600151777267
1750561117174031400,2.35003125,0.01640699990093708,-0.02079799957573414,0.22318300604820251
1750561117183636000,2.359635986328125,0.08860699832439423,0.014681000262498856,0.15661099553108215
1750561117193240800,2.36924072265625,0.23392200469970703,0.04997900128364563,0.05699799954891205
1750561117202845400,2.378845458984375,0.32398900389671326,0.0664530023932457,0.051375001668930054
1750561117212450000,2.388449951171875,0.2904280126094818,0.04312700033187866,0.044148001819849014
1750561117222054700,2.3980546875,0.09403499960899353,0.0838330015540123,0.0053449999541044235
1750561117231659500,2.407659423828125,-0.33516401052474976,0.1385290026664734,0.10146500170230865
1750561117241264000,2.41726416015625,-0.7059530019760132,0.12412899732589722,0.2055239975452423
1750561117250868700,2.42686865234375,-0.8562690019607544,0.1778549998998642,0.23333700001239777
1750561117260473300,2.436473388671875,-0.7293319702148438,0.16160699725151062,0.13874700665473938
1750561117270078200,2.446078125,-0.37787899374961853,0.12843400239944458,-0.07382600009441376
1750561117279683000,2.45568310546875,-0.013799999840557575,0.08573299646377563,-0.19872300326824188
1750561117289287700,2.46528759765625,0.149167001247406,0.01945599913597107,-0.17820900678634644
1750561117298892500,2.474892578125,0.13957400619983673,-0.01807199977338314,-0.053227998316287994
1750561117308497200,2.4844970703125,0.06849399954080582,0.03961599990725517,0.04323200136423111
1750561117318101800,2.494101806640625,-0.15635299682617188,0.020729999989271164,0.19102099537849426
1750561117327706600,2.50370654296875,-0.3250040113925934,0.034338001161813736,0.28967300057411194
1750561117337311200,2.513311279296875,-0.37783798575401306,0.05151300132274628,0.22565199434757233
1750561117346915800,2.522915771484375,-0.24501800537109375,0.009975000284612179,0.05481899902224541
1750561117356520700,2.532520751953125,-0.1097870022058487,-0.030945999547839165,-0.09364499896764755
1750561117366125300,2.542125244140625,0.06758999824523926,-0.03290500119328499,-0.18627400696277618
1750561117375730000,2.55172998046875,0.14890000224113464,-0.00803299993276596,-0.17638400197029114
1750561117385334500,2.56133447265625,0.17569200694561005,-0.0320810005068779,-0.11922600120306015
1750561117394939400,2.570939453125,0.20231199264526367,-0.0609310008585453,-0.03864800184965134
1750561117404544300,2.580544189453125,0.1408900022506714,-0.10064099729061127,0.13572700321674347
1750561117414148900,2.59014892578125,-0.023209000006318092,-0.10176900029182434,0.29543501138687134
1750561117423753700,2.599753662109375,-0.18674899637699127,-0.07142099738121033,0.225149005651474
1750561117433358300,2.6093583984375,-0.2663840055465698,-0.10310900211334229,0.08777300268411636
1750561117442963000,2.618962890625,-0.26858898997306824,-0.15105199813842773,-0.06662599742412567
1750561117452567600,2.628567626953125,-0.1923139989376068,-0.14378200471401215,-0.1589670032262802
1750561117462172400,2.63817236328125,0.027486000210046768,-0.15712399780750275,-0.3015649914741516
1750561117471777000,2.647777099609375,0.31692400574684143,-0.13406400382518768,-0.4227220118045807
1750561117481381600,2.657381591796875,0.5695210099220276,-0.17988300323486328,-0.40059301257133484
1750561117490986200,2.666986328125,0.61285799741745,-0.1468919962644577,-0.29123198986053467
1750561117500591000,2.676591064453125,0.35161998867988586,-0.14666099846363068,-0.14910000562667847
1750561117510195700,2.68619580078125,0.15141700208187103,-0.12546700239181519,0.0020359999034553766
1750561117519800600,2.695800537109375,-0.10385700315237045,-0.09553799778223038,0.09232600033283234
1750561117529405200,2.7054052734375,-0.28264400362968445,-0.020459000021219254,0.1504960060119629
1750561117539010000,2.715010009765625,-0.29478898644447327,0.06958500295877457,0.0005699999746866524
1750561117548614700,2.72461474609375,-0.1978130042552948,0.1353520005941391,-0.11232499778270721
1750561117558219500,2.734219482421875,-0.0520780012011528,0.12849600613117218,-0.16583600640296936
1750561117567824100,2.74382421875,0.04062199965119362,0.14019499719142914,-0.10432299971580505
1750561117577428700,2.7534287109375,0.04678900167346001,0.1235940009355545,-0.05963499844074249
1750561117587033300,2.763033447265625,-0.07578399777412415,0.06529200077056885,0.03270699828863144
1750561117596638200,2.77263818359375,-0.1953669935464859,0.01537999976426363,0.16515499353408813
1750561117606242800,2.782242919921875,-0.21183699369430542,0.04420800134539604,0.205718994140625
1750561117615847400,2.791847412109375,-0.0032259998843073845,0.14387600123882294,0.19122900068759918
1750561117625452300,2.801452392578125,0.01951500028371811,0.01012600027024746,0.24056699872016907
1750561117635057000,2.811056884765625,0.2095949947834015,0.036386001855134964,0.15125399827957153
1750561117644661800,2.820661865234375,0.22958500683307648,0.1357550024986267,0.060458000749349594
1750561117654266400,2.830266357421875,0.06861100345849991,0.10763899981975555,0.042500998824834824
1750561117663871200,2.839871337890625,-0.12070100009441376,0.09895499795675278,0.12747199833393097
1750561117673475800,2.849475830078125,-0.253495991230011,0.06651599705219269,0.15073999762535095
1750561117683080400,2.85908056640625,-0.21399299800395966,0.021497000008821487,0.05908999964594841
1750561117692685300,2.868685302734375,-0.06133599951863289,0.01693500019609928,-0.1110209971666336
1750561117702290000,2.8782900390625,0.13121700286865234,-0.04324699938297272,-0.17647500336170197
1750561117711894500,2.88789453125,0.22617299854755402,-0.12061599642038345,-0.17824700474739075
1750561117721499400,2.89749951171875,0.2297150045633316,-0.14708900451660156,-0.11176799982786179
1750561117731104000,2.90710400390625,0.16354499757289886,-0.10770600289106369,0.05260099843144417
1750561117740708600,2.91670849609375,0.15940499305725098,-0.11272700130939484,0.233242005109787
1750561117750313500,2.9263134765625,0.2174849957227707,-0.11770199984312057,0.3194180130958557
1750561117759918000,2.93591796875,0.4163050055503845,-0.08788300305604935,0.0990620031952858
1750561117769523000,2.94552294921875,0.560774028301239,-0.02528199926018715,-0.16964299976825714
1750561117779127600,2.95512744140625,0.603875994682312,-0.06553400307893753,-0.38440799713134766
1750561117788732400,2.964732421875,0.5125309824943542,-0.1211870014667511,-0.3569130003452301
1750561117798337000,2.9743369140625,0.20285800099372864,-0.07111299782991409,-0.16916100680828094
1750561117807941600,2.983941650390625,-0.19578300416469574,0.016112999990582466,-0.006513000000268221
1750561117817546200,2.993546142578125,-0.5673180222511292,0.0391400009393692,0.11492600291967392
1750561117827151000,3.003151123046875,-0.6991109848022461,0.02370999939739704,0.07860399782657623
1750561117836755700,3.012755615234375,-0.454477995634079,0.053043998777866364,0.005061000119894743
1750561117846360600,3.022360595703125,-0.11483000218868256,0.057151999324560165,-0.07056500017642975
1750561117855965200,3.031965087890625,0.1680610030889511,0.0072119999676942825,-0.0817129984498024
1750561117865570000,3.041570068359375,0.3190949857234955,-0.009932000190019608,-0.003739000065252185
1750561117875174700,3.051174560546875,0.26789700984954834,0.04822399839758873,0.041662998497486115
1750561117884779500,3.060779541015625,0.014736000448465347,0.08629699796438217,0.06790900230407715
1750561117894384000,3.070384033203125,-0.20766599476337433,0.06202499940991402,0.05082400143146515
1750561117903988700,3.07998876953125,-0.40296900272369385,0.08530399948358536,0.07008499652147293
1750561117913593600,3.089593505859375,-0.4901829957962036,0.05546800047159195,0.04240500181913376
1750561117923198200,3.0991982421875,-0.46561598777770996,0.023622000589966774,0.07103700190782547
1750561117932802800,3.108802734375,-0.27448999881744385,-0.006000000052154064,0.09832199662923813
1750561117942407700,3.11840771484375,-0.05066100135445595,0.019892999902367592,0.08306500315666199
1750561117952012300,3.12801220703125,0.00790799967944622,0.05074600130319595,0.06107499822974205
1750561117961617200,3.1376171875,0.001104000024497509,0.07396399974822998,0.13367900252342224
1750561117971221800,3.1472216796875,-0.008345999754965305,0.00889899954199791,0.1285180002450943
1750561117980826600,3.15682666015625,-0.003855000017210841,-0.01953200064599514,0.06689299643039703
1750561117990431200,3.16643115234375,-0.05829500034451485,0.015297000296413898,-0.012602999806404114
1750561118000035800,3.176035888671875,-0.10762300342321396,-0.012555999681353569,-0.06960500031709671
1750561118009640400,3.185640380859375,-0.026856999844312668,-0.02583399973809719,-0.07689499855041504
1750561118019245300,3.195245361328125,0.049754999577999115,-0.019533999264240265,-0.07475800067186356
1750561118028850000,3.204849853515625,0.14323000609874725,-0.03827299922704697,-0.046084001660346985
1750561118038454500,3.21445458984375,0.14559100568294525,-0.04725300148129463,0.000039999998989515007
1750561118048059100,3.22405908203125,0.05784200131893158,-0.07433299720287323,-0.026110000908374786
1750561118057664000,3.2336640625,-0.024751000106334686,-0.041106000542640686,-0.06764599680900574
1750561118067268900,3.243268798828125,0.0005559999844990671,-0.02718299999833107,-0.12515999376773834
1750561118076873500,3.25287353515625,0.15514999628067017,-0.03566800057888031,-0.15784800052642822
1750561118086478000,3.26247802734375,0.3720960021018982,-0.040470998734235764,-0.19249700009822845
1750561118096083000,3.2720830078125,0.41297098994255066,-0.084026999771595,-0.1675489991903305
1750561118105687600,3.2816875,0.20938299596309662,-0.05622199922800064,-0.04503300040960312
1750561118115292200,3.291292236328125,-0.1340630054473877,-0.033810000866651535,0.024044999852776527
1750561118124897000,3.30089697265625,-0.37557700276374817,-0.017410999163985252,0.04053699970245361
1750561118134502000,3.310501953125,-0.39621099829673767,-0.01943499967455864,0.015053000301122665
1750561118144106500,3.3201064453125,-0.1901939958333969,-0.026572000235319138,-0.026177000254392624
1750561118153711000,3.329711181640625,0.12203100323677063,-0.006639000028371811,-0.05841900035738945
1750561118163315700,3.339315673828125,0.42333099246025085,0.0217909999191761,-0.09863299876451492
1750561118172920300,3.34892041015625,0.5633689761161804,0.0036510000936686993,-0.09013199806213379
1750561118182525200,3.358525146484375,0.5404760241508484,-0.008728999644517899,-0.0883990004658699
1750561118192129800,3.3681298828125,0.27773499488830566,-0.010696999728679657,-0.10247000306844711
1750561118201734700,3.377734619140625,-0.16354799270629883,-0.019067000597715378,-0.0019759999122470617
1750561118211339500,3.387339599609375,-0.581421971321106,0.009362000040709972,0.16257600486278534
1750561118220944100,3.396944091796875,-0.7293859720230103,0.020579999312758446,0.28337201476097107
1750561118230548700,3.406548828125,-0.6051130294799805,0.10663600265979767,0.20967699587345123
1750561118240153600,3.416153564453125,-0.2560630142688751,0.14287100732326508,0.030513999983668327
1750561118249758200,3.42575830078125,0.1702509969472885,0.09791299700737,-0.100552998483181
1750561118259362800,3.43536279296875,0.4410429894924164,0.07723700255155563,-0.13343599438667297
1750561118268967400,3.444967529296875,0.4295499920845032,0.0032919999212026596,-0.026820000261068344
1750561118278572000,3.454572021484375,0.1946689933538437,-0.043928999453783035,0.09831500053405762
1750561118288177200,3.46417724609375,-0.11519099771976471,-0.02028599940240383,0.22581399977207184
1750561118297781800,3.47378173828125,-0.30398499965667725,-0.01945599913597107,0.2877730131149292
1750561118307386400,3.483386474609375,-0.2796199917793274,0.05094200000166893,0.14554500579833984
1750561118316991200,3.4929912109375,-0.08946199715137482,0.03742599859833717,-0.04159099981188774
1750561118326595800,3.502595947265625,0.20632599294185638,-0.0006169999833218753,-0.2004690021276474
1750561118336200400,3.512200439453125,0.34029000997543335,-0.0587569996714592,-0.20413100719451904
1750561118345805300,3.521805419921875,0.3310549855232239,-0.07937200367450714,-0.15028400719165802
1750561118355410000,3.531409912109375,0.1338759958744049,-0.11078999936580658,-0.009415999986231327
1750561118365014800,3.541014892578125,-0.03227899968624115,-0.06623999774456024,0.0968869999051094
1750561118374619400,3.550619384765625,-0.05335899814963341,-0.028821000829339027,0.08992499858140945
1750561118384224000,3.56022412109375,0.029918000102043152,-0.004170999862253666,0.10569500178098679
1750561118393828900,3.569828857421875,0.1495870053768158,-0.029032999649643898,0.059494998306035995
1750561118403433700,3.579433837890625,0.17781800031661987,-0.019562000408768654,-0.008286000229418278
1750561118413038300,3.589038330078125,0.09306299686431885,-0.05378299951553345,-0.1372479945421219
1750561118422643000,3.598642822265625,-0.03214000165462494,-0.02274700067937374,-0.20941099524497986
1750561118432247600,3.60824755859375,-0.20824700593948364,0.023003000766038895,-0.15785600244998932
1750561118441852400,3.617852294921875,-0.3584139943122864,0.03905300050973892,-0.06787700206041336
1750561118451457000,3.62745703125,-0.3669930100440979,-0.006318000145256519,0.05382100120186806
1750561118461061600,3.6370615234375,-0.18465599417686462,-0.04529400169849396,0.06847699731588364
1750561118470666500,3.64666650390625,-0.018769999966025352,-0.06019600108265877,0.07134199887514114
1750561118480271000,3.65627099609375,0.06398800015449524,-0.0723399966955185,0.0980990007519722
1750561118489875700,3.665875732421875,0.02641100063920021,-0.020364999771118164,0.07540500164031982
1750561118499480600,3.67548046875,-0.09389500319957733,0.011651000007987022,-0.004238000139594078
1750561118509085200,3.685085205078125,-0.12798799574375153,0.0517439991235733,-0.028781000524759293
1750561118518689800,3.694689697265625,-0.10120200365781784,0.015127000398933887,-0.025225000455975533
1750561118528295000,3.704294921875,-0.0928179994225502,-0.02597000077366829,0.009960999712347984
1750561118537899500,3.7138994140625,-0.02616499923169613,-0.03813900053501129,0.06375499814748764
1750561118547504000,3.723504150390625,0.01332399994134903,-0.04889100044965744,0.0690860003232956
1750561118557109000,3.73310888671875,-0.05124099925160408,-0.023504000157117844,0.05822199955582619
1750561118566713600,3.742713623046875,-0.049869999289512634,0.018883999437093735,0.029519999399781227
1750561118576318200,3.752318115234375,-0.008972999639809132,0.005623000208288431,0.048872001469135284
1750561118585922800,3.7619228515625,0.12935200333595276,-0.03838000074028969,-0.022864000871777534
1750561118595527700,3.771527587890625,0.2301570028066635,-0.02689399942755699,-0.11836999654769897
1750561118605132500,3.781132568359375,0.16801199316978455,-0.02141599915921688,-0.12883800268173218
1750561118614737200,3.790737060546875,-0.013144999742507935,-0.03301500156521797,-0.04265100136399269
1750561118624341800,3.800341796875,-0.1294970065355301,0.0013389999512583017,0.0404760017991066
1750561118633946600,3.809946533203125,-0.1967889964580536,0.0313199982047081,0.0722000002861023
1750561118643551200,3.81955126953125,-0.21480600535869598,0.0006639999919570982,0.11163999885320663
1750561118653155800,3.82915576171875,-0.10764899849891663,-0.03748299926519394,0.06619200110435486
1750561118662760700,3.8387607421875,0.11819999665021896,-0.01231599971652031,-0.04794500023126602
1750561118672365300,3.848365234375,0.3863059878349304,-0.015092999674379826,-0.1459529995918274
1750561118681970000,3.857969970703125,0.48454800248146057,-0.013244000263512135,-0.18509800732135773
1750561118691574500,3.867574462890625,0.3654229938983917,0.04913099855184555,-0.197175994515419
1750561118701179400,3.877179443359375,0.1416040062904358,0.0495310015976429,-0.1488640010356903
1750561118710784300,3.8867841796875,-0.16324999928474426,0.04354399815201759,-0.07272499799728394
1750561118720388900,3.896388916015625,-0.34191399812698364,0.027375999838113785,0.10760500282049179
1750561118729993700,3.90599365234375,-0.48610201478004456,0.0525749996304512,0.26976799964904785
1750561118739598300,3.915598388671875,-0.44708800315856934,0.021567000076174736,0.27340999245643616
1750561118749203000,3.925202880859375,-0.2290160059928894,0.04753199964761734,0.15665100514888763
1750561118758807800,3.934807861328125,0.09801600128412247,0.042959000915288925,0.014773000031709671
1750561118768412400,3.944412353515625,0.38113701343536377,0.06786199659109116,-0.11315499991178513
1750561118778017000,3.95401708984375,0.4885779917240143,0.03208800032734871,-0.15544499456882477
1750561118787622000,3.963621826171875,0.421299010515213,0.00897900015115738,-0.18233899772167206
1750561118797226500,3.9732265625,0.22863100469112396,-0.02078000083565712,-0.10227300226688385
1750561118806831000,3.9828310546875,-0.04173700138926506,-0.06898300349712372,0.019773000851273537
1750561118816436000,3.99243603515625,-0.30405300855636597,-0.09408800303936005,0.08560200035572052
1750561118826040600,4.00204052734375,-0.39583200216293335,-0.09132099896669388,0.06646700203418732
1750561118835645400,4.0116455078125,-0.26017099618911743,-0.04128799960017204,-0.0001289999927394092
1750561118845250300,4.021250244140625,0.04640499874949455,0.0010400000028312206,-0.09112799912691116
1750561118854855000,4.03085498046875,0.25176799297332764,0.01040400005877018,-0.19394199550151825
1750561118864459500,4.04045947265625,0.26863300800323486,-0.005065999925136566,-0.26630300283432007
1750561118874064100,4.050064208984375,0.06130800023674965,-0.03568600118160248,-0.21163100004196167
1750561118883669000,4.0596689453125,-0.2333119958639145,-0.00019500000053085387,-0.116907998919487
1750561118893273600,4.069273681640625,-0.4827460050582886,0.04179900139570236,0.03753099963068962
1750561118902878200,4.078878173828125,-0.5215229988098145,0.04288399964570999,0.13170300424098969
1750561118912483000,4.088483154296875,-0.35869500041007996,0.07750099897384644,0.1403989940881729
1750561118922088000,4.098087890625,-0.10125800222158432,0.062362998723983765,0.09245599806308746
1750561118931692500,4.107692626953125,0.012531000189483166,-0.026081999763846397,0.06839200109243393
1750561118941297200,4.117297119140625,-0.020049000158905983,-0.046803999692201614,0.05459199845790863
1750561118950902000,4.126902099609375,0.00558000011369586,-0.00853199977427721,-0.048103999346494675
1750561118960506600,4.136506591796875,-0.03005100041627884,-0.0147299999371171,-0.08723600208759308
1750561118970111500,4.146111572265625,-0.036090999841690063,0.01126800011843443,-0.0863339975476265
1750561118979716000,4.155716064453125,0.10953299701213837,0.03997600078582764,-0.09755100309848785
1750561118989321000,4.165321044921875,0.33320000767707825,0.026115000247955322,0.0687670037150383
1750561118998925600,4.174925537109375,0.44314199686050415,-0.06860700249671936,0.3135409951210022
1750561119008530200,4.1845302734375,0.42296600341796875,-0.05857900157570839,0.37165600061416626
1750561119018134800,4.194134765625,0.19892700016498566,0.0020409999415278435,0.28995800018310547
1750561119027739400,4.203739501953125,0.027842000126838684,0.030271999537944794,0.16532599925994873
1750561119037344300,4.21334423828125,-0.07581499963998795,0.06131099909543991,-0.009112999774515629
1750561119046948900,4.222948974609375,-0.07469499856233597,0.04816199839115143,-0.1532669961452484
1750561119056553700,4.2325537109375,-0.036531001329422,0.056637998670339584,-0.22961300611495972
1750561119066158300,4.242158447265625,-0.13474999368190765,0.026649000123143196,-0.12935300171375275
1750561119075763200,4.25176318359375,-0.2631179988384247,0.028481999412178993,-0.027874000370502472
1750561119085367800,4.261367919921875,-0.2911610007286072,0.01637599989771843,0.028165999799966812
1750561119094972700,4.27097265625,-0.12410800158977509,0.007961999624967575,0.05741700157523155
1750561119104577300,4.280577392578125,-0.02050499990582466,-0.025662999600172043,0.13401199877262115
1750561119114182000,4.290181884765625,0.11855000257492065,-0.03776500001549721,0.15222600102424622
1750561119123786800,4.299786865234375,0.2746799886226654,-0.0674389973282814,0.01571499928832054
1750561119133391600,4.3093916015625,0.3680950105190277,-0.06477600336074829,-0.1350249946117401
1750561119142996200,4.318996337890625,0.42017799615859985,-0.026869000867009163,-0.18019500374794006
1750561119152600800,4.328600830078125,0.256289005279541,-0.02069699950516224,-0.13917499780654907
1750561119162205400,4.338205322265625,-0.03333200141787529,-0.015706000849604607,-0.04172300174832344
1750561119171810300,4.347810302734375,-0.3774600028991699,-0.005967000033706427,0.09377499669790268
1750561119181415000,4.357414794921875,-0.5913959741592407,0.033913999795913696,0.19635799527168274
1750561119191019800,4.367019775390625,-0.6226549744606018,0.012404999695718288,0.15571600198745728
1750561119200624400,4.376624267578125,-0.5226479768753052,-0.01874700002372265,0.0037499999161809683
1750561119210229000,4.38622900390625,-0.2779099941253662,-0.03418499976396561,-0.1347540020942688
1750561119219833900,4.395833740234375,-0.033681999891996384,-0.021088000386953354,-0.2151229977607727
1750561119229438500,4.4054384765625,0.15137499570846558,0.016752000898122787,-0.2807210087776184
1750561119239043300,4.415043212890625,0.1528329998254776,0.02694999985396862,-0.22932399809360504
1750561119248648000,4.42464794921875,0.17710700631141663,0.06565999984741211,-0.05072899907827377
1750561119258252500,4.43425244140625,0.6338419914245605,0.0321430005133152,0.2161320000886917
1750561119267857200,4.443857177734375,1.2432990074157715,0.06947600096464157,0.3595860004425049
1750561119277462000,4.4534619140625,1.7959990501403809,0.29262399673461914,0.3177129924297333
1750561119287067000,4.46306689453125,2.149074077606201,0.5546339750289917,0.0431860014796257
1750561119296671500,4.47267138671875,2.3294920921325684,0.8376830220222473,-0.1335349977016449
1750561119306276000,4.482276123046875,3.167634963989258,1.238631010055542,-0.07435400038957596
1750561119315881000,4.491880859375,3.9260830879211426,1.3972129821777344,-0.05908700078725815
1750561119325485600,4.501485595703125,4.968800067901611,1.355692982673645,-0.01581599935889244
1750561119335090200,4.511090087890625,5.9357428550720215,1.1231980323791504,-0.06577000021934509
1750561119344695000,4.520695068359375,5.994424819946289,0.47982698678970337,0.006446999963372946
1750561119354299600,4.530299560546875,5.776282787322998,0.14671500027179718,-0.2842150032520294
1750561119363904500,4.539904541015625,5.100648880004883,-0.09593500196933746,-0.7105540037155151
1750561119373509400,4.54950927734375,4.398828983306885,-0.3376150131225586,-0.8560000061988831
1750561119383114000,4.559114013671875,3.459260940551758,-0.5425419807434082,-0.9742649793624878
1750561119392718600,4.568718505859375,2.112804889678955,-0.7904419898986816,-1.0264780521392822
1750561119402323200,4.5783232421875,1.0168980360031128,-0.8114010095596313,-1.1898070573806763
1750561119411928000,4.587927978515625,-0.11074399948120117,-0.9605770111083984,-1.294448971748352
1750561119421532700,4.59753271484375,-0.8657010197639465,-1.242738962173462,-1.381343960762024
1750561119431137300,4.60713720703125,-1.3065849542617798,-1.346318006515503,-1.3014559745788574
1750561119440742100,4.6167421875,-1.8291209936141968,-1.523527979850769,-0.7331749796867371
1750561119450347000,4.626346923828125,-2.048772096633911,-1.7940880060195923,-0.29933300614356995
1750561119459951900,4.635951904296875,-2.6316769123077393,-2.0607268810272217,-0.2923550009727478
1750561119469556500,4.645556396484375,-3.548574924468994,-2.1052560806274414,-0.5173389911651611
1750561119479161000,4.6551611328125,-4.1538190841674805,-2.103677988052368,-0.9449219703674316
1750561119488765700,4.664765625,-4.766704082489014,-2.3302550315856934,-1.2466189861297607
1750561119498370600,4.67437060546875,-4.978234767913818,-2.5588600635528564,-1.49468195438385
1750561119507975200,4.68397509765625,-5.349453926086426,-2.6748130321502686,-1.647163987159729
1750561119517579800,4.693579833984375,-5.853117942810059,-2.7659640312194824,-1.2804399728775024
1750561119527184400,4.703184326171875,-6.231129169464111,-2.7030720710754395,-0.8160160183906555
1750561119536789200,4.712789306640625,-6.432178020477295,-2.4485929012298584,0.014866000041365623
1750561119546394000,4.72239404296875,-6.091301918029785,-2.1818249225616455,0.8024359941482544
1750561119555999000,4.7319990234375,-5.548838138580322,-2.096468925476074,0.9766430258750916
1750561119565603600,4.741603515625,-5.116477012634277,-2.1104660034179688,0.9293339848518372
1750561119575208200,4.751208251953125,-4.799402236938477,-1.9792020320892334,0.6622740030288696
1750561119584813000,4.76081298828125,-4.732993125915527,-1.8044389486312866,0.3641670048236847
1750561119594417700,4.770417724609375,-4.599943161010742,-1.6564819812774658,0.7413690090179443
1750561119604022300,4.780022216796875,-3.8317019939422607,-1.3369669914245605,1.4232970476150513
1750561119613627100,4.789627197265625,-3.0567591190338135,-1.0813050270080566,2.1654839515686035
1750561119623231700,4.799231689453125,-2.537277936935425,-1.016286015510559,2.935365915298462
1750561119632836400,4.80883642578125,-2.2547779083251953,-1.0170559883117676,3.210939884185791
1750561119642441000,4.81844091796875,-2.1410560607910156,-0.9539790153503418,3.1306979656219482
1750561119652045800,4.8280458984375,-1.7613849639892578,-0.7439529895782471,2.544950008392334
1750561119661650400,4.837650390625,-1.8769570589065552,-0.6266440153121948,2.2587571144104004
1750561119671255300,4.84725537109375,-0.9510759711265564,-0.914080023765564,2.3781540393829346
1750561119680860200,4.856860107421875,1.3996340036392212,-0.640404999256134,2.456899881362915
1750561119690464800,4.86646484375,4.974118232727051,-0.05409200116991997,3.3107779026031494
1750561119700069400,4.8760693359375,8.247316360473633,0.4094260036945343,3.945142984390259
1750561119709674000,4.885674072265625,10.295284271240234,0.7298380136489868,3.836167097091675
1750561119719278800,4.89527880859375,11.317756652832031,1.1032700538635254,2.7590649127960205
1750561119728883500,4.904883544921875,10.287944793701172,1.502181053161621,1.2088229656219482
1750561119738488300,4.91448828125,7.896725177764893,1.4371839761734009,0.8066009879112244
1750561119748093000,4.924093017578125,5.14276123046875,1.1965099573135376,1.0348600149154663
1750561119757697800,4.93369775390625,2.8830859661102295,1.0668989419937134,0.9685109853744507
1750561119767302400,4.943302490234375,1.821720004081726,0.952351987361908,0.6236730217933655
1750561119776907300,4.9529072265625,1.5407500267028809,0.7173380255699158,0.19609500467777252
1750561119786512000,4.962511962890625,2.453679084777832,0.2616400122642517,0.4057759940624237
1750561119796116500,4.972116455078125,3.1267170906066895,-0.0318170003592968,0.3249549865722656
1750561119805721000,4.98172119140625,3.418881893157959,-0.1637279987335205,-0.5140849947929382
1750561119815326000,4.991325927734375,3.8334710597991943,-0.32162898778915405,-0.9762790203094482
1750561119824930800,5.000930908203125,3.2685561180114746,-0.5436490178108215,-1.3513879776000977
1750561119834535200,5.01053515625,1.9233059883117676,-0.7911159992218018,-1.8572449684143066
1750561119844140000,5.02014013671875,-0.11277200281620026,-0.9472100138664246,-2.075148105621338
1750561119853744600,5.02974462890625,-1.9753509759902954,-0.9035829901695251,-2.2512309551239014
1750561119863349500,5.039349609375,-3.036397933959961,-0.557433009147644,-2.1550819873809814
1750561119872954400,5.048954345703125,-3.225522041320801,-0.44964799284935,-1.5397059917449951
1750561119882559200,5.058559326171875,-3.040457010269165,-0.4799109995365143,-0.6862919926643372
1750561119892163600,5.06816357421875,-2.052830934524536,-0.48009398579597473,-0.1922059953212738
1750561119901768400,5.0777685546875,-0.8214190006256104,-0.4979889988899231,-0.5247340202331543
1750561119911373000,5.087373046875,-0.10475900024175644,-0.6736739873886108,-1.3420130014419556
1750561119920977700,5.096977783203125,-0.21594899892807007,-0.7370219826698303,-1.9256409406661987
1750561119930582500,5.10658251953125,-1.0620219707489014,-0.735496997833252,-1.7192929983139038
1750561119940187100,5.116187255859375,-2.056770086288452,-0.7555680274963379,-0.5116810202598572
1750561119949791700,5.125791748046875,-2.7772459983825684,-0.5432689785957336,0.49944499135017395
1750561119959396900,5.13539697265625,-3.016309976577759,-0.3254919946193695,0.9469040036201477
1750561119969001500,5.14500146484375,-3.0815210342407227,-0.1773180067539215,0.6576989889144897
1750561119978606000,5.154606201171875,-2.910288095474243,-0.08252999931573868,0.07520599663257599
1750561119988211000,5.1642109375,-2.276995897293091,0.034648001194000244,-0.36173099279403687
1750561119997815600,5.173815673828125,-1.298274040222168,0.06939300149679184,-0.19060499966144562
1750561120007420200,5.183420166015625,-0.6385329961776733,0.036423999816179276,0.04883899912238121
1750561120017025000,5.19302490234375,-0.1344660073518753,0.022979000583291054,0.1907929927110672
1750561120026629600,5.202629638671875,0.034800998866558075,0.04538000002503395,0.25286200642585754
1750561120036234200,5.212234130859375,0.016217999160289764,0.047596998512744904,0.4254949986934662
1750561120045838800,5.2218388671875,0.10373000055551529,0.07134199887514114,0.7289909720420837
1750561120055443700,5.231443603515625,0.2913089990615845,0.11654900014400482,0.8764299750328064
1750561120065048600,5.241048583984375,0.5117490291595459,0.13927100598812103,0.8256139755249023
1750561120074653400,5.2506533203125,0.5468459725379944,0.1739960014820099,0.6391419768333435
1750561120084258000,5.260258056640625,0.36533600091934204,0.2539229989051819,0.4747459888458252
1750561120093862700,5.269862548828125,-0.04604899883270264,0.36809900403022766,0.19734999537467957
1750561120103467500,5.279467529296875,-0.4999470114707947,0.3143100142478943,0.019650999456644058
1750561120113072000,5.289072021484375,-0.6630600094795227,0.3161740005016327,-0.20805999636650085
1750561120122676700,5.2986767578125,-0.3181000053882599,0.2282560020685196,-0.265390008687973
1750561120132281300,5.30828125,0.28760701417922974,0.11425100266933441,-0.08751600235700607
1750561120141886200,5.31788623046875,0.6697390079498291,0.09687700122594833,0.15967899560928345
1750561120151490800,5.32749072265625,0.6728460192680359,0.077053003013134,0.3784550130367279
1750561120161095400,5.337095458984375,0.47631001472473145,0.11208300292491913,0.5066900253295898
1750561120170700300,5.3467001953125,0.15967099368572235,0.1318030059337616,0.7412919998168945
1750561120180305000,5.356304931640625,-0.011114000342786312,0.13286300003528595,0.7969849705696106
1750561120189909800,5.36590966796875,-0.0762770026922226,0.21601900458335876,0.4826749861240387
1750561120199514600,5.3755146484375,0.21507899463176727,0.25460299849510193,-0.10961399972438812
1750561120209119200,5.385119140625,0.6182960271835327,0.2678009867668152,-0.46817201375961304
1750561120218723800,5.394723876953125,0.8530499935150146,0.1977889984846115,-0.5341569781303406
1750561120228328400,5.404328369140625,0.6467779874801636,0.16898000240325928,-0.5128459930419922
1750561120237933300,5.413933349609375,0.17518599331378937,0.15763400495052338,-0.33465099334716797
1750561120247538000,5.423537841796875,-0.1956540048122406,0.0928959995508194,0.02079099975526333
1750561120257142500,5.433142578125,-0.3591209948062897,0.010730000212788582,0.34944599866867065
1750561120266747400,5.442747314453125,-0.3298029899597168,-0.012671000324189663,0.6065359711647034
1750561120276352000,5.45235205078125,0.13931599259376526,0.03442399948835373,0.5679290294647217
1750561120285956900,5.461956787109375,0.570946991443634,0.08676999807357788,0.3149769902229309
1750561120295561500,5.4715615234375,0.8030580282211304,0.12318699806928635,-0.0016449999529868364
1750561120305166300,5.481166259765625,0.5908849835395813,0.12816700339317322,-0.2741749882698059
1750561120314771000,5.49077099609375,0.13210299611091614,0.14612099528312683,-0.3935540020465851
1750561120324375800,5.500375732421875,-0.3010460138320923,0.18574899435043335,-0.34073299169540405
1750561120333980400,5.50998046875,-0.5794820189476013,0.14287300407886505,-0.11685200035572052
1750561120343585000,5.5195849609375,-0.5121020078659058,0.10639999806880951,0.046636998653411865
1750561120353190000,5.52918994140625,-0.29155001044273376,0.04826800152659416,0.19723699986934662
1750561120362794500,5.53879443359375,-0.10890399664640427,-0.0418270006775856,0.3957839906215668
1750561120372399000,5.548399169921875,0.10103800147771835,-0.0347989983856678,0.3041290044784546
1750561120382004000,5.55800390625,0.28015899658203125,-0.02718699909746647,0.041777998208999634
1750561120391608600,5.567608642578125,0.1807270050048828,-0.04408799856901169,-0.22855199873447418
1750561120401213400,5.57721337890625,0.08117099851369858,-0.05054299905896187,-0.4528219997882843
1750561120410818000,5.586818115234375,0.07736200094223022,-0.0031900000758469105,-0.38816699385643005
1750561120420423000,5.5964228515625,0.14321599900722504,0.010525000281631947,-0.2651039958000183
1750561120430027500,5.606027587890625,0.03231700137257576,-0.05521300062537193,-0.03216800093650818
1750561120439632400,5.61563232421875,-0.20761199295520782,-0.12264800071716309,0.16792699694633484
1750561120449237000,5.625237060546875,-0.3151029944419861,-0.013189000077545643,0.16810500621795654
1750561120458841600,5.634841552734375,-0.35717400908470154,-0.0103150000795722,0.2705729901790619
1750561120468446200,5.6444462890625,-0.16245800256729126,-0.013693000189960003,0.2648540139198303
1750561120478051000,5.654051025390625,0.14990800619125366,0.03773900121450424,0.14977900683879852
1750561120487656000,5.663656005859375,0.5079650282859802,0.034060001373291016,-0.11399199813604355
1750561120497260500,5.673260498046875,0.7091079950332642,0.022850999608635902,-0.2791469991207123
1750561120506865400,5.682865478515625,0.5802220106124878,0.05605100095272064,-0.31802600622177124
1750561120516470000,5.692469970703125,0.20990900695323944,0.13067199289798737,-0.19417700171470642
1750561120526074600,5.70207470703125,-0.32116401195526123,0.11396999657154083,0.006126999855041504
1750561120535679500,5.711679443359375,-0.6529679894447327,0.13695499300956726,0.1763550043106079
1750561120545284000,5.7212841796875,-0.727154016494751,0.09002500027418137,0.3084839880466461
1750561120554888700,5.730888671875,-0.6729239821434021,0.052535999566316605,0.49406901001930237
1750561120564493600,5.74049365234375,-0.5649160146713257,0.09741199761629105,0.37671801447868347
1750561120574098200,5.75009814453125,-0.2651039958000183,0.13824300467967987,0.15603399276733398
1750561120583702800,5.759702880859375,-0.002099999925121665,0.11819399893283844,-0.059682998806238174
1750561120593307400,5.769307373046875,0.3116140067577362,0.13840900361537933,-0.22621899843215942
1750561120602912300,5.778912353515625,0.475816011428833,0.12459799647331238,-0.2552970051765442
1750561120612517000,5.78851708984375,0.38017401099205017,0.011134999804198742,-0.12688499689102173
1750561120622121700,5.798121826171875,0.032391998916864395,-0.02143399976193905,-0.018341999500989914
1750561120631726600,5.8077265625,-0.3588060140609741,-0.04569400101900101,0.03795500099658966
1750561120641331200,5.817331298828125,-0.4890730082988739,-0.004277000203728676,0.004153999965637922
1750561120650935800,5.826935791015625,-0.45436498522758484,-0.006577000021934509,0.01168300025165081
1750561120660540700,5.836540771484375,-0.15842899680137634,-0.03860900178551674,0.00279999990016222
1750561120670145300,5.846145263671875,0.12472199648618698,-0.006763999816030264,-0.03564099967479706
1750561120679750000,5.85575,0.28074198961257935,-0.025753000751137733,-0.040105000138282776
1750561120689355000,5.86535498046875,0.21121500432491302,-0.06202699989080429,-0.006583999842405319
1750561120698959400,5.87495947265625,0.07863599807024002,-0.027970999479293823,0.02275400049984455
1750561120708564200,5.884564208984375,-0.03167000040411949,-0.03492499887943268,-0.03288400173187256
1750561120718169000,5.894169189453125,0.036274999380111694,-0.05414900183677673,0.033934999257326126
1750561120727773700,5.903773681640625,0.05563100054860115,-0.10564299672842026,0.10697899758815765
1750561120737378300,5.91337841796875,0.05242599919438362,-0.09789499640464783,0.1663919985294342
1750561120746983200,5.922983154296875,0.012265999801456928,-0.0946429967880249,0.10228399932384491
1750561120756587800,5.932587890625,-0.09587299823760986,-0.0986189991235733,-0.026388999074697495
1750561120766192400,5.9421923828125,-0.2279140055179596,-0.056331001222133636,-0.10981299728155136
1750561120775797200,5.95179736328125,-0.22012299299240112,0.005739999935030937,-0.20659500360488892
1750561120785401900,5.96140185546875,-0.10754600167274475,-0.008983000181615353,-0.19309799373149872
1750561120795006700,5.9710068359375,0.0884770005941391,-0.05611399933695793,-0.06255800276994705
1750561120804611600,5.980611572265625,0.2291480004787445,-0.06536000221967697,-0.010394999757409096
1750561120814216000,5.9902158203125,0.1831579953432083,-0.12489400058984756,0.08787800371646881
1750561120823820800,5.99982080078125,0.02112399972975254,-0.08008000254631042,0.1170869991183281
1750561120833425700,6.00942578125,-0.060506001114845276,0.004120000172406435,0.0531810000538826
1750561120843030300,6.0190302734375,-0.1208920031785965,0.05870800092816353,0.040181998163461685
1750561120852635000,6.028634765625,-0.20602799952030182,0.09404399991035461,0.00820900034159422
1750561120862239500,6.038239501953125,-0.15350399911403656,0.0761210024356842,-0.06809599697589874
1750561120871844400,6.04784423828125,-0.035036999732255936,0.04434400051832199,-0.22970500588417053
1750561120881449000,6.057448974609375,0.15400199592113495,0.020670000463724136,-0.31232398748397827
1750561120891053600,6.067053466796875,0.17124499380588531,-0.045382000505924225,-0.14516599476337433
1750561120900658400,6.076658447265625,0.06666299700737,-0.005396000109612942,0.03677399829030037
1750561120910263300,6.08626318359375,-0.16994699835777283,-0.005919000133872032,0.2908949851989746
1750561120919868000,6.095867919921875,-0.2619880139827728,-0.03422300145030022,0.278219997882843
1750561120929472800,6.10547265625,-0.1119609996676445,-0.06248600035905838,0.18169300258159637
1750561120939077400,6.115077392578125,0.16422100365161896,-0.05560699850320816,-0.018129000440239906
1750561120948682000,6.124681884765625,0.4698620140552521,-0.04216400161385536,-0.24385499954223633
1750561120958286800,6.134286865234375,0.5255079865455627,-0.01889299973845482,-0.28862300515174866
1750561120967891500,6.143891357421875,0.37121298909187317,0.024209000170230865,-0.19918499886989594
1750561120977496300,6.153496337890625,0.23448899388313293,0.060628000646829605,0.0026910000015050173
1750561120987101000,6.163100830078125,-0.09027399867773056,0.07056800276041031,0.00940299965441227
1750561120996705500,6.17270556640625,-0.30730900168418884,0.030914999544620514,-0.12276799976825714
1750561121006310100,6.18231005859375,-0.4429349899291992,0.015181999653577805,-0.14524300396442413
1750561121015915000,6.1919150390625,-0.4977259933948517,-0.04589900001883507,-0.08468399941921234
1750561121025519900,6.201519775390625,-0.4438920021057129,-0.04783400148153305,0.03853499889373779
1750561121035124700,6.211124755859375,-0.17220400273799896,0.008409000001847744,0.09010200202465057
1750561121044729300,6.220729248046875,-0.06436499953269958,-0.011110000312328339,0.12448199838399887
1750561121054334000,6.230333984375,-0.027803000062704086,-0.04435800015926361,0.03552500158548355
1750561121063938600,6.2399384765625,-0.3315800130367279,0.001285000005736947,-0.032791998237371445
1750561121073543400,6.24954345703125,-0.6337490081787109,-0.03629099950194359,-0.09233199805021286
1750561121083148000,6.25914794921875,-0.6238260269165039,-0.030579999089241028,-0.1797109991312027
1750561121092752600,6.268752685546875,-0.2699829936027527,-0.05459899827837944,-0.1276089996099472
1750561121102357200,6.278357177734375,0.10728400200605392,-0.1407179981470108,0.0742340013384819
1750561121111962000,6.287962158203125,0.16591300070285797,-0.17432299256324768,0.26566898822784424
1750561121121567000,6.29756689453125,-0.25999099016189575,-0.18236799538135529,0.39558398723602295
1750561121131171600,6.307171630859375,-0.6345670223236084,-0.15228499472141266,0.31986498832702637
1750561121140776400,6.3167763671875,-0.7493370175361633,-0.0715159997344017,0.17241699993610382
1750561121150381000,6.326381103515625,-0.48545700311660767,0.02177399955689907,0.0785439983010292
1750561121159986000,6.33598583984375,-0.2317119985818863,0.09580399841070175,-0.01820800080895424
1750561121169590500,6.345590576171875,0.17899900674819946,0.10621000081300735,-0.06621400266885757
1750561121179195100,6.355195068359375,0.6388339996337891,0.231223002076149,-0.10800600051879883
1750561121188800000,6.364800048828125,0.8021000027656555,0.24422800540924072,0.2940770089626312
1750561121198404600,6.374404541015625,0.9777500033378601,0.2605000138282776,1.0963009595870972
1750561121208009200,6.38400927734375,1.354112982749939,0.40118199586868286,1.1429799795150757
1750561121217614000,6.393614013671875,1.7542569637298584,0.485617995262146,0.6421499848365784
1750561121227219000,6.403218994140625,2.3608269691467285,0.7615180015563965,-0.2517339885234833
1750561121236823600,6.412823486328125,3.067636013031006,0.9579820036888123,-1.0590280294418335
1750561121246428200,6.42242822265625,3.7864348888397217,0.9506279826164246,-1.3674770593643188
1750561121256032800,6.43203271484375,4.357460975646973,0.8327530026435852,-1.3805780410766602
1750561121265637600,6.4416376953125,4.556331157684326,0.5111920237541199,-0.9512190222740173
1750561121275242200,6.4512421875,5.025623798370361,0.18206800520420074,-0.17840099334716797
1750561121284847000,6.46084716796875,5.103409767150879,-0.26322299242019653,0.3522689938545227
1750561121294451700,6.47045166015625,6.397215843200684,-0.44599801301956177,0.2518180012702942
1750561121304056300,6.480056396484375,6.60584020614624,-0.6331409811973572,-0.43660199642181396
1750561121313661200,6.4896611328125,6.624711036682129,-1.4020060300827026,-0.47090500593185425
1750561121323265800,6.499265869140625,6.021060943603516,-1.7920180559158325,-0.6810389757156372
1750561121332870400,6.508870361328125,4.035656929016113,-1.9724520444869995,-1.466372013092041
1750561121342475300,6.518475341796875,2.5586531162261963,-2.0403668880462646,-2.0379300117492676
1750561121352080100,6.528080078125,1.1206719875335693,-1.7417800426483154,-2.2902960777282715
1750561121361684700,6.537684814453125,-0.18700000643730164,-1.8574140071868896,-1.6622300148010254
1750561121371289300,6.547289306640625,-0.6818659901618958,-1.9401520490646362,-0.41269901394844055
1750561121380894000,6.55689404296875,-1.65339994430542,-1.9591100215911865,0.1546030044555664
1750561121390498800,6.566498779296875,-2.5678720474243164,-2.192111015319824,0.48890501260757446
1750561121400103400,6.576103515625,-3.745548963546753,-2.283945083618164,0.40494999289512634
1750561121409708300,6.585708251953125,-5.18177604675293,-2.3806300163269043,0.0041240002028644085
1750561121419313000,6.59531298828125,-6.149477958679199,-2.413088083267212,-0.41225001215934753
1750561121428917800,6.604917724609375,-6.9960479736328125,-2.3361709117889404,-0.6303820013999939
1750561121438522400,6.6145224609375,-7.370091915130615,-2.356945037841797,-0.5578359961509705
1750561121448127000,6.624126953125,-7.333786964416504,-2.3270881175994873,-0.7046149969100952
1750561121457731800,6.63373193359375,-7.366663932800293,-2.255105972290039,-1.0380280017852783
1750561121467336700,6.643336669921875,-7.35850191116333,-2.108207941055298,-1.2328200340270996
1750561121476941300,6.65294140625,-7.594170093536377,-2.152729034423828,-1.3634109497070312
1750561121486546000,6.6625458984375,-7.709578037261963,-2.2289938926696777,-1.5922410488128662
1750561121496150500,6.672150634765625,-7.537435054779053,-2.439542055130005,-1.6600539684295654
1750561121505755400,6.68175537109375,-6.8500518798828125,-2.725327968597412,-1.6573619842529297
1750561121515360000,6.691360107421875,-6.207129001617432,-2.7582249641418457,-1.308493971824646
1750561121524964600,6.700964599609375,-6.022192001342773,-2.7441909313201904,0.344866007566452
1750561121534569700,6.71056982421875,-5.579460144042969,-2.6305160522460938,1.782075047492981
1750561121544174300,6.72017431640625,-5.049781799316406,-2.3686959743499756,2.322895050048828
1750561121553779000,6.729779052734375,-4.236412048339844,-2.1671628952026367,2.8694489002227783
1750561121563383800,6.7393837890625,-1.9936219453811646,-1.8202400207519531,3.3244800567626953
1750561121572988400,6.748988525390625,2.225456953048706,-1.2523200511932373,3.3044540882110596
1750561121582593000,6.758593017578125,6.39968204498291,-0.4936710000038147,3.37261700630188
1750561121592198000,6.768197998046875,8.377159118652344,-0.09925399720668793,4.068579196929932
1750561121601802500,6.777802490234375,8.783853530883789,0.29708099365234375,4.411531925201416
1750561121611407000,6.787406982421875,7.3730669021606445,1.1836880445480347,4.832804203033447
1750561121621012000,6.797011962890625,5.613133907318115,1.6090940237045288,5.451437950134277
1750561121630616600,6.806616455078125,3.697887897491455,1.6151620149612427,5.0159077644348145
1750561121640221400,6.816221435546875,2.9363150596618652,1.4148789644241333,3.658236026763916
1750561121649826000,6.825825927734375,2.930198907852173,1.2570910453796387,2.7426578998565674
1750561121659431000,6.835430908203125,3.3899788856506348,1.2423080205917358,2.2352030277252197
1750561121669035500,6.845035400390625,4.071217060089111,1.2846980094909668,1.6987589597702026
1750561121678640000,6.85464013671875,4.741452217102051,1.2349580526351929,0.7820479869842529
1750561121688245000,6.864244873046875,5.000820159912109,0.7885980010032654,0.6035749912261963
1750561121697849600,6.873849609375,4.126475811004639,0.10460600256919861,0.6917700171470642
1750561121707454200,6.8834541015625,2.9479410648345947,-0.22351600229740143,-0.052733998745679855
1750561121717059000,6.89305908203125,1.8634049892425537,-0.2577950060367584,-1.0655219554901123
1750561121726663700,6.90266357421875,0.815796971321106,-0.35103899240493774,-1.6496410369873047
1750561121736268500,6.9122685546875,0.26843100786209106,-0.35207700729370117,-1.566465973854065
1750561121745873200,6.921873046875,0.3158299922943115,-0.2612519860267639,-1.0938730239868164
1750561121755477800,6.931477783203125,0.5958330035209656,-0.27603399753570557,-0.13732700049877167
1750561121765082600,6.94108251953125,0.3619529902935028,-0.26946601271629333,-0.050345998257398605
1750561121774687500,6.9506875,0.02784699946641922,-0.5113850235939026,-0.5496299862861633
1750561121784292000,6.9602919921875,-0.36768001317977905,-0.5057330131530762,-1.6749049425125122
1750561121793896700,6.969896728515625,-0.9582629799842834,-0.5593709945678711,-2.377837896347046
1750561121803501600,6.97950146484375,-1.729511022567749,-0.6590489745140076,-2.231137990951538
1750561121813106200,6.989106201171875,-2.4014968872070312,-0.47481998801231384,-1.3705660104751587
1750561121822710800,6.998710693359375,-2.848468065261841,-0.44872498512268066,-0.26960301399230957
1750561121832315400,7.0083154296875,-3.028136968612671,-0.4613359868526459,0.40783101320266724
1750561121841920300,7.017920166015625,-2.5355091094970703,-0.4026789963245392,0.6264169812202454
1750561121851525000,7.027525146484375,-1.7640830278396606,-0.18898500502109528,0.27448800206184387
1750561121861130000,7.0371298828125,-0.6277729868888855,-0.2378620058298111,-0.1903499960899353
1750561121870734600,7.046734619140625,0.1890369951725006,-0.2528110146522522,-0.6703550219535828
1750561121880339200,7.056339111328125,0.4460279941558838,-0.2532919943332672,-0.8300560116767883
1750561121889944000,7.065944091796875,0.34323400259017944,-0.21477200090885162,-0.5029240250587463
1750561121899548700,7.075548583984375,-0.02384299971163273,-0.09689199924468994,-0.14343799650669098
1750561121909153300,7.0851533203125,-0.3003289997577667,-0.0720909982919693,0.5550540089607239
1750561121918758000,7.0947578125,-0.2734079957008362,0.07500199973583221,0.898593008518219
1750561121928362500,7.104362548828125,0.04938500002026558,0.12952899932861328,0.7378119826316833
1750561121937967600,7.113967529296875,0.6380370259284973,0.16196200251579285,0.3524489998817444
1750561121947572200,7.123572265625,0.931098997592926,0.20496900379657745,0.12064100056886673
1750561121957176800,7.1331767578125,0.7082300186157227,0.2864280045032501,0.22748799622058868
1750561121966781400,7.142781494140625,-0.029833000153303146,0.3285430073738098,0.36706599593162537
1750561121976386300,7.15238623046875,-0.6764360070228577,0.31240400671958923,0.4807650148868561
1750561121985991000,7.161990966796875,-0.8340110182762146,0.3595860004425049,0.4911609888076782
1750561121995595800,7.171595703125,-0.534604012966156,0.2685909867286682,0.4866740107536316
1750561122005200400,7.181200439453125,-0.10670199990272522,0.21550500392913818,0.5089880228042603
1750561122014805200,7.19080517578125,0.27492499351501465,0.20161600410938263,0.49987199902534485
1750561122024409900,7.200409912109375,0.5028349757194519,0.22540199756622314,0.5276579856872559
1750561122034014500,7.210014404296875,0.302946001291275,0.2637450098991394,0.48047900199890137
1750561122043619300,7.219619384765625,-0.013767999596893787,0.2806060016155243,0.22539399564266205
1750561122053224000,7.229223876953125,-0.20980499684810638,0.3151560127735138,0.057043999433517456
1750561122062828800,7.238828857421875,-0.4465489983558655,0.2578960061073303,-0.0708869993686676
1750561122072433400,7.248433349609375,-0.44817399978637695,0.14662599563598633,0.03214100003242493
1750561122082038000,7.2580380859375,-0.1767749935388565,0.10902699828147888,0.1381160020828247
1750561122091643000,7.267642822265625,-0.07936699688434601,0.04898200184106827,0.19217300415039062
1750561122101247500,7.27724755859375,0.2015720009803772,-0.01912499964237213,0.24300700426101685
1750561122110852000,7.28685205078125,0.21926599740982056,0.005520999897271395,0.246847003698349
1750561122120457000,7.29645703125,-0.004521000199019909,0.06425400078296661,0.38999301195144653
1750561122130061600,7.3060615234375,-0.4291220009326935,0.08457999676465988,0.3525190055370331
1750561122139666400,7.31566650390625,-0.7043409943580627,0.1417820006608963,0.251008003950119
1750561122149271000,7.32527099609375,-0.7338160276412964,0.17472200095653534,0.08812899887561798
1750561122158876000,7.3348759765625,-0.4243910014629364,0.13756400346755981,-0.046574000269174576
1750561122168480500,7.34448046875,0.10413199663162231,0.07363799959421158,-0.034129999577999115
1750561122178085400,7.35408544921875,0.4719589948654175,-0.004648000001907349,0.02133299969136715
1750561122187689700,7.363689697265625,0.7135810256004333,-0.020270999521017075,0.15684300661087036
1750561122197294600,7.373294677734375,0.623989999294281,-0.042433001101017,0.2996549904346466
1750561122206899500,7.3828994140625,0.31968000531196594,-0.1193080022931099,0.3626540005207062
1750561122216504000,7.392504150390625,0.06335499882698059,-0.12047600001096725,0.3170819878578186
1750561122226108700,7.402108642578125,-0.017774000763893127,-0.09029799699783325,0.2262510061264038
1750561122235713500,7.411713623046875,0.09807199984788895,-0.06435400247573853,0.11584900319576263
1750561122245318100,7.421318115234375,0.15277999639511108,-0.055309999734163284,-0.014138000085949898
1750561122254923000,7.430923095703125,0.025110999122262,-0.06378799676895142,-0.03511799871921539
1750561122264527600,7.440527587890625,-0.07420899718999863,-0.020431000739336014,0.03608199954032898
1750561122274132200,7.45013232421875,-0.28306201100349426,-0.0010600000387057662,0.03864600136876106
1750561122283737300,7.4597373046875,-0.2752769887447357,-0.01063700020313263,-0.03515100106596947
1750561122293342000,7.469342041015625,-0.15811699628829956,-0.01724899932742119,-0.1334650069475174
1750561122302946600,7.478946533203125,0.07166600227355957,-0.02336600050330162,-0.04679799824953079
1750561122312551200,7.48855126953125,0.3419489860534668,0.03444100171327591,-0.006996000185608864
1750561122322155800,7.49815576171875,0.5326529741287231,0.04030799865722656,-0.00903099961578846
1750561122331760600,7.5077607421875,0.41250500082969666,0.027058999985456467,0.051270999014377594
1750561122341365200,7.517365234375,0.10806600004434586,0.0689219981431961,0.044185999780893326
1750561122350969900,7.526969970703125,-0.2526710033416748,0.08041399717330933,0.06256400048732758
1750561122360574700,7.53657470703125,-0.5332369804382324,0.04077199846506119,0.07076799869537354
1750561122370179300,7.546179443359375,-0.5421739816665649,0.05852099880576134,0.06604599952697754
1750561122379784200,7.5557841796875,-0.38732999563217163,0.01939300075173378,0.22775399684906006
1750561122389389000,7.56538916015625,-0.09170699864625931,0.004662000108510256,0.3415830135345459
1750561122398993700,7.57499365234375,0.27598199248313904,0.01561299990862608,0.1760910004377365
1750561122408598300,7.584598388671875,0.5597800016403198,0.049851998686790466,-0.031835999339818954
1750561122418203100,7.594203125,0.5998749732971191,0.025895999744534492,-0.2517699897289276
1750561122427807700,7.603807861328125,0.3783009946346283,0.0751200020313263,-0.28647899627685547
1750561122437412400,7.613412353515625,0.022617999464273453,0.059891000390052795,-0.25027498602867126
1750561122447017000,7.623016845703125,-0.3398900032043457,-0.002128999913111329,-0.043682001531124115
1750561122456621800,7.632621826171875,-0.5515260100364685,0.01090299990028143,0.23059900104999542
1750561122466226700,7.642226806640625,-0.5251569747924805,0.002420000033453107,0.27710700035095215
1750561122475831300,7.651831298828125,-0.16167999804019928,0.020848000422120094,0.12468600273132324
1750561122485436200,7.661436279296875,0.27271199226379395,0.026156999170780182,-0.04626699909567833
1750561122495040800,7.671040771484375,0.4046500027179718,-0.018394000828266144,-0.0603489987552166
1750561122504645600,7.680645751953125,0.2524409890174866,-0.0370200015604496,-0.011163000017404556
1750561122514250000,7.69025,-0.03170200064778328,0.019166000187397003,-0.07610800117254257
1750561122523854800,7.699854736328125,-0.2560409903526306,0.019700000062584877,-0.07213299721479416
1750561122533459500,7.70945947265625,-0.23832499980926514,0.07734999805688858,-0.084136001765728
1750561122543064000,7.71906396484375,0.1023240014910698,0.04041200131177902,-0.17248299717903137
1750561122552669000,7.7286689453125,0.3716129958629608,-0.07170800119638443,-0.19842199981212616
1750561122562273500,7.7382734375,0.34377598762512207,-0.11879000067710876,-0.09025699645280838
1750561122571878400,7.74787841796875,0.0017170000355690718,-0.09061700105667114,0.0610090009868145
1750561122581483000,7.75748291015625,-0.43953099846839905,-0.062118999660015106,0.13956500589847565
1750561122591087900,7.767087890625,-0.7549020051956177,-0.08281499892473221,0.21608300507068634
1750561122600692700,7.776692626953125,-0.7795889973640442,-0.055590998381376266,0.2226630002260208
1750561122610297300,7.78629736328125,-0.4559049904346466,-0.06023800000548363,0.1526000052690506
1750561122619902000,7.79590185546875,-0.04127199947834015,-0.07327699661254883,0.041648998856544495
1750561122629506600,7.805506591796875,0.29061201214790344,-0.09783899784088135,-0.05565299838781357
1750561122639111400,7.815111328125,0.38582998514175415,-0.07499700039625168,-0.04821600019931793
1750561122648716000,7.824716064453125,0.2392279952764511,-0.0407320000231266,-0.10373300313949585
1750561122658320600,7.834320556640625,-0.018626000732183456,-0.04266300052404404,-0.17090800404548645
1750561122667925200,7.84392529296875,-0.303941011428833,-0.023375000804662704,-0.12094199657440186
1750561122677530000,7.853530029296875,-0.4773389995098114,-0.016682999208569527,0.07747100293636322
1750561122687135000,7.863135009765625,-0.49154001474380493,-0.05846099928021431,0.3082740008831024
1750561122696739600,7.872739501953125,-0.19985100626945496,0.00671500014141202,0.26803600788116455
1750561122706344400,7.882344482421875,0.19352999329566956,0.03394100069999695,0.14751900732517242
1750561122715949000,7.891948974609375,0.42445099353790283,-0.0032820000778883696,-0.022595999762415886
1750561122725553700,7.9015537109375,0.34926798939704895,0.02930299937725067,-0.15421700477600098
1750561122735158500,7.911158447265625,0.13239599764347076,0.06521499902009964,-0.21375900506973267
1750561122744763100,7.92076318359375,-0.12241700291633606,0.09985099732875824,-0.14357399940490723
1750561122754367700,7.93036767578125,-0.25352999567985535,0.08882500231266022,-0.11816900223493576
1750561122763972600,7.93997265625,-0.08925499767065048,0.0914359986782074,-0.1212330013513565
1750561122773577200,7.9495771484375,0.1867859959602356,0.06722600013017654,-0.10600800067186356
1750561122783182000,7.95918212890625,0.44537198543548584,0.008717999793589115,0.0534369982779026
1750561122792786700,7.96878662109375,0.5097600221633911,-0.003978000022470951,0.14014700055122375
1750561122802391600,7.9783916015625,0.3146879971027374,-0.02790999971330166,0.14733299612998962
1750561122811996200,7.98799609375,0.04994799941778183,0.03009199909865856,0.07292299717664719
1750561122821601000,7.99760107421875,-0.1718900054693222,0.056634001433849335,-0.026936000213027
1750561122831205600,8.00720556640625,-0.1916940063238144,0.11049100011587143,-0.11275800317525864
1750561122840810200,8.016810302734376,-0.09651300311088562,0.11326300352811813,-0.19998100399971008
1750561122850414800,8.026414794921875,0.004546999931335449,0.055105000734329224,-0.14245200157165527
1750561122860019700,8.036019775390624,0.026343999430537224,-0.0035250000655651093,-0.07743500173091888
1750561122869624300,8.045624267578125,0.05373299866914749,-0.06676000356674194,-0.018442999571561813
1750561122879229200,8.055229248046874,-0.0002469999890308827,-0.07737699896097183,-0.012846999801695347
1750561122888834000,8.064833984375,-0.10235600173473358,-0.04845400154590607,-0.026012999936938286
1750561122898438700,8.074438720703125,-0.11065199971199036,-0.04896000027656555,-0.028300000354647636
1750561122908043300,8.084043212890625,-0.07251600176095963,-0.05894700065255165,-0.11498399823904037
1750561122917648000,8.09364794921875,0.07853099703788757,-0.05837000161409378,-0.1506049931049347
1750561122927252700,8.103252685546876,0.23162400722503662,-0.08919999748468399,-0.11433199793100357
1750561122936857300,8.112857421875,0.24108600616455078,-0.1225380003452301,-0.0405460000038147
1750561122946462000,8.1224619140625,0.019581999629735947,-0.046473000198602676,0.09871499985456467
1750561122956066800,8.13206689453125,-0.29580700397491455,-0.024700000882148743,0.15093299746513367
1750561122965671700,8.141671630859374,-0.49784499406814575,-0.012953000143170357,0.13842499256134033
1750561122975276500,8.151276611328125,-0.4619489908218384,-0.029701000079512596,0.06764400005340576
1750561122984881200,8.160881103515624,-0.3958039879798889,-0.027393000200390816,0.025299999862909317
1750561122994485800,8.17048583984375,-0.19018200039863586,-0.07554999738931656,0.004288999829441309
1750561123004090400,8.18009033203125,0.011343000456690788,-0.01874300092458725,-0.031029000878334045
1750561123013695200,8.1896953125,0.34575599431991577,-0.008542000316083431,-0.11930400133132935
1750561123023299800,8.1992998046875,0.5984709858894348,-0.02252800017595291,-0.1397940069437027
1750561123032904700,8.20890478515625,0.5605069994926453,-0.06997399777173996,-0.09199199825525284
1750561123042509300,8.21850927734375,0.29429200291633606,-0.025272000581026077,0.0065819998271763325
1750561123052114200,8.2281142578125,-0.18830299377441406,-0.012076999992132187,0.13548700511455536
1750561123061718800,8.23771875,-0.5920900106430054,-0.0712829977273941,0.29447999596595764
1750561123071323600,8.24732373046875,-0.583931028842926,-0.07149600237607956,0.28986701369285583
1750561123080928300,8.25692822265625,-0.17660899460315704,-0.01527899969369173,0.14652399718761444
1750561123090532900,8.266532958984374,0.33924600481987,0.01039899978786707,-0.10868000239133835
1750561123100137500,8.276137451171875,0.7153440117835999,0.07059899717569351,-0.3008280098438263
1750561123109742300,8.285742431640625,0.635791003704071,0.09523499757051468,-0.2558079957962036
1750561123119347200,8.29534716796875,0.3098280131816864,0.08791200071573257,-0.0404679998755455
1750561123128951800,8.304951904296875,-0.054246000945568085,0.11339499801397324,-0.0053369998931884766
1750561123138556700,8.314556640625,-0.29082900285720825,0.040495000779628754,-0.0006329999887384474
1750561123148161300,8.324161376953125,-0.3545660078525543,-0.005061000119894743,-0.017920000478625298
1750561123157766100,8.33376611328125,-0.4130040109157562,-0.011463000439107418,0.020785000175237656
1750561123167370500,8.34337060546875,-0.4419730007648468,-0.017497999593615532,0.09879200160503387
1750561123176975400,8.352975341796874,-0.37010300159454346,0.03033900074660778,0.09293399751186371
1750561123186580000,8.362580078125,-0.32579898834228516,-0.001867000013589859,0.08707600086927414
1750561123196184600,8.3721845703125,-0.48133599758148193,-0.0704519972205162,0.0370509997010231
1750561123205789400,8.38178955078125,-0.4245859980583191,-0.024886000901460648,-0.18278400599956512
1750561123215394000,8.39139404296875,-0.09703800082206726,-0.053293000906705856,-0.38003599643707275
1750561123224998700,8.40099853515625,0.18375200033187866,-0.11161399632692337,-0.45096200704574585
1750561123234603500,8.410603515625,0.11568699777126312,-0.2123820036649704,-0.34954899549484253
1750561123244208400,8.42020849609375,-0.36532700061798096,-0.19491499662399292,-0.04023899883031845
1750561123253813200,8.429813232421875,-0.7441030144691467,-0.14655600488185883,0.38183000683784485
1750561123263417900,8.43941796875,-1.00655996799469,-0.12230399996042252,0.6254810094833374
1750561123273022500,8.4490224609375,-1.0465480089187622,-0.07835999876260757,0.6423689723014832
1750561123282627000,8.458626953125,-0.9684720039367676,0.004749999847263098,0.3673099875450134
1750561123292232000,8.46823193359375,-0.6301190257072449,0.16507500410079956,-0.15249399840831757
1750561123301836500,8.47783642578125,0.268667995929718,0.2585670053958893,-0.40822601318359375
1750561123311441200,8.487441162109375,1.9295589923858643,0.18416300415992737,0.5260419845581055
1750561123321046000,8.4970458984375,3.1986539363861084,0.3952620029449463,1.1520030498504639
1750561123330650600,8.506650634765625,4.510340213775635,0.7309989929199219,1.0433850288391113
1750561123340255200,8.516255126953125,5.180199146270752,0.8024759888648987,0.5328140258789062
1750561123349859800,8.52585986328125,6.165310859680176,0.5924829840660095,0.14627699553966522
1750561123359464700,8.535464599609375,7.942872047424316,0.4320659935474396,0.21028000116348267
1750561123369069300,8.5450693359375,8.563623428344727,0.10047999769449234,-0.4800049960613251
1750561123378674000,8.554673828125,8.960199356079102,-0.6687719821929932,-1.4356390237808228
1750561123388279000,8.564279052734374,8.562414169311523,-1.3864840269088745,-1.9420499801635742
1750561123397883400,8.57388330078125,7.419797897338867,-1.8825299739837646,-1.9960230588912964
1750561123407488300,8.58348828125,6.070113182067871,-2.0214109420776367,-1.4192869663238525
1750561123417092600,8.593092529296875,3.7094850540161133,-2.295417070388794,-1.0802069902420044
1750561123426697500,8.602697509765624,2.1127049922943115,-2.3286709785461426,-1.301010012626648
1750561123436302300,8.61230224609375,0.45183300971984863,-2.173659086227417,-1.7424410581588745
1750561123445907000,8.621906982421875,-0.8236240148544312,-2.431375026702881,-1.6222649812698364
1750561123455511800,8.63151171875,-1.9724459648132324,-2.4401140213012695,-1.1447099447250366
1750561123465116400,8.641116455078125,-4.471190929412842,-2.4539060592651367,-0.04649199917912483
1750561123474721300,8.65072119140625,-6.334927082061768,-2.243577003479004,0.8145899772644043
1750561123484326000,8.660325927734375,-6.892914772033691,-1.8173370361328125,0.9465309977531433
1750561123493930500,8.669930419921876,-6.454843997955322,-1.548550009727478,0.662077009677887
1750561123503535400,8.679535400390625,-5.432844161987305,-1.6288690567016602,-0.2643280029296875
1750561123513139700,8.6891396484375,-5.228998184204102,-1.8360179662704468,-1.4908629655838013
1750561123522744600,8.69874462890625,-5.3404622077941895,-2.380418062210083,-2.195030927658081
1750561123532349200,8.70834912109375,-5.045949935913086,-2.5165929794311523,-2.6997509002685547
1750561123541954300,8.717954345703125,-4.761213779449463,-2.5580410957336426,-3.1371660232543945
1750561123551559000,8.727558837890625,-4.561582088470459,-2.8700900077819824,-3.428986072540283
1750561123561163500,8.73716357421875,-4.510773181915283,-3.130880117416382,-3.782684087753296
1750561123570768100,8.74676806640625,-4.531370162963867,-3.3011679649353027,-3.2069060802459717
1750561123580373000,8.756373046875,-4.559789180755615,-3.1388070583343506,-2.431191921234131
1750561123589977600,8.7659775390625,-4.80959415435791,-2.903925895690918,-0.5686079859733582
1750561123599582200,8.775582275390626,-4.775668144226074,-2.4569880962371826,1.6281379461288452
1750561123609187000,8.78518701171875,-4.933910846710205,-1.7892390489578247,2.8208839893341064
1750561123618791700,8.794791748046874,-6.044405937194824,-1.2703739404678345,3.874021053314209
1750561123628396500,8.804396484375,-6.810929775238037,-0.9786829948425293,3.802515983581543
1750561123638001400,8.81400146484375,-6.949611186981201,-1.0379060506820679,2.6064510345458984
1750561123647606000,8.82360595703125,-6.7338690757751465,-1.333258032798767,1.8373420238494873
1750561123657210600,8.833210693359375,-5.725708961486816,-1.6978700160980225,1.6211849451065063
1750561123666815200,8.842815185546876,-4.183028221130371,-1.9371939897537231,3.2389979362487793
1750561123676420000,8.852420166015625,-2.8246960639953613,-2.054874897003174,5.880908966064453
1750561123686024700,8.862024658203126,-0.8119440078735352,-2.129401922225952,7.8387770652771
1750561123695629600,8.871629638671875,2.147610902786255,-1.9131230115890503,7.5968241691589355
1750561123705234200,8.881234130859376,5.51922082901001,-1.3212560415267944,6.102766990661621
1750561123714838800,8.8908388671875,8.456199645996094,-0.7422119975090027,4.458459854125977
1750561123724443400,8.900443359375,10.372785568237305,0.03951700031757355,3.606877088546753
1750561123734048300,8.91004833984375,10.586888313293457,0.7110869884490967,3.31583309173584
1750561123743653000,8.919653076171874,9.985309600830078,1.1110329627990723,3.125356912612915
1750561123753257700,8.9292578125,9.103455543518066,1.3369319438934326,1.5254559516906738
1750561123762862300,8.9388623046875,8.530900955200195,1.4131040573120117,-0.29065001010894775
1750561123772467200,8.94846728515625,7.784918785095215,0.9947260022163391,-0.45492398738861084
1750561123782071800,8.95807177734375,5.612669944763184,0.5000849962234497,-0.4237639904022217
1750561123791676400,8.967676513671876,3.181705951690674,0.02537200041115284,-0.967648983001709
1750561123801281300,8.97728125,1.1968109607696533,-0.3331820070743561,-1.1545820236206055
1750561123810886000,8.986885986328126,0.15874700248241425,-0.4697679877281189,-0.22857500612735748
1750561123820490500,8.996490478515625,-0.06993500143289566,-0.49093401432037354,0.3435629904270172
1750561123830095000,9.00609521484375,0.5778220295906067,-0.6103259921073914,0.4517369866371155
1750561123839700200,9.0157001953125,1.5130419731140137,-0.7287740111351013,0.2996689975261688
1750561123849304800,9.025304931640624,2.441788911819458,-0.8272969722747803,-0.17144499719142914
1750561123858909700,9.03490966796875,3.5790839195251465,-0.807108998298645,-0.2942500114440918
1750561123868514300,9.044514404296875,3.565335988998413,-0.49449101090431213,-0.49925100803375244
1750561123878119000,9.054118896484376,2.2460720539093018,-0.4606580138206482,-1.280884027481079
1750561123887723500,9.0637236328125,0.040897998958826065,-0.5819839835166931,-2.0279769897460938
1750561123897328400,9.073328369140626,-2.1529479026794434,-0.633903980255127,-2.834278106689453
1750561123906933000,9.08293310546875,-3.436988115310669,-0.6393409967422485,-2.8872079849243164
1750561123916537600,9.09253759765625,-3.740246057510376,-0.6500679850578308,-2.278455972671509
1750561123926142500,9.102142578125,-3.4372448921203613,-0.7767189741134644,-1.2208789587020874
1750561123935747300,9.111747314453124,-2.5123510360717773,-0.7519140243530273,-0.27391400933265686
1750561123945352000,9.12135205078125,-1.6972839832305908,-0.6266570091247559,0.09374599903821945
1750561123954956800,9.130956787109374,-1.0965609550476074,-0.6450570225715637,0.10118000209331512
1750561123964561400,9.1405615234375,-0.4858640134334564,-0.4374009966850281,-0.3373839855194092
1750561123974166000,9.150166015625,-0.17668700218200684,-0.17881399393081665,-1.0689749717712402
1750561123983771000,9.15977099609375,0.008913000114262104,-0.23851700127124786,-1.320930004119873
1750561123993375500,9.16937548828125,-0.2009190022945404,-0.2968280017375946,-1.278817057609558
1750561124002980000,9.17897998046875,-0.6043890118598938,-0.21063299477100372,-1.0669280290603638
1750561124012584700,9.188584716796875,-1.2929489612579346,-0.13566100597381592,-0.4721969962120056
1750561124022189600,9.198189453125,-1.9798779487609863,-0.14711999893188477,0.30605700612068176
1750561124031794400,9.20779443359375,-2.2466509342193604,-0.024428000673651695,0.5654760003089905
1750561124041399000,9.21739892578125,-1.8387420177459717,0.03895900025963783,0.6118019819259644
1750561124051003600,9.227003662109375,-0.9020959734916687,0.07671599835157394,0.4593310058116913
1750561124060608500,9.2366083984375,0.3197459876537323,0.029025999829173088,0.3340109884738922
1750561124070213000,9.246213134765625,1.2013570070266724,0.05368800088763237,0.22216099500656128
1750561124079817700,9.255817626953124,1.6390609741210938,0.05585800111293793,0.06982800364494324
1750561124089422600,9.265422607421876,1.423156976699829,0.02672000043094158,0.01298299990594387
1750561124099027200,9.275027099609375,0.7367519736289978,0.03387000039219856,-0.03730500116944313
1750561124108631800,9.2846318359375,-0.40347498655319214,0.10441499948501587,-0.012372000142931938
1750561124118236700,9.294236572265625,-1.2159130573272705,0.08869999647140503,0.18974700570106506
1750561124127841300,9.30384130859375,-1.4644780158996582,0.13424299657344818,0.44435399770736694
1750561124137446100,9.313446044921875,-1.2249670028686523,0.12424500286579132,0.809345006942749
1750561124147050800,9.32305078125,-0.7914720177650452,0.06904099881649017,0.7059760093688965
1750561124156655400,9.3326552734375,-0.20259200036525726,0.04129299893975258,0.24990999698638916
1750561124166260000,9.342260009765624,0.3931730091571808,0.14898799359798431,-0.32564300298690796
1750561124175864800,9.35186474609375,0.7989159822463989,0.15998399257659912,-0.5179359912872314
1750561124185469700,9.3614697265625,0.8873550295829773,0.03135199844837189,-0.17067299783229828
1750561124195074300,9.37107421875,0.7350860238075256,0.007966999895870686,0.2020920068025589
1750561124204679000,9.380678955078125,0.32173699140548706,0.04185200110077858,0.5211510062217712
1750561124214283800,9.39028369140625,-0.2585040032863617,0.024824000895023346,0.7015010118484497
1750561124223888400,9.399888427734375,-0.7529770135879517,-0.0435589998960495,0.9257339835166931
1750561124233493000,9.409492919921876,-0.9341340065002441,0.03401799872517586,0.7357149720191956
1750561124243097600,9.41909765625,-0.7691320180892944,0.15337799489498138,0.36491701006889343
1750561124252702500,9.428702392578124,-0.12270700186491013,0.23226599395275116,-0.06033900007605553
1750561124262307000,9.43830712890625,0.6033549904823303,0.20009499788284302,-0.33009201288223267
1750561124271912000,9.447911865234374,1.1059210300445557,0.16968199610710144,-0.4006919860839844
1750561124281516500,9.4575166015625,1.273501992225647,0.07490699738264084,-0.3256720006465912
1750561124291121400,9.467121337890624,0.9577500224113464,0.07292799651622772,-0.016054000705480576
1750561124300726000,9.47672607421875,0.28957200050354004,-0.010696000419557095,0.34808701276779175
1750561124310331000,9.486330810546875,-0.3517729938030243,-0.058517999947071075,0.6755070090293884
1750561124319935500,9.495935546875,-0.7104399800300598,-0.04700300097465515,0.768671989440918
1750561124329540000,9.5055400390625,-0.5547459721565247,0.03637300059199333,0.4021419882774353
1750561124339145000,9.51514501953125,-0.14624300599098206,0.09925500303506851,-0.028558000922203064
1750561124348749300,9.524749267578125,0.23732900619506836,0.05571800097823143,-0.2592490017414093
1750561124358354200,9.534354248046874,0.24772299826145172,0.020517000928521156,-0.2820340096950531
1750561124367959000,9.543958984375,0.02117300033569336,0.025250999256968498,-0.16102199256420135
1750561124377563600,9.553563720703124,-0.2617410123348236,0.04417800158262253,-0.030834000557661057
1750561124387168300,9.563168212890625,-0.5006499886512756,0.01934099942445755,0.06638900190591812
1750561124396773000,9.572773193359374,-0.5517640113830566,0.059863001108169556,0.08099299669265747
1750561124406377700,9.582377685546875,-0.45350900292396545,-0.010482000187039375,0.12153799831867218
1750561124415982600,9.591982666015625,-0.23784500360488892,-0.05951099842786789,0.05190800130367279
1750561124425587200,9.601587158203126,0.026184000074863434,-0.10218799859285355,0.01971299946308136
1750561124435192000,9.611192138671875,0.22633899748325348,-0.15005800127983093,-0.06860899925231934
1750561124444796700,9.620796630859376,0.2360920011997223,-0.130280002951622,-0.03414899855852127
1750561124454401300,9.6304013671875,0.11161399632692337,-0.10386200249195099,-0.011583000421524048
1750561124464006000,9.640005859375,-0.033803001046180725,-0.09923599660396576,-0.025823000818490982
1750561124473610800,9.64961083984375,-0.09634199738502502,-0.10903699696063995,-0.07381100207567215
1750561124483215400,9.65921533203125,-0.02700899913907051,-0.1174440011382103,-0.09911900013685226
1750561124492820200,9.6688203125,0.14984099566936493,-0.10935399681329727,-0.1344590038061142
1750561124502424800,9.6784248046875,0.36130601167678833,-0.14513899385929108,-0.15048199892044067
1750561124512029700,9.68802978515625,0.43353599309921265,-0.16348600387573242,-0.09141500294208527
1750561124521634300,9.69763427734375,0.3205240070819855,-0.1024399995803833,-0.005741999950259924
1750561124531239000,9.707239013671876,0.07675299793481827,-0.06089000031352043,0.02839300036430359
1750561124540843800,9.71684375,-0.1713310033082962,-0.035604000091552734,0.07765799760818481
1750561124550448400,9.726448486328126,-0.305853009223938,0.04372899979352951,-0.0010160000529140234
1750561124560053200,9.73605322265625,-0.22349999845027924,0.05788800120353699,-0.09272100031375885
1750561124569657600,9.74565771484375,-0.0308229997754097,0.05370600149035454,-0.12519200146198273
1750561124579262500,9.755262451171875,0.11950299888849258,-0.005801000166684389,-0.05209000036120415
1750561124588867000,9.7648671875,0.24677099287509918,-0.0005869999877177179,0.10700400173664093
1750561124598471700,9.7744716796875,0.20486299693584442,0.005483999848365784,0.19682399928569794
1750561124608076500,9.78407666015625,-0.005745999980717897,0.002735000103712082,0.2544949948787689
1750561124617681200,9.79368115234375,-0.14844100177288055,0.04469599947333336,0.16386300325393677
1750561124627286000,9.8032861328125,-0.28150999546051025,0.09213600307703018,0.038433998823165894
1750561124636891000,9.812890869140626,-0.212009996175766,0.09100700169801712,-0.13101699948310852
1750561124646495500,9.82249560546875,-0.021839000284671783,0.09173300117254257,-0.2739970088005066
1750561124656100000,9.83210009765625,0.1666419953107834,0.051614999771118164,-0.21396799385547638
1750561124665704700,9.84170458984375,0.3271929919719696,0.03347799926996231,-0.18456900119781494
1750561124675309600,9.8513095703125,0.3398649990558624,0.011970000341534615,-0.08071699738502502
1750561124684914200,9.8609140625,0.21118900179862976,-0.013615000061690807,0.0078050000593066216
1750561124694518800,9.870518798828124,0.0235849991440773,-0.0115769999101758,0.12709100544452667
1750561124704123600,9.88012353515625,-0.22390300035476685,-0.0568699985742569,0.2532230019569397
1750561124713728500,9.889728515625,-0.34086400270462036,-0.06118199974298477,0.28229600191116333
1750561124723333000,9.8993330078125,-0.23272399604320526,-0.027768999338150024,0.15728400647640228
1750561124732938000,9.90893798828125,-0.01819700002670288,-0.0357230007648468,-0.07038599997758865
1750561124742542600,9.91854248046875,0.14113299548625946,-0.0321040004491806,-0.2948020100593567
1750561124752147200,9.928147216796875,0.034286998212337494,-0.026933999732136726,-0.39368200302124023
1750561124761752000,9.937751953125,-0.029722999781370163,-0.001294999965466559,-0.34821900725364685
1750561124771356400,9.9473564453125,-0.07914300262928009,0.0797789990901947,-0.23557500541210175
1750561124780961300,9.956961181640626,-0.0632610023021698,0.007954999804496765,0.00343999988399446
1750561124790566000,9.96656591796875,-0.051732998341321945,-0.03696199879050255,0.22974400222301483
1750561124800170500,9.97617041015625,-0.07805199921131134,-0.018194999545812607,0.2764829993247986
1750561124809775400,9.985775390625,0.006963999941945076,-0.04041000083088875,0.18439699709415436
1750561124819380200,9.995380126953124,0.0482730008661747,-0.04713800176978111,0.07878900319337845
1750561124828984800,10.00498486328125,0.004490999970585108,-0.022126000374555588,-0.036754000931978226
1750561124838589700,10.014589599609375,-0.16346600651741028,-0.02800999954342842,-0.1137159988284111
1750561124848194300,10.0241943359375,-0.22822900116443634,-0.05093799903988838,-0.173335000872612
1750561124857799000,10.033798828125,-0.24570299685001373,-0.05599699914455414,-0.13545599579811096
1750561124867403800,10.04340380859375,-0.14836899936199188,-0.030392000451683998,-0.09411200135946274
1750561124877008400,10.05300830078125,-0.01749500073492527,-0.019951999187469482,-0.020602000877261162
1750561124886613000,10.062613037109376,0.15042099356651306,0.01408000010997057,0.035913001745939255
1750561124896217900,10.0722177734375,0.22220799326896667,0.012648999691009521,0.10682100057601929
1750561124905822500,10.081822509765624,0.15661999583244324,0.0013389999512583017,0.20134100317955017
1750561124915427000,10.091427001953125,-0.00843099970370531,0.015142000280320644,0.2911730110645294
1750561124925032000,10.101031982421874,-0.2934580147266388,0.02368899993598461,0.22110199928283691
1750561124934636800,10.11063671875,-0.4730139970779419,0.03525000065565109,0.09370700269937515
1750561124944241400,10.120241455078125,-0.4532969892024994,0.018926000222563744,-0.0177839994430542
1750561124953846300,10.12984619140625,-0.33948901295661926,0.019192999228835106,-0.06479799747467041
1750561124963451000,10.139450927734375,0.02884499914944172,0.0137339998036623,0.003918000031262636
1750561124973055500,10.149055419921876,0.38646599650382996,0.013663000427186489,0.00839299988001585
1750561124982660000,10.15866015625,0.6106730103492737,0.004668000154197216,0.05990200117230415
1750561124992264700,10.1682646484375,0.5385590195655823,0.004972000140696764,0.056616999208927155
1750561125001869600,10.17786962890625,0.18931999802589417,0.025280000641942024,0.039455000311136246
1750561125011474200,10.18747412109375,-0.19200800359249115,0.01322999969124794,0.0597199983894825
1750561125021079000,10.1970791015625,-0.4887399971485138,-0.05460000038146973,0.09110499918460846
1750561125030683600,10.20668359375,-0.48591500520706177,-0.04687900096178055,0.07435700297355652
1750561125040288500,10.21628857421875,-0.21067500114440918,-0.005998999811708927,-0.03607400134205818
1750561125049893000,10.22589306640625,0.06839700043201447,-0.03657799959182739,-0.1412860006093979
1750561125059498000,10.235498046875,0.3551259934902191,-0.042865000665187836,-0.06723400205373764
1750561125069102300,10.245102294921875,0.2624419927597046,-0.06569799780845642,0.1107029989361763
1750561125078707200,10.254707275390626,0.06428500264883041,-0.055925000458955765,0.10410699993371964
1750561125088311800,10.264311767578125,-0.13514800369739532,-0.03553200140595436,0.00292899995110929
1750561125097916400,10.27391650390625,-0.2393379956483841,-0.011206000111997128,-0.05742799863219261
1750561125107521300,10.283521240234375,-0.11085399985313416,0.01419300027191639,-0.05570799857378006
1750561125117126000,10.2931259765625,0.09192900359630585,-0.026336999610066414,-0.06622699648141861
1750561125126730500,10.30273046875,0.08963300287723541,-0.080874003469944,0.03956900164484978
1750561125136335400,10.31233544921875,0.03170200064778328,-0.03810400143265724,0.12033899873495102
1750561125145940200,10.321940185546875,0.07355599850416183,0.03292800113558769,0.12390600144863129
1750561125155544800,10.331544921875,0.09806700050830841,0.0816269963979721,0.07152999937534332
1750561125165149700,10.341149658203125,0.08669500052928925,0.022554999217391014,-0.04800000041723251
1750561125174754300,10.35075439453125,-0.05677599832415581,0.06297499686479568,-0.1390649974346161
1750561125184359000,10.36035888671875,-0.4345400035381317,0.008132999762892723,-0.10647500306367874
1750561125193963500,10.369963623046875,-0.615684986114502,-0.025668000802397728,-0.01295199990272522
1750561125203568400,10.379568359375,-0.5053210258483887,0.008078999817371368,0.02114200033247471
1750561125213173000,10.389173095703125,-0.26195698976516724,-0.04122599959373474,0.031672000885009766
1750561125222777600,10.398777587890624,0.0044189998880028725,-0.05642300099134445,-0.0743739977478981
1750561125232382500,10.408382568359375,0.1150360032916069,-0.10531000047922134,-0.17296600341796875
1750561125241987000,10.417987060546874,-0.1637199968099594,-0.10975100100040436,-0.16355599462985992
1750561125251591700,10.427591796875,-0.605817973613739,-0.09740599989891052,-0.08705399930477142
1750561125261196500,10.437196533203124,-1.0062170028686523,-0.15116900205612183,0.18974199891090393
1750561125270801400,10.446801513671875,-1.1913490295410156,-0.03731599822640419,0.24313999712467194
1750561125280406000,10.456406005859375,-1.1592129468917847,0.059571001678705215,0.16384300589561462
1750561125290011000,10.466010986328126,-0.8612970113754272,0.05840500071644783,0.03190699964761734
1750561125299615500,10.475615478515625,-0.5039010047912598,0.08737900108098984,0.20505499839782715
1750561125309220000,10.48522021484375,0.09354999661445618,0.03204600140452385,0.6089910268783569
1750561125318824700,10.49482470703125,0.7522349953651428,0.06494099646806717,0.8141520023345947
1750561125328429300,10.50442919921875,1.326185941696167,0.2410680055618286,0.687978982925415
1750561125338034200,10.5140341796875,1.9011039733886719,0.32772698998451233,0.823311984539032
1750561125347639000,10.52363916015625,2.468240976333618,0.42597800493240356,0.9271299839019775
1750561125357244000,10.533243896484375,2.962229013442993,0.668757975101471,0.5446130037307739
1750561125366848300,10.54284814453125,3.4804129600524902,0.7798920273780823,0.22205999493598938
1750561125376453000,10.552453125,3.6192069053649902,0.7599509954452515,-0.07681199908256531
1750561125386057700,10.5620576171875,3.9182751178741455,0.6937689781188965,-0.23111200332641602
1750561125395662600,10.57166259765625,4.349300861358643,0.5788620114326477,-0.4095819890499115
1750561125405267200,10.58126708984375,4.937180042266846,0.2228579968214035,-1.0389440059661865
1750561125414871800,10.590871826171876,5.913772106170654,0.0071000000461936,-1.6032880544662476
1750561125424476400,10.600476318359375,6.193887233734131,-0.23571600019931793,-1.7430369853973389
1750561125434081300,10.610081298828124,5.642908096313477,-0.6695410013198853,-2.072706937789917
1750561125443686000,10.619685791015625,4.6773810386657715,-1.1265510320663452,-1.9025870561599731
1750561125453290500,10.62929052734375,3.5641989707946777,-1.3880950212478638,-1.7901339530944824
1750561125462895400,10.638895263671875,3.3309268951416016,-1.5975600481033325,-1.1683379411697388
1750561125472500000,10.6485,3.5789480209350586,-1.59785795211792,-0.7284460067749023
1750561125482104600,10.6581044921875,3.6485989093780518,-1.9478039741516113,-0.6942219734191895
1750561125491709400,10.66770947265625,3.538027048110962,-2.398893117904663,-1.0154050588607788
1750561125501314300,10.677314208984376,1.6557990312576294,-2.662648916244507,-1.1151130199432373
1750561125510919000,10.6869189453125,-0.6233220100402832,-2.8281240463256836,-1.0759990215301514
1750561125520523500,10.6965234375,-3.3303139209747314,-2.6125919818878174,-1.3595069646835327
1750561125530128100,10.706128173828125,-5.693831920623779,-2.294774055480957,-1.4941099882125854
1750561125539733000,10.71573291015625,-7.099441051483154,-2.2729649543762207,-1.3904420137405396
1750561125549337600,10.725337646484375,-7.6739678382873535,-2.252140998840332,-1.2394880056381226
1750561125558942500,10.7349423828125,-8.207776069641113,-2.439440965652466,-0.6363930106163025
1750561125568546800,10.744546875,-7.792040824890137,-2.519205093383789,-0.5229600071907043
1750561125578151700,10.754151611328124,-6.6238322257995605,-2.4237349033355713,-1.0544400215148926
1750561125587756500,10.763756591796875,-5.557462215423584,-2.4204370975494385,-1.8232369422912598
1750561125597361200,10.773361083984375,-5.114171028137207,-2.6876349449157715,-2.3961689472198486
1750561125606966000,10.782966064453126,-5.5055131912231445,-2.8504979610443115,-2.080209970474243
1750561125616570600,10.792570556640625,-6.001605033874512,-2.9365339279174805,-0.39177000522613525
1750561125626175500,10.802175537109376,-6.018587112426758,-2.7098278999328613,0.9279329776763916
1750561125635780000,10.811780029296875,-5.434718132019043,-2.3420090675354004,1.3719379901885986
1750561125645384700,10.821384765625,-4.6044511795043945,-2.0300381183624268,1.2386900186538696
1750561125654989300,10.8309892578125,-4.271090030670166,-1.8070019483566284,0.8538560271263123
1750561125664594200,10.84059423828125,-4.717033863067627,-1.5500249862670898,1.1682250499725342
1750561125674198800,10.85019873046875,-5.708319187164307,-1.3771430253982544,2.8984858989715576
1750561125683803400,10.859803466796874,-6.5693488121032715,-1.6618150472640991,4.29060697555542
1750561125693408300,10.869408203125,-5.087215900421143,-2.1368699073791504,4.878860950469971
1750561125703012900,10.879012939453125,-2.7544710636138916,-1.947100043296814,4.664899826049805
1750561125712617700,10.88861767578125,-0.46038898825645447,-1.546673059463501,3.960581064224243
1750561125722222300,10.898222412109375,2.128537893295288,-1.2808079719543457,3.2459840774536133
1750561125731827000,10.907826904296876,5.571685791015625,-1.0087189674377441,2.465034008026123
1750561125741431800,10.917431884765625,9.058374404907227,-0.2059990018606186,2.3119850158691406
1750561125751036400,10.927036376953126,10.593826293945312,0.6082620024681091,3.178934097290039
1750561125760641300,10.936641357421875,9.966135025024414,0.8654990196228027,3.5771501064300537
1750561125770246000,10.946245849609374,6.822690963745117,1.47154700756073,2.9233720302581787
1750561125779850500,10.9558505859375,3.5716569423675537,1.610084056854248,2.5216898918151855
1750561125789455400,10.965455322265624,2.237718105316162,1.5775890350341797,1.825646996498108
1750561125799060200,10.975060302734375,3.9733800888061523,1.6179720163345337,1.3212260007858276
1750561125808664800,10.984664794921875,5.997574806213379,1.6431180238723755,0.9693130254745483
1750561125818269400,10.99426953125,7.10368013381958,1.3839590549468994,0.15512600541114807
1750561125827874300,11.003874267578125,7.467671871185303,0.9864630103111267,-0.18106000125408173
1750561125837479000,11.01347900390625,6.681993007659912,0.6486960053443909,-0.32265299558639526
1750561125847083500,11.02308349609375,5.273486137390137,0.308804988861084,-0.5293130278587341
1750561125856688000,11.032688232421876,3.7417380809783936,-0.17734000086784363,-0.2817470133304596
1750561125866292700,11.042292724609375,2.6059799194335938,-0.3621070086956024,-0.38919100165367126
1750561125875897600,11.051897705078124,1.7637970447540283,-0.44438499212265015,-0.7196589708328247
1750561125885502200,11.061502197265625,0.6450309753417969,-0.7301340103149414,-1.105455994606018
1750561125895107300,11.071107421875,-0.5428910255432129,-1.0813390016555786,-1.5626310110092163
1750561125904712000,11.0807119140625,-1.5164949893951416,-0.9552199840545654,-1.8853169679641724
1750561125914316500,11.090316650390625,-2.139820098876953,-1.0175939798355103,-1.7484420537948608
1750561125923921200,11.099921142578125,-2.212306022644043,-1.1586819887161255,-0.9949120283126831
1750561125933526000,11.109526123046875,-1.6097569465637207,-1.1778219938278198,-0.09180799871683121
1750561125943130600,11.119130615234376,-0.5298680067062378,-1.103240966796875,0.39810600876808167
1750561125952735200,11.1287353515625,0.5864840149879456,-1.116292953491211,-0.29962000250816345
1750561125962339800,11.13833984375,1.3007559776306152,-1.3141440153121948,-1.7298699617385864
1750561125971944700,11.14794482421875,0.8099439740180969,-1.3305339813232422,-3.0984139442443848
1750561125981549300,11.15754931640625,-0.7866489887237549,-1.2363990545272827,-3.1319820880889893
1750561125991154000,11.16715380859375,-2.854949951171875,-0.8463220000267029,-2.337053060531616
1750561126000758800,11.1767587890625,-4.456798076629639,-0.4047679901123047,-1.0391700267791748
1750561126010363600,11.18636376953125,-4.960742950439453,-0.2949169874191284,0.20448000729084015
1750561126019968300,11.19596826171875,-4.132191181182861,-0.13364699482917786,1.0715739727020264
1750561126029572900,11.20557275390625,-2.643908977508545,0.18532399833202362,1.2679790258407593
1750561126039177700,11.215177734375,-1.1753809452056885,0.2975449860095978,0.28175899386405945
1750561126048782300,11.2247822265625,-0.46867600083351135,0.08817800134420395,-0.832834005355835
1750561126058387000,11.234386962890625,-0.34876298904418945,0.04437800124287605,-1.4020949602127075
1750561126067991800,11.24399169921875,-0.6637150049209595,0.00710699986666441,-1.0982520580291748
1750561126077596200,11.25359619140625,-0.9322370290756226,-0.09170199930667877,-0.5108199715614319
1750561126087201000,11.263200927734376,-1.0511809587478638,-0.05678299814462662,0.020457999780774117
1750561126096806000,11.272805908203125,-0.8616319894790649,0.006434999871999025,0.43315398693084717
1750561126106410500,11.282410400390624,-0.42669498920440674,-0.07814300060272217,0.9228190183639526
1750561126116015000,11.29201513671875,-0.20378300547599792,0.012872000224888325,1.3722180128097534
1750561126125620000,11.301619873046874,-0.13895100355148315,0.13460099697113037,1.2272629737854004
1750561126135224800,11.311224853515625,-0.13334299623966217,0.15961599349975586,0.6333709955215454
1750561126144829400,11.320829345703125,-0.23218199610710144,0.12353599816560745,0.044902000576257706
1750561126154434000,11.33043408203125,-0.3160420060157776,0.24282599985599518,-0.38930898904800415
1750561126164038700,11.34003857421875,-0.2769779860973358,0.28238800168037415,-0.5275449752807617
1750561126173643500,11.3496435546875,-0.142535001039505,0.27300000190734863,-0.2602429986000061
1750561126183248100,11.359248046875,-0.11120899766683578,0.17637899518013,0.20927099883556366
1750561126192852700,11.368852783203126,-0.17933699488639832,0.09501799941062927,0.6071590185165405
1750561126202457300,11.378457275390625,-0.45224401354789734,0.1418980062007904,0.9853320121765137
1750561126212062200,11.388062255859374,-0.5132200121879578,0.1228799968957901,1.2373019456863403
1750561126221667000,11.3976669921875,-0.3994230031967163,0.11236800253391266,1.008476972579956
1750561126231271700,11.407271728515624,0.17344099283218384,0.10611499845981598,0.46838000416755676
1750561126240876300,11.416876220703125,0.8837839961051941,0.17217299342155457,-0.034717999398708344
1750561126250481200,11.426481201171875,1.3953399658203125,0.18139000236988068,-0.3107700049877167
1750561126260085800,11.436085693359376,1.401489019393921,0.155689999461174,-0.2957000136375427
1750561126269690600,11.445690673828125,0.780655026435852,0.14484800398349762,-0.14527900516986847
1750561126279295200,11.455295166015626,-0.14734899997711182,0.19520199298858643,-0.021776000037789345
1750561126288899800,11.46489990234375,-0.6569100022315979,0.1620659977197647,0.14120300114154816
1750561126298504400,11.47450439453125,-0.7348520159721375,0.09014300256967545,0.284745991230011
1750561126308109000,11.484109130859375,-0.2859340012073517,0.021369000896811485,0.42813900113105774
1750561126317714000,11.4937138671875,0.40284600853919983,0.0413069985806942,0.2818300127983093
1750561126327318500,11.503318603515625,1.0917550325393677,0.05696199834346771,0.05845699831843376
1750561126336923100,11.512923095703124,1.3421969413757324,0.047880999743938446,-0.09413900226354599
1750561126346528000,11.522528076171875,1.065750002861023,0.08455099910497665,-0.1654060035943985
1750561126356132600,11.532132568359375,0.3172129988670349,0.09615600109100342,-0.16154800355434418
1750561126365737500,11.541737548828126,-0.49634701013565063,0.10364300012588501,-0.013681000098586082
1750561126375342300,11.55134228515625,-0.9706339836120605,0.05116000026464462,0.1449670046567917
1750561126384947000,11.560947021484376,-1.1457890272140503,-0.01606700010597706,0.20592699944972992
1750561126394551600,11.570551513671875,-0.9481199979782104,-0.07460100203752518,0.12114199995994568
1750561126404156200,11.58015625,-0.3964320123195648,-0.03418499976396561,0.014453999698162079
1750561126413761000,11.589760986328125,0.04675399884581566,-0.016383999958634377,-0.1467519998550415
1750561126423365600,11.59936572265625,0.1995459944009781,-0.022549999877810478,-0.25870800018310547
1750561126432970200,11.60897021484375,0.2558940052986145,-0.019247999414801598,-0.3263309895992279
1750561126442574800,11.618574951171874,0.3748199939727783,-0.03306100144982338,-0.3720709979534149
1750561126452179700,11.6281796875,0.4337649941444397,-0.1230660006403923,-0.161080002784729
1750561126461784300,11.637784423828125,0.3129830062389374,-0.21384300291538239,0.31598100066185
1750561126471389200,11.64738916015625,-0.06844499707221985,-0.22735999524593353,0.6380249857902527
1750561126480993800,11.656993896484375,-0.39238500595092773,-0.18263299763202667,0.5625849962234497
1750561126490598700,11.6665986328125,-0.6079720258712769,-0.07256600260734558,0.30465900897979736
1750561126500203300,11.676203369140625,-0.6251879930496216,-0.015212999656796455,-0.033629000186920166
1750561126509808000,11.68580810546875,-0.3996649980545044,-0.07165200263261795,-0.3105989992618561
1750561126519412700,11.695412841796875,-0.027204999700188637,-0.13461999595165253,-0.36195001006126404
1750561126529017300,11.705017333984374,0.19880999624729156,-0.12922899425029755,-0.31072598695755005
1750561126538622200,11.714622314453125,0.410647988319397,-0.16785800457000732,-0.14912199974060059
1750561126548226800,11.724226806640624,0.4768590033054352,-0.10766199976205826,0.038809001445770264
1750561126557831400,11.73383154296875,0.456510990858078,-0.04721900075674057,0.08773700147867203
1750561126567436000,11.74343603515625,0.08770900219678879,-0.11591099947690964,0.1279599964618683
1750561126577040600,11.75304052734375,-0.21867600083351135,-0.14231200516223907,0.08052600175142288
1750561126586645500,11.7626455078125,-0.23804999887943268,-0.1228879988193512,-0.05778999999165535
1750561126596250000,11.77225,-0.13597199320793152,-0.09623800218105316,-0.2245440036058426
1750561126605855000,11.78185498046875,-0.033041998744010925,-0.04314199835062027,-0.28978100419044495
1750561126615459800,11.7914599609375,0.008129999972879887,0.042785998433828354,-0.18479600548744202
1750561126625064400,11.801064453125,0.05292399972677231,0.12684600055217743,0.05539499968290329
1750561126634669000,11.8106689453125,0.1282300055027008,0.11142600327730179,0.18782800436019897
1750561126644273700,11.820273681640625,0.19102799892425537,0.1111849993467331,0.04590500146150589
1750561126653878500,11.82987841796875,0.6093209981918335,0.14313699305057526,-0.14297699928283691
1750561126663483100,11.839483154296875,0.8075929880142212,0.06853300333023071,-0.17007499933242798
1750561126673087700,11.849087646484374,0.6469429731369019,-0.014999999664723873,-0.013880000449717045
1750561126682692600,11.858692626953125,0.058278001844882965,0.06063200160861015,0.3184970021247864
1750561126692297200,11.868297119140625,-0.4776650071144104,0.04907499998807907,0.5645750164985657
