time,seconds_elapsed,z,y,x
1750561114878509000,0.054509033203125,0.5785999894142151,0.6298875212669373,-0.2974124848842621
1750561114888114000,0.064114013671875,0.5834124684333801,0.021449999883770943,-0.2741749882698059
1750561114897718300,0.07371826171875,0.49059998989105225,-0.27541249990463257,-0.28146249055862427
1750561114907323100,0.0833232421875,0.3244999945163727,-0.14231249690055847,-0.3817000091075897
1750561114916927700,0.092927734375,0.1289750039577484,0.19497500360012054,-0.5467000007629395
1750561114926532400,0.102532470703125,0.08016250282526016,0.3244999945163727,-0.640749990940094
1750561114936137000,0.112136962890625,0.21326249837875366,0.342787504196167,-0.5759875178337097
1750561114945741800,0.121741943359375,0.34402498602867126,0.5235999822616577,-0.4366999864578247
1750561114955346400,0.131346435546875,0.37950000166893005,1.2358499765396118,-0.40617498755455017
1750561114964951000,0.140950927734375,0.3880249857902527,1.8515750169754028,-0.33041250705718994
1750561114974556000,0.150555908203125,0.37207499146461487,2.136199951171875,-0.31693750619888306
1750561114984160500,0.160160400390625,0.5113624930381775,1.6169999837875366,-0.3694624900817871
1750561114993765400,0.169765380859375,0.731362521648407,0.6213625073432922,-0.5026999711990356
1750561115003370000,0.179369873046875,0.8204625248908997,0.022687500342726707,-0.6517499685287476
1750561115012974600,0.188974609375,0.8046500086784363,-0.09955000132322311,-0.6627500057220459
1750561115022579500,0.198579345703125,0.6897000074386597,0.03973750025033951,-0.5282750129699707
1750561115032184000,0.20818408203125,0.5468375086784363,0.367125004529953,-0.28036248683929443
1750561115041788700,0.21778857421875,0.36973750591278076,0.49665001034736633,-0.089649997651577
1750561115051393300,0.227393310546875,0.15468749403953552,0.3965499997138977,-0.014024999924004078
1750561115060998100,0.236998046875,0.08249999582767487,0.36602500081062317,0.043449997901916504
1750561115070602800,0.246602783203125,0.04221250116825104,0.12168750166893005,-0.014024999924004078
1750561115080207400,0.256207275390625,0.0056374999694526196,-0.16060000658035278,-0.1751749962568283
1750561115089812200,0.265812255859375,-0.048124998807907104,-0.2424124926328659,-0.4207499921321869
1750561115099417000,0.2754169921875,-0.10917499661445618,-0.24488750100135803,-0.7360374927520752
1750561115109021700,0.285021728515625,-0.11659999936819077,-0.15441249310970306,-1.0584750175476074
1750561115118626300,0.294626220703125,-0.06641250103712082,0.0031624999828636646,-1.1855249404907227
1750561115128231000,0.30423095703125,0.04097500070929527,0.31831249594688416,-0.9889000058174133
1750561115137835800,0.313835693359375,0.07397499680519104,0.39531248807907104,-0.6908000111579895
1750561115147440400,0.3234404296875,0.06297499686479568,0.35007500648498535,-0.40617498755455017
1750561115157045000,0.333044921875,0.03616249933838844,0.2755500078201294,-0.2204124927520752
1750561115166649900,0.34264990234375,0.05444999784231186,0.1522125005722046,-0.12264999747276306
1750561115176254500,0.35225439453125,0.10449999570846558,-0.016362499445676804,-0.10188750177621841
1750561115185859000,0.361859130859375,0.1264999955892563,-0.18012499809265137,-0.016362499445676804
1750561115195463700,0.371463623046875,0.19249999523162842,-0.2521750032901764,0.19978749752044678
1750561115205068500,0.381068603515625,0.2377374917268753,-0.34264999628067017,0.42102500796318054
1750561115214673200,0.390673095703125,0.27197501063346863,-0.33646249771118164,0.6018375158309937
1750561115224278000,0.400278076171875,0.3073124885559082,-0.22165000438690186,0.6982250213623047
1750561115233882600,0.409882568359375,0.3293125033378601,-0.04455000162124634,0.675125002861023
1750561115243487500,0.419487548828125,0.3513124883174896,0.1350249946117401,0.5590749979019165
1750561115253091800,0.429091796875,0.33550000190734863,0.18150000274181366,0.40507498383522034
1750561115262696700,0.43869677734375,0.2732124924659729,0.15702499449253082,0.2853125035762787
1750561115272301300,0.44830126953125,0.17544999718666077,0.020212499424815178,0.19373749196529388
1750561115281906000,0.457906005859375,0.06668750196695328,-0.038362499326467514,0.148499995470047
1750561115291510800,0.4675107421875,-0.018837500363588333,-0.04936249926686287,0.09116250276565552
1750561115301115400,0.477115478515625,-0.07259999960660934,-0.04702499881386757,0.025162499397993088
1750561115310720000,0.486719970703125,-0.08607500046491623,-0.028599999845027924,-0.012787500396370888
1750561115320324900,0.496324951171875,-0.057887498289346695,0.03492499887943268,0.0056374999694526196
1750561115329929500,0.505929443359375,-0.035887498408555984,0.07644999772310257,0.07150000333786011
1750561115339534000,0.5155341796875,-0.0798875018954277,0.0019249999895691872,0.18521249294281006
1750561115349138700,0.525138671875,-0.18988749384880066,-0.17036250233650208,0.30855000019073486
1750561115358743600,0.53474365234375,-0.30346250534057617,-0.2901250123977661,0.3891249895095825
1750561115368348200,0.54434814453125,-0.36217498779296875,-0.3059374988079071,0.40507498383522034
1750561115377952800,0.553952880859375,-0.34375,-0.2839374840259552,0.35378751158714294
1750561115387557600,0.5635576171875,-0.2704625129699707,-0.3254624903202057,0.24021250009536743
1750561115397162200,0.573162353515625,-0.19841249287128448,-0.5062749981880188,0.0789249986410141
1750561115406766800,0.582766845703125,-0.1508374959230423,-0.6247999668121338,-0.05678749829530716
1750561115416371500,0.592371337890625,-0.040837500244379044,-0.8765624761581421,-0.07012499868869781
1750561115425976300,0.601976318359375,-0.022549999877810478,-0.8020374774932861,-0.09212499856948853
1750561115435581000,0.611580810546875,-0.07507500052452087,-0.5747500061988831,-0.08483749628067017
1750561115445185800,0.621185791015625,-0.09941250085830688,-0.3474625051021576,0.0056374999694526196
1750561115454790400,0.630790283203125,-0.07741250097751617,-0.21188749372959137,0.09473749995231628
1750561115464395000,0.64039501953125,-0.028599999845027924,-0.12636250257492065,0.11550000309944153
1750561115473999600,0.64999951171875,0.03492499887943268,-0.04455000162124634,0.07026249915361404
1750561115483604500,0.6596044921875,0.06916250288486481,0.0031624999828636646,0.007974999956786633
1750561115493209000,0.669208984375,0.04963750019669533,-0.04702499881386757,-0.005362499970942736
1750561115502813700,0.678813720703125,-0.01759999990463257,-0.15441249310970306,0.012924999929964542
1750561115512418300,0.688418212890625,-0.10312499850988388,-0.22659999132156372,-0.0005499999970197678
1750561115522023200,0.698023193359375,-0.1531749963760376,-0.31693750619888306,-0.03231250122189522
1750561115531627800,0.707627685546875,-0.10559999942779541,-0.5587999820709229,-0.015124999918043613
1750561115541232400,0.717232421875,-0.04207500070333481,-0.7360374927520752,0.025162499397993088
1750561115550837200,0.726837158203125,-0.020075000822544098,-0.7555624842643738,0.03849999979138374
1750561115560441900,0.73644189453125,-0.006599999964237213,-0.5832750201225281,0.0471624992787838
1750561115570046500,0.74604638671875,0.0006874999962747097,-0.33041250705718994,0.05073750019073486
1750561115579651300,0.7556513671875,-0.0017874999903142452,-0.08978749811649323,0.05197500064969063
1750561115589256000,0.765255859375,-0.009074999950826168,0.0849749967455864,0.043449997901916504
1750561115598860800,0.77486083984375,-0.0518375001847744,0.1802625060081482,0.007974999956786633
1750561115608465400,0.78446533203125,-0.09459999948740005,0.24873749911785126,-0.036024998873472214
1750561115618070000,0.794070068359375,-0.1116499975323677,0.3268375098705292,-0.10064999759197235
1750561115627675000,0.8036748046875,-0.14464999735355377,0.40136250853538513,-0.1751749962568283
1750561115637279500,0.813279541015625,-0.14588749408721924,0.5235999822616577,-0.2583625018596649
1750561115646884000,0.822884033203125,-0.08841250091791153,0.6921749711036682,-0.3279374837875366
1750561115656488700,0.83248876953125,-0.011549999937415123,0.7911750078201294,-0.3877499997615814
1750561115666093600,0.842093505859375,0.06173750013113022,0.819225013256073,-0.4207499921321869
1750561115675698200,0.8516982421875,0.1143999993801117,0.7519875168800354,-0.4244624972343445
1750561115685302800,0.861302734375,0.1424500048160553,0.6371750235557556,-0.391462504863739
1750561115694907600,0.87090771484375,0.1264999955892563,0.49665001034736633,-0.31212499737739563
1750561115704512300,0.88051220703125,0.07039999961853027,0.334262490272522,-0.1825999915599823
1750561115714116900,0.890116943359375,0.017875000834465027,0.07768750190734863,-0.011549999937415123
1750561115723721700,0.8997216796875,-0.016362499445676804,-0.22893749177455902,0.20102499425411224
1750561115733326600,0.90932666015625,-0.015124999918043613,-0.46351251006126404,0.3940750062465668
1750561115742931200,0.91893115234375,-0.0017874999903142452,-0.5026999711990356,0.4478375017642975
1750561115752535800,0.928535888671875,0.05073750019073486,-0.4049375057220459,0.35378751158714294
1750561115762140400,0.938140380859375,0.10339999943971634,-0.23141250014305115,0.17778749763965607
1750561115771745300,0.947745361328125,0.13021250069141388,-0.04936249926686287,0.009212499484419823
1750561115781350000,0.957349853515625,0.14726249873638153,0.07397499680519104,-0.09088750183582306
1750561115790954500,0.96695458984375,0.15592500567436218,0.010449999943375587,-0.10559999942779541
1750561115800559000,0.97655908203125,0.15702499449253082,-0.172837495803833,-0.02736249938607216
1750561115810164000,0.9861640625,0.11921250075101852,-0.3499374985694885,0.08621250092983246
1750561115819768600,0.9957685546875,0.06421250104904175,-0.42198750376701355,0.16321249306201935
1750561115829373200,1.005373291015625,0.017875000834465027,-0.3926999866962433,0.15826250612735748
1750561115838978300,1.014978271484375,-0.015124999918043613,-0.3133625090122223,0.08621250092983246
1750561115848582700,1.024582763671875,-0.02488750033080578,-0.19112500548362732,0.006737499963492155
1750561115858187500,1.0341875,-0.02488750033080578,-0.08483749628067017,-0.06159999966621399
1750561115867792100,1.043792236328125,-0.005362499970942736,0.007974999956786633,-0.10559999942779541
1750561115877396700,1.053396728515625,0.017875000834465027,0.055687498301267624,-0.11659999936819077
1750561115887001300,1.06300146484375,-0.004124999977648258,0.07768750190734863,-0.09955000132322311
1750561115896606200,1.072606201171875,-0.009074999950826168,0.04097500070929527,-0.04702499881386757
1750561115906210800,1.0822109375,-0.018837500363588333,0.0031624999828636646,-0.005362499970942736
1750561115915815400,1.0918154296875,-0.04936249926686287,0.015399999916553497,-0.0042624999769032
1750561115925420300,1.101420166015625,-0.09212499856948853,0.16554999351501465,-0.06159999966621399
1750561115935025200,1.111025146484375,-0.14464999735355377,0.3097875118255615,-0.15207499265670776
1750561115944629800,1.120629638671875,-0.1568875014781952,0.40507498383522034,-0.20336249470710754
1750561115954234600,1.130234619140625,-0.13007499277591705,0.39778751134872437,-0.20336249470710754
1750561115963839200,1.139839111328125,-0.09088750183582306,0.2938374876976013,-0.16541250050067902
1750561115973443800,1.14944384765625,-0.045649997889995575,0.1545500010251999,-0.1190750002861023
1750561115983048400,1.15904833984375,-0.015124999918043613,-0.005362499970942736,-0.09707500040531158
1750561115992653300,1.1686533203125,-0.011549999937415123,-0.13612499833106995,-0.08483749628067017
1750561116002258000,1.1782578125,-0.02983750030398369,-0.16307500004768372,-0.07631249725818634
1750561116011862500,1.187862548828125,-0.050599999725818634,-0.1251250058412552,-0.06655000150203705
1750561116021467100,1.197467041015625,-0.0518375001847744,-0.09212499856948853,-0.03231250122189522
1750561116031071700,1.20707177734375,-0.03959999978542328,-0.09583749622106552,0.03492499887943268
1750561116040676600,1.216676513671875,-0.020075000822544098,-0.16183750331401825,0.116737499833107
1750561116050281500,1.226281494140625,-0.010312499478459358,-0.19359999895095825,0.18754999339580536
1750561116059885800,1.2358857421875,-0.02736249938607216,-0.15207499265670776,0.2022625058889389
1750561116069491000,1.245490966796875,-0.05664999783039093,-0.0775500014424324,0.14121249318122864
1750561116079095600,1.255095458984375,-0.07259999960660934,0.023924998939037323,0.03492499887943268
1750561116088700200,1.2647001953125,-0.05555000156164169,0.10092499852180481,-0.06159999966621399
1750561116098304800,1.2743046875,-0.022549999877810478,0.1106875017285347,-0.10683749616146088
1750561116107909400,1.283909423828125,0.012924999929964542,0.03616249933838844,-0.07383749634027481
1750561116117514200,1.29351416015625,0.04468749836087227,-0.0518375001847744,0.004399999976158142
1750561116127118800,1.303118896484375,0.06544999778270721,-0.07383749634027481,0.06297499686479568
1750561116136723500,1.312723388671875,0.06544999778270721,-0.031075000762939453,0.06916250288486481
1750561116146328000,1.322328125,0.03368749842047691,0.043449997901916504,0.028737500309944153
1750561116155933000,1.331932861328125,-0.018837500363588333,0.1069749966263771,-0.040837500244379044
1750561116165537800,1.341537841796875,-0.05912499874830246,0.1069749966263771,-0.10064999759197235
1750561116175142400,1.351142333984375,-0.08236250281333923,0.022687500342726707,-0.12031249701976776
1750561116184747000,1.3607470703125,-0.09583749622106552,-0.1251250058412552,-0.07878749817609787
1750561116194351900,1.370351806640625,-0.08483749628067017,-0.20212499797344208,-0.007837500423192978
1750561116203956700,1.379956787109375,-0.053075000643730164,-0.20583750307559967,0.029975000768899918
1750561116213561300,1.389561279296875,-0.018837500363588333,-0.15936249494552612,0.020212499424815178
1750561116223166000,1.399166015625,0.009212499484419823,-0.09583749622106552,-0.015124999918043613
1750561116232770600,1.4087705078125,0.029975000768899918,-0.05555000156164169,-0.03959999978542328
1750561116242375200,1.418375244140625,0.04468749836087227,-0.053075000643730164,-0.028599999845027924
1750561116251979800,1.427979736328125,0.03739999979734421,-0.07383749634027481,0.004399999976158142
1750561116261584600,1.437584716796875,0.012924999929964542,-0.07878749817609787,0.04097500070929527
1750561116271189200,1.447189208984375,-0.01759999990463257,-0.028599999845027924,0.06544999778270721
1750561116280793900,1.4567939453125,-0.028599999845027924,0.03492499887943268,0.06668750196695328
1750561116290398500,1.4663984375,0.008112499490380287,0.03492499887943268,0.0471624992787838
1750561116300003300,1.47600341796875,0.06297499686479568,-0.058024998754262924,0.007974999956786633
1750561116309608200,1.485608154296875,0.11316250264644623,-0.18383750319480896,-0.02502499893307686
1750561116319212800,1.495212890625,0.15344999730587006,-0.26688748598098755,-0.03959999978542328
1750561116328817700,1.504817626953125,0.16321249306201935,-0.31817498803138733,-0.04702499881386757
1750561116338422300,1.51442236328125,0.13516250252723694,-0.31817498803138733,-0.050599999725818634
1750561116348027000,1.52402685546875,0.08016250282526016,-0.22893749177455902,-0.03959999978542328
1750561116357631700,1.5336318359375,-0.0005499999970197678,-0.09212499856948853,-0.020075000822544098
1750561116367236400,1.543236328125,-0.07259999960660934,0.0019249999895691872,-0.012787500396370888
1750561116376841000,1.552841064453125,-0.09831249713897705,0.06792499870061874,-0.020075000822544098
1750561116386445600,1.562445556640625,-0.07631249725818634,0.09844999760389328,-0.04702499881386757
1750561116396050200,1.57205029296875,-0.031075000762939453,0.07026249915361404,-0.07012499868869781
1750561116405655300,1.5816552734375,0.03492499887943268,0.017737500369548798,-0.05678749829530716
1750561116415260000,1.591260009765625,0.09239999949932098,-0.03231250122189522,-0.021312499418854713
1750561116424864800,1.60086474609375,0.09721250087022781,-0.048124998807907104,0.03973750025033951
1750561116434469400,1.610469482421875,0.05816249921917915,-0.010312499478459358,0.11426249891519547
1750561116444074000,1.620073974609375,0.010449999943375587,0.03616249933838844,0.15468749403953552
1750561116453678800,1.629678955078125,-0.023787500336766243,0.05073750019073486,0.1424500048160553
1750561116463283200,1.639283203125,-0.038362499326467514,0.03492499887943268,0.10202500224113464
1750561116472888000,1.64888818359375,-0.03231250122189522,0.007974999956786633,0.06173750013113022
1750561116482492700,1.65849267578125,-0.011549999937415123,-0.015262499451637268,0.027499999850988388
1750561116492097300,1.66809716796875,-0.0017874999903142452,0.0006874999962747097,-0.0005499999970197678
1750561116501702100,1.6777021484375,-0.010312499478459358,0.06297499686479568,-0.03959999978542328
1750561116511306800,1.687306640625,-0.03231250122189522,0.12168750166893005,-0.08855000138282776
1750561116520911600,1.69691162109375,-0.04688749834895134,0.13997499644756317,-0.1288374960422516
1750561116530516200,1.70651611328125,-0.02983750030398369,0.12168750166893005,-0.1288374960422516
1750561116540121000,1.71612109375,0.0006874999962747097,0.07150000333786011,-0.09212499856948853
1750561116549725700,1.7257255859375,0.020212499424815178,0.03492499887943268,-0.031075000762939453
1750561116559330600,1.73533056640625,0.021449999883770943,0.031212499365210533,0.015399999916553497
1750561116568935200,1.74493505859375,0.006874999962747097,0.03368749842047691,0.026399999856948853
1750561116578539800,1.754539794921875,-0.007837500423192978,0.027499999850988388,0.017737500369548798
1750561116588144400,1.764144287109375,-0.013887500390410423,-0.0030249999836087227,0.0056374999694526196
1750561116597749000,1.7737490234375,-0.007837500423192978,-0.03959999978542328,0.016637500375509262
1750561116607353600,1.783353515625,0.004399999976158142,-0.07012499868869781,0.055687498301267624
1750561116616958500,1.79295849609375,0.011687500402331352,-0.07012499868869781,0.0849749967455864
1750561116626563300,1.802563232421875,0.022687500342726707,-0.018837500363588333,0.07273750007152557
1750561116636168200,1.812168212890625,0.03368749842047691,0.05926249921321869,0.021449999883770943
1750561116645772800,1.821772705078125,0.029975000768899918,0.11178749799728394,-0.04207500070333481
1750561116655377400,1.83137744140625,0.018975000828504562,0.10092499852180481,-0.0835999995470047
1750561116664982000,1.84098193359375,0.011687500402331352,0.026399999856948853,-0.07259999960660934
1750561116674587000,1.8505869140625,0.018975000828504562,-0.06531249731779099,-0.005362499970942736
1750561116684191500,1.86019140625,0.031212499365210533,-0.11412499845027924,0.09350000321865082
1750561116693796000,1.869796142578125,0.03863750025629997,-0.09583749622106552,0.1765500009059906
1750561116703401000,1.87940087890625,0.03863750025629997,-0.053075000643730164,0.19497500360012054
1750561116713005300,1.88900537109375,0.03244999796152115,-0.011549999937415123,0.148499995470047
1750561116722610200,1.898610107421875,0.020212499424815178,0.022687500342726707,0.0752125009894371
1750561116732214800,1.90821484375,0.0056374999694526196,0.03368749842047691,0.004399999976158142
1750561116741819600,1.917819580078125,-0.005362499970942736,0.021449999883770943,-0.036024998873472214
1750561116751424300,1.92742431640625,-0.006599999964237213,-0.014024999924004078,-0.03231250122189522
1750561116761029000,1.937029052734375,-0.006599999964237213,-0.058024998754262924,-0.0005499999970197678
1750561116770633700,1.9466337890625,-0.009074999950826168,-0.08236250281333923,0.03739999979734421
1750561116780238300,1.95623828125,-0.010312499478459358,-0.06283749639987946,0.05321250110864639
1750561116789843200,1.96584326171875,-0.018837500363588333,-0.02736249938607216,0.03368749842047691
1750561116799447800,1.97544775390625,-0.03355000168085098,0.0006874999962747097,0.0056374999694526196
1750561116809052400,1.985052490234375,-0.040837500244379044,-0.0017874999903142452,-0.014024999924004078
1750561116818657300,1.9946572265625,-0.03355000168085098,-0.022549999877810478,-0.005362499970942736
1750561116828262000,2.004261962890625,-0.004124999977648258,-0.015262499451637268,0.028737500309944153
1750561116837866800,2.01386669921875,0.03492499887943268,0.016499999910593033,0.05321250110864639
1750561116847471400,2.023471435546875,0.06063750013709068,0.06173750013113022,0.04592499881982803
1750561116857076200,2.033076171875,0.08249999582767487,0.06544999778270721,0.014162499457597733
1750561116866680800,2.042680908203125,0.09473749995231628,-0.0005499999970197678,-0.020075000822544098
1750561116876285400,2.052285400390625,0.07768750190734863,-0.09212499856948853,-0.03478749841451645
1750561116885890300,2.061890380859375,0.03987500071525574,-0.1471250057220459,-0.023787500336766243
1750561116895495000,2.071494873046875,0.0031624999828636646,-0.133650004863739,0.0056374999694526196
1750561116905099500,2.081099609375,-0.011549999937415123,-0.06902500241994858,0.031212499365210533
1750561116914704400,2.090704345703125,-0.004124999977648258,0.0031624999828636646,0.04097500070929527
1750561116924309000,2.10030908203125,0.010449999943375587,0.06792499870061874,0.023924998939037323
1750561116933913600,2.10991357421875,0.022687500342726707,0.09721250087022781,-0.01759999990463257
1750561116943518200,2.119518310546875,0.021449999883770943,0.09968750178813934,-0.06159999966621399
1750561116953123000,2.129123046875,0.0006874999962747097,0.0789249986410141,-0.09583749622106552
1750561116962727700,2.138727783203125,-0.03231250122189522,0.028737500309944153,-0.10436250269412994
1750561116972332300,2.148332275390625,-0.05664999783039093,-0.03355000168085098,-0.07631249725818634
1750561116981937200,2.157937255859375,-0.06407500058412552,-0.0775500014424324,-0.012787500396370888
1750561116991542000,2.1675419921875,-0.057887498289346695,-0.09707500040531158,0.06544999778270721
1750561117001146600,2.177146728515625,-0.040837500244379044,-0.0798875018954277,0.12168750166893005
1750561117010751200,2.186751220703125,-0.01759999990463257,-0.02983750030398369,0.1264999955892563
1750561117020356000,2.196356201171875,-0.004124999977648258,0.028737500309944153,0.08373750001192093
1750561117029960700,2.205960693359375,0.0031624999828636646,0.0752125009894371,0.020212499424815178
1750561117039565300,2.2155654296875,0.006874999962747097,0.08002500236034393,-0.03478749841451645
1750561117049170000,2.225169921875,0.009212499484419823,0.0471624992787838,-0.057887498289346695
1750561117058774800,2.23477490234375,0.0031624999828636646,-0.007837500423192978,-0.050599999725818634
1750561117068379400,2.24437939453125,-0.0028874999843537807,-0.04936249926686287,-0.016362499445676804
1750561117077984300,2.253984375,-0.0005499999970197678,-0.06407500058412552,0.025162499397993088
1750561117087588900,2.2635888671875,0.004399999976158142,-0.04936249926686287,0.05321250110864639
1750561117097193700,2.27319384765625,0.004399999976158142,-0.021312499418854713,0.0471624992787838
1750561117106798300,2.28279833984375,0.0006874999962747097,-0.005362499970942736,0.012924999929964542
1750561117116403000,2.29240283203125,-0.011549999937415123,0.0019249999895691872,-0.02736249938607216
1750561117126007600,2.302007568359375,-0.015124999918043613,-0.005362499970942736,-0.04207500070333481
1750561117135612400,2.3116123046875,-0.005362499970942736,-0.03231250122189522,-0.021312499418854713
1750561117145217000,2.321217041015625,0.026399999856948853,-0.04936249926686287,0.027499999850988388
1750561117154822000,2.33082177734375,0.06063750013709068,-0.05431250110268593,0.07397499680519104
1750561117164426500,2.340426513671875,0.0752125009894371,-0.04936249926686287,0.09473749995231628
1750561117174031400,2.35003125,0.06916250288486481,-0.020075000822544098,0.09116250276565552
1750561117183636000,2.359635986328125,0.05321250110864639,0.007974999956786633,0.07644999772310257
1750561117193240800,2.36924072265625,0.043449997901916504,0.014162499457597733,0.07768750190734863
1750561117202845400,2.378845458984375,0.03863750025629997,-0.006599999964237213,0.09473749995231628
1750561117212450000,2.388449951171875,0.03492499887943268,-0.03712499886751175,0.13021250069141388
1750561117222054700,2.3980546875,0.031212499365210533,-0.060362499207258224,0.16926249861717224
1750561117231659500,2.407659423828125,0.03244999796152115,-0.07259999960660934,0.1802625060081482
1750561117241264000,2.41726416015625,0.028875000774860382,-0.06283749639987946,0.1447875052690506
1750561117250868700,2.42686865234375,0.010449999943375587,-0.021312499418854713,0.07026249915361404
1750561117260473300,2.436473388671875,-0.007837500423192978,0.03726249933242798,-0.012787500396370888
1750561117270078200,2.446078125,-0.016362499445676804,0.08621250092983246,-0.07507500052452087
1750561117279683000,2.45568310546875,-0.005362499970942736,0.10449999570846558,-0.09088750183582306
1750561117289287700,2.46528759765625,0.018975000828504562,0.09968750178813934,-0.07136250287294388
1750561117298892500,2.474892578125,0.03739999979734421,0.08249999582767487,-0.03478749841451645
1750561117308497200,2.4844970703125,0.043449997901916504,0.04592499881982803,-0.0042624999769032
1750561117318101800,2.494101806640625,0.03368749842047691,0.0006874999962747097,0.011687500402331352
1750561117327706600,2.50370654296875,0.008112499490380287,-0.018837500363588333,0.004399999976158142
1750561117337311200,2.513311279296875,-0.022549999877810478,-0.010312499478459358,-0.022549999877810478
1750561117346915800,2.522915771484375,-0.04331250116229057,0.010449999943375587,-0.053075000643730164
1750561117356520700,2.532520751953125,-0.04207500070333481,0.025162499397993088,-0.06888750195503235
1750561117366125300,2.542125244140625,-0.026124998927116394,0.022687500342726707,-0.06283749639987946
1750561117375730000,2.55172998046875,-0.006599999964237213,0.009212499484419823,-0.03959999978542328
1750561117385334500,2.56133447265625,0.011687500402331352,-0.010312499478459358,-0.012787500396370888
1750561117394939400,2.570939453125,0.021449999883770943,-0.04331250116229057,0.007974999956786633
1750561117404544300,2.580544189453125,0.018975000828504562,-0.06778749823570251,0.028737500309944153
1750561117414148900,2.59014892578125,-0.006599999964237213,-0.07259999960660934,0.03739999979734421
1750561117423753700,2.599753662109375,-0.04207500070333481,-0.045787498354911804,0.027499999850988388
1750561117433358300,2.6093583984375,-0.06159999966621399,0.005499999970197678,0.0056374999694526196
1750561117442963000,2.618962890625,-0.06407500058412552,0.0494999997317791,-0.02983750030398369
1750561117452567600,2.628567626953125,-0.05555000156164169,0.0812624990940094,-0.06655000150203705
1750561117462172400,2.63817236328125,-0.035887498408555984,0.08992499858140945,-0.09583749622106552
1750561117471777000,2.647777099609375,-0.009074999950826168,0.06668750196695328,-0.09831249713897705
1750561117481381600,2.657381591796875,0.022687500342726707,0.025162499397993088,-0.06283749639987946
1750561117490986200,2.666986328125,0.04839999973773956,-0.026262499392032623,0.004399999976158142
1750561117500591000,2.676591064453125,0.06063750013709068,-0.058024998754262924,0.07026249915361404
1750561117510195700,2.68619580078125,0.06173750013113022,-0.07136250287294388,0.10821250081062317
1750561117519800600,2.695800537109375,0.05073750019073486,-0.06159999966621399,0.11550000309944153
1750561117529405200,2.7054052734375,0.027637500315904617,-0.028599999845027924,0.09597499668598175
1750561117539010000,2.715010009765625,0.006874999962747097,-0.011549999937415123,0.05321250110864639
1750561117548614700,2.72461474609375,0.006874999962747097,-0.012787500396370888,0.011687500402331352
1750561117558219500,2.734219482421875,0.016637500375509262,-0.03478749841451645,-0.018837500363588333
1750561117567824100,2.74382421875,0.029975000768899918,-0.048124998807907104,-0.02736249938607216
1750561117577428700,2.7534287109375,0.04221250116825104,-0.031075000762939453,-0.020075000822544098
1750561117587033300,2.763033447265625,0.04963750019669533,0.0006874999962747097,-0.014024999924004078
1750561117596638200,2.77263818359375,0.055687498301267624,0.03726249933242798,-0.02502499893307686
1750561117606242800,2.782242919921875,0.05444999784231186,0.06173750013113022,-0.0518375001847744
1750561117615847400,2.791847412109375,0.04839999973773956,0.04221250116825104,-0.07878749817609787
1750561117625452300,2.801452392578125,0.03368749842047691,0.006737499963492155,-0.08483749628067017
1750561117635057000,2.811056884765625,0.008112499490380287,-0.02983750030398369,-0.07507500052452087
1750561117644661800,2.820661865234375,-0.0028874999843537807,-0.06283749639987946,-0.053075000643730164
1750561117654266400,2.830266357421875,0.0006874999962747097,-0.06531249731779099,-0.031075000762939453
1750561117663871200,2.839871337890625,0.0006874999962747097,-0.031075000762939453,-0.028599999845027924
1750561117673475800,2.849475830078125,-0.0005499999970197678,0.031212499365210533,-0.04702499881386757
1750561117683080400,2.85908056640625,-0.0028874999843537807,0.07026249915361404,-0.08112499862909317
1750561117702290000,2.8782900390625,0.008112499490380287,0.014162499457597733,-0.13983750343322754
1750561117711894500,2.88789453125,0.028875000774860382,-0.02502499893307686,-0.13612499833106995
1750561117721499400,2.89749951171875,0.0471624992787838,-0.036024998873472214,-0.11055000126361847
1750561117731104000,2.90710400390625,0.05321250110864639,-0.022549999877810478,-0.0873124971985817
1750561117740708600,2.91670849609375,0.05197500064969063,0.012924999929964542,-0.06888750195503235
1750561117750313500,2.9263134765625,0.026399999856948853,0.05444999784231186,-0.04455000162124634
1750561117759918000,2.93591796875,-0.013887500390410423,0.06421250104904175,-0.018837500363588333
1750561117769523000,2.94552294921875,-0.03712499886751175,0.014162499457597733,0.016637500375509262
1750561117779127600,2.95512744140625,-0.02488750033080578,-0.050599999725818634,0.06668750196695328
1750561117788732400,2.964732421875,0.011687500402331352,-0.10188750177621841,0.1264999955892563
1750561117798337000,2.9743369140625,0.03616249933838844,-0.11659999936819077,0.17173749208450317
1750561117807941600,2.983941650390625,0.04468749836087227,-0.07878749817609787,0.1802625060081482
1750561117817546200,2.993546142578125,0.043449997901916504,-0.020075000822544098,0.13997499644756317
1750561117827151000,3.003151123046875,0.03244999796152115,0.04592499881982803,0.06297499686479568
1750561117836755700,3.012755615234375,0.021449999883770943,0.0752125009894371,-0.018837500363588333
1750561117846360600,3.022360595703125,0.020212499424815178,0.0752125009894371,-0.06888750195503235
1750561117855965200,3.031965087890625,0.028875000774860382,0.08744999766349792,-0.06531249731779099
1750561117865570000,3.041570068359375,0.03739999979734421,0.08744999766349792,-0.02736249938607216
1750561117875174700,3.051174560546875,0.03863750025629997,0.07150000333786011,0.022687500342726707
1750561117884779500,3.060779541015625,0.029975000768899918,0.03244999796152115,0.05816249921917915
1750561117894384000,3.070384033203125,0.020212499424815178,-0.010312499478459358,0.06297499686479568
1750561117903988700,3.07998876953125,0.011687500402331352,-0.03355000168085098,0.043449997901916504
1750561117913593600,3.089593505859375,0.009212499484419823,-0.031075000762939453,0.0056374999694526196
1750561117923198200,3.0991982421875,0.008112499490380287,-0.0042624999769032,-0.038362499326467514
1750561117932802800,3.108802734375,0.011687500402331352,0.03849999979138374,-0.06655000150203705
1750561117942407700,3.11840771484375,0.010449999943375587,0.07150000333786011,-0.06407500058412552
1750561117952012300,3.12801220703125,0.004399999976158142,0.06792499870061874,-0.03959999978542328
1750561117961617200,3.1376171875,-0.005362499970942736,0.028737500309944153,-0.020075000822544098
1750561117971221800,3.1472216796875,-0.022549999877810478,-0.014024999924004078,-0.009074999950826168
1750561117980826600,3.15682666015625,-0.03959999978542328,-0.04207500070333481,-0.0017874999903142452
1750561117990431200,3.16643115234375,-0.04936249926686287,-0.05912499874830246,-0.0017874999903142452
1750561118000035800,3.176035888671875,-0.045649997889995575,-0.050599999725818634,-0.009074999950826168
1750561118009640400,3.185640380859375,-0.038362499326467514,-0.04207500070333481,-0.022549999877810478
1750561118019245300,3.195245361328125,-0.03231250122189522,-0.03959999978542328,-0.03355000168085098
1750561118028850000,3.204849853515625,-0.026124998927116394,-0.023787500336766243,-0.031075000762939453
1750561118038454500,3.21445458984375,-0.020075000822544098,-0.009074999950826168,-0.018837500363588333
1750561118048059100,3.22405908203125,-0.01759999990463257,0.015399999916553497,-0.006599999964237213
1750561118057664000,3.2336640625,-0.015124999918043613,0.03368749842047691,-0.007837500423192978
1750561118067268900,3.243268798828125,-0.006599999964237213,0.03368749842047691,-0.018837500363588333
1750561118076873500,3.25287353515625,-0.0017874999903142452,0.012924999929964542,-0.020075000822544098
1750561118086478000,3.26247802734375,0.0019249999895691872,-0.03231250122189522,-0.0005499999970197678
1750561118096083000,3.2720830078125,0.006874999962747097,-0.08236250281333923,0.03849999979138374
1750561118105687600,3.2816875,0.009212499484419823,-0.09707500040531158,0.07644999772310257
1750561118115292200,3.291292236328125,0.006874999962747097,-0.06531249731779099,0.0812624990940094
1750561118124897000,3.30089697265625,0.0056374999694526196,-0.007837500423192978,0.03973750025033951
1750561118134502000,3.310501953125,0.010449999943375587,0.04592499881982803,-0.028599999845027924
1750561118144106500,3.3201064453125,0.017875000834465027,0.0849749967455864,-0.08483749628067017
1750561118153711000,3.329711181640625,0.022687500342726707,0.0812624990940094,-0.10807500034570694
1750561118163315700,3.339315673828125,0.022687500342726707,0.03973750025033951,-0.09212499856948853
1750561118172920300,3.34892041015625,0.022687500342726707,-0.015262499451637268,-0.040837500244379044
1750561118182525200,3.358525146484375,0.025162499397993088,-0.05555000156164169,0.027499999850988388
1750561118192129800,3.3681298828125,0.03244999796152115,-0.06902500241994858,0.09350000321865082
1750561118201734700,3.377734619140625,0.04839999973773956,-0.05912499874830246,0.12044999748468399
1750561118211339500,3.387339599609375,0.05321250110864639,-0.028599999845027924,0.08992499858140945
1750561118220944100,3.396944091796875,0.03987500071525574,0.021449999883770943,0.022687500342726707
1750561118230548700,3.406548828125,0.014162499457597733,0.05444999784231186,-0.057887498289346695
1750561118240153600,3.416153564453125,-0.0017874999903142452,0.05926249921321869,-0.11659999936819077
1750561118249758200,3.42575830078125,-0.0028874999843537807,0.027499999850988388,-0.1313125044107437
1750561118259362800,3.43536279296875,0.006874999962747097,-0.028599999845027924,-0.09955000132322311
1750561118268967400,3.444967529296875,0.016637500375509262,-0.07259999960660934,-0.038362499326467514
1750561118278572000,3.454572021484375,0.020212499424815178,-0.07136250287294388,0.017737500369548798
1750561118288177200,3.46417724609375,0.015399999916553497,-0.03355000168085098,0.03973750025033951
1750561118297781800,3.47378173828125,0.0006874999962747097,0.010449999943375587,0.018975000828504562
1750561118307386400,3.483386474609375,-0.02488750033080578,0.03616249933838844,-0.02736249938607216
1750561118316991200,3.4929912109375,-0.03712499886751175,0.04468749836087227,-0.06888750195503235
1750561118326595800,3.502595947265625,-0.028599999845027924,0.028737500309944153,-0.08236250281333923
1750561118336200400,3.512200439453125,-0.007837500423192978,0.010449999943375587,-0.06283749639987946
1750561118345805300,3.521805419921875,0.012924999929964542,0.0019249999895691872,-0.023787500336766243
1750561118355410000,3.531409912109375,0.021449999883770943,0.011687500402331352,0.010449999943375587
1750561118365014800,3.541014892578125,0.018975000828504562,0.027499999850988388,0.017737500369548798
1750561118374619400,3.550619384765625,0.006874999962747097,0.021449999883770943,0.0056374999694526196
1750561118384224000,3.56022412109375,-0.007837500423192978,-0.0030249999836087227,-0.0017874999903142452
1750561118393828900,3.569828857421875,-0.02488750033080578,-0.028599999845027924,0.004399999976158142
1750561118403433700,3.579433837890625,-0.038362499326467514,-0.04331250116229057,0.021449999883770943
1750561118413038300,3.589038330078125,-0.035887498408555984,-0.02736249938607216,0.04468749836087227
1750561118422643000,3.598642822265625,-0.016362499445676804,-0.006599999964237213,0.055687498301267624
1750561118432247600,3.60824755859375,0.010449999943375587,0.011687500402331352,0.04839999973773956
1750561118441852400,3.617852294921875,0.027637500315904617,0.022687500342726707,0.016637500375509262
1750561118451457000,3.62745703125,0.03368749842047691,0.03726249933242798,-0.026124998927116394
1750561118461061600,3.6370615234375,0.026399999856948853,0.04468749836087227,-0.060362499207258224
1750561118470666500,3.64666650390625,0.017875000834465027,0.03616249933838844,-0.07012499868869781
1750561118480271000,3.65627099609375,0.010449999943375587,0.015399999916553497,-0.05912499874830246
1750561118489875700,3.665875732421875,-0.0028874999843537807,-0.012787500396370888,-0.03959999978542328
1750561118499480600,3.67548046875,-0.012787500396370888,-0.028599999845027924,-0.02736249938607216
1750561118509085200,3.685085205078125,-0.013887500390410423,-0.021312499418854713,-0.03478749841451645
1750561118518689800,3.694689697265625,-0.004124999977648258,-0.0030249999836087227,-0.045787498354911804
1750561118528295000,3.704294921875,0.004399999976158142,0.029975000768899918,-0.0518375001847744
1750561118537899500,3.7138994140625,0.009212499484419823,0.06916250288486481,-0.0518375001847744
1750561118547504000,3.723504150390625,0.006874999962747097,0.08373750001192093,-0.04455000162124634
1750561118557109000,3.73310888671875,-0.0017874999903142452,0.05692499876022339,-0.040837500244379044
1750561118566713600,3.742713623046875,-0.016362499445676804,0.0031624999828636646,-0.04936249926686287
1750561118576318200,3.752318115234375,-0.03355000168085098,-0.0518375001847744,-0.05912499874830246
1750561118585922800,3.7619228515625,-0.045649997889995575,-0.08483749628067017,-0.06159999966621399
1750561118595527700,3.771527587890625,-0.040837500244379044,-0.0798875018954277,-0.048124998807907104
1750561118605132500,3.781132568359375,-0.022549999877810478,-0.03712499886751175,-0.020075000822544098
1750561118614737200,3.790737060546875,-0.0005499999970197678,0.021449999883770943,-0.0030249999836087227
1750561118624341800,3.800341796875,0.006874999962747097,0.05321250110864639,-0.014024999924004078
1750561118633946600,3.809946533203125,0.0006874999962747097,0.05926249921321869,-0.038362499326467514
1750561118643551200,3.81955126953125,-0.009074999950826168,0.05816249921917915,-0.06655000150203705
1750561118653155800,3.82915576171875,-0.02736249938607216,0.048262499272823334,-0.09459999948740005
1750561118662760700,3.8387607421875,-0.03355000168085098,0.03616249933838844,-0.10312499850988388
1750561118672365300,3.848365234375,-0.02736249938607216,0.011687500402331352,-0.07878749817609787
1750561118681970000,3.857969970703125,-0.015124999918043613,-0.021312499418854713,-0.026124998927116394
1750561118691574500,3.867574462890625,-0.0028874999843537807,-0.05431250110268593,0.031212499365210533
1750561118701179400,3.877179443359375,0.009212499484419823,-0.07383749634027481,0.06792499870061874
1750561118710784300,3.8867841796875,0.020212499424815178,-0.05431250110268593,0.07273750007152557
1750561118720388900,3.896388916015625,0.025162499397993088,-0.011549999937415123,0.04468749836087227
1750561118729993700,3.90599365234375,0.014162499457597733,0.04468749836087227,-0.009074999950826168
1750561118739598300,3.915598388671875,-0.007837500423192978,0.08992499858140945,-0.07136250287294388
1750561118749203000,3.925202880859375,-0.028599999845027924,0.10326249897480011,-0.1214125007390976
1750561118758807800,3.934807861328125,-0.038362499326467514,0.08992499858140945,-0.1373624950647354
1750561118768412400,3.944412353515625,-0.03959999978542328,0.0471624992787838,-0.1153625026345253
1750561118778017000,3.95401708984375,-0.038362499326467514,-0.0030249999836087227,-0.06655000150203705
1750561118787622000,3.963621826171875,-0.028599999845027924,-0.028599999845027924,-0.011549999937415123
1750561118797226500,3.9732265625,-0.013887500390410423,-0.020075000822544098,0.03492499887943268
1750561118806831000,3.9828310546875,0.0006874999962747097,-0.0017874999903142452,0.05321250110864639
1750561118816436000,3.99243603515625,-0.0005499999970197678,0.016499999910593033,0.03616249933838844
1750561118826040600,4.00204052734375,-0.004124999977648258,0.022687500342726707,-0.0030249999836087227
1750561118835645400,4.0116455078125,-0.007837500423192978,0.016499999910593033,-0.04455000162124634
1750561118845250300,4.021250244140625,-0.013887500390410423,0.009212499484419823,-0.06159999966621399
1750561118854855000,4.03085498046875,-0.016362499445676804,-0.0017874999903142452,-0.045787498354911804
1750561118864459500,4.04045947265625,-0.006599999964237213,-0.007837500423192978,-0.005362499970942736
1750561118874064100,4.050064208984375,0.015399999916553497,-0.010312499478459358,0.03368749842047691
1750561118883669000,4.0596689453125,0.03368749842047691,-0.0042624999769032,0.0471624992787838
1750561118893273600,4.069273681640625,0.0471624992787838,0.0031624999828636646,0.025162499397993088
1750561118902878200,4.078878173828125,0.04592499881982803,0.0006874999962747097,-0.02736249938607216
1750561118912483000,4.088483154296875,0.027637500315904617,0.0006874999962747097,-0.08236250281333923
1750561118922088000,4.098087890625,0.009212499484419823,-0.007837500423192978,-0.1153625026345253
1750561118931692500,4.107692626953125,-0.0028874999843537807,-0.0030249999836087227,-0.11783749610185623
1750561118941297200,4.117297119140625,-0.012787500396370888,0.031212499365210533,-0.10807500034570694
1750561118950902000,4.126902099609375,-0.010312499478459358,0.07768750190734863,-0.10188750177621841
1750561118960506600,4.136506591796875,0.008112499490380287,0.11550000309944153,-0.09955000132322311
1750561118970111500,4.146111572265625,0.031212499365210533,0.1387374997138977,-0.10188750177621841
1750561118979716000,4.155716064453125,0.0471624992787838,0.13750000298023224,-0.1153625026345253
1750561118989321000,4.165321044921875,0.05444999784231186,0.11302500218153,-0.1116499975323677
1750561118998925600,4.174925537109375,0.04097500070929527,0.06792499870061874,-0.07507500052452087
1750561119008530200,4.1845302734375,-0.0028874999843537807,-0.0005499999970197678,-0.023787500336766243
1750561119018134800,4.194134765625,-0.04688749834895134,-0.07012499868869781,0.021449999883770943
1750561119027739400,4.203739501953125,-0.07507500052452087,-0.10436250269412994,0.04097500070929527
1750561119037344300,4.21334423828125,-0.08112499862909317,-0.10683749616146088,0.03973750025033951
1750561119046948900,4.222948974609375,-0.07136250287294388,-0.09583749622106552,0.018975000828504562
1750561119056553700,4.2325537109375,-0.048124998807907104,-0.06159999966621399,0.0006874999962747097
1750561119066158300,4.242158447265625,-0.012787500396370888,0.006737499963492155,-0.006599999964237213
1750561119075763200,4.25176318359375,0.009212499484419823,0.08249999582767487,-0.023787500336766243
1750561119085367800,4.261367919921875,0.015399999916553497,0.12168750166893005,-0.05555000156164169
1750561119094972700,4.27097265625,0.011687500402331352,0.10573749989271164,-0.08607500046491623
1750561119104577300,4.280577392578125,0.0006874999962747097,0.0789249986410141,-0.09459999948740005
1750561119114182000,4.290181884765625,-0.023787500336766243,0.07273750007152557,-0.09459999948740005
1750561119123786800,4.299786865234375,-0.040837500244379044,0.08002500236034393,-0.08236250281333923
1750561119133391600,4.3093916015625,-0.040837500244379044,0.0471624992787838,-0.053075000643730164
1750561119142996200,4.318996337890625,-0.02736249938607216,-0.02502499893307686,-0.009074999950826168
1750561119152600800,4.328600830078125,-0.009074999950826168,-0.09212499856948853,0.04468749836087227
1750561119162205400,4.338205322265625,0.008112499490380287,-0.11412499845027924,0.08016250282526016
1750561119171810300,4.347810302734375,0.014162499457597733,-0.09707500040531158,0.07768750190734863
1750561119181415000,4.357414794921875,0.0006874999962747097,-0.05555000156164169,0.03616249933838844
1750561119191019800,4.367019775390625,-0.023787500336766243,-0.009074999950826168,-0.03478749841451645
1750561119200624400,4.376624267578125,-0.03712499886751175,0.029975000768899918,-0.10064999759197235
1750561119210229000,4.38622900390625,-0.02983750030398369,0.05816249921917915,-0.14959999918937683
1750561119219833900,4.395833740234375,-0.007837500423192978,0.07026249915361404,-0.16664999723434448
1750561119229438500,4.4054384765625,0.018975000828504562,0.07026249915361404,-0.15565000474452972
1750561119239043300,4.415043212890625,0.04221250116825104,0.06421250104904175,-0.14231249690055847
1750561119248648000,4.42464794921875,0.05816249921917915,0.06916250288486481,-0.1373624950647354
1750561119258252500,4.43425244140625,0.05321250110864639,0.05197500064969063,-0.13488750159740448
1750561119267857200,4.443857177734375,0.015399999916553497,0.004399999976158142,-0.08855000138282776
1750561119277462000,4.4534619140625,-0.040837500244379044,-0.07878749817609787,0.025162499397993088
1750561119287067000,4.46306689453125,-0.09088750183582306,-0.2143625020980835,0.1742125004529953
1750561119296671500,4.47267138671875,-0.10917499661445618,-0.3499374985694885,0.3244999945163727
1750561119306276000,4.482276123046875,-0.10559999942779541,-0.47946250438690186,0.4661250114440918
1750561119315881000,4.491880859375,-0.10188750177621841,-0.5649874806404114,0.6641250252723694
1750561119325485600,4.501485595703125,-0.12388750165700912,-0.649275004863739,0.8998000025749207
1750561119335090200,4.511090087890625,-0.15193749964237213,-0.7665625214576721,1.2199000120162964
1750561119344695000,4.520695068359375,-0.1788875013589859,-0.8716124892234802,1.6207125186920166
1750561119354299600,4.530299560546875,-0.2143625020980835,-0.9473749995231628,1.999387502670288
1750561119363904500,4.539904541015625,-0.2008875012397766,-0.9668999910354614,2.323199987411499
1750561119373509400,4.54950927734375,-0.12759999930858612,-0.8753250241279602,2.5760624408721924
1750561119383114000,4.559114013671875,-0.035887498408555984,-0.6993250250816345,2.7556374073028564
1750561119392718600,4.568718505859375,0.05939999967813492,-0.3536500036716461,2.855875015258789
1750561119402323200,4.5783232421875,0.15826250612735748,0.009212499484419823,2.831399917602539
1750561119411928000,4.587927978515625,0.28654998540878296,0.34402498602867126,2.722637414932251
1750561119421532700,4.59753271484375,0.43326249718666077,0.5711749792098999,2.5700125694274902
1750561119431137300,4.60713720703125,0.5700749754905701,0.6421250104904175,2.3977251052856445
1750561119440742100,4.6167421875,0.679937481880188,0.6286500096321106,2.2302498817443848
1750561119450347000,4.626346923828125,0.7093625068664551,0.5858874917030334,2.0604374408721924
1750561119459951900,4.635951904296875,0.6824125051498413,0.5565999746322632,1.89433753490448
1750561119469556500,4.645556396484375,0.671412467956543,0.683650016784668,1.702525019645691
1750561119479161000,4.6551611328125,0.7251750230789185,0.8877000212669373,1.432474970817566
1750561119488765700,4.664765625,0.8387500047683716,1.0928499698638916,1.1026124954223633
1750561119498370600,4.67437060546875,0.9634624719619751,1.2603249549865723,0.7496500015258789
1750561119507975200,4.68397509765625,1.1027499437332153,1.3336124420166016,0.39531248807907104
1750561119517579800,4.693579833984375,1.2553750276565552,1.3421374559402466,0.015399999916553497
1750561119527184400,4.703184326171875,1.370187520980835,1.270087480545044,-0.40246251225471497
1750561119536789200,4.712789306640625,1.4154249429702759,1.1673749685287476,-0.8349000215530396
1750561119546394000,4.72239404296875,1.391087532043457,1.0440374612808228,-1.253999948501587
1750561119555999000,4.7319990234375,1.2969000339508057,0.9132750034332275,-1.6108125448226929
1750561119565603600,4.741603515625,1.1930874586105347,0.819225013256073,-1.8856749534606934
1750561119575208200,4.751208251953125,1.1357499361038208,0.7031750082969666,-2.1300125122070312
1750561119584813000,4.76081298828125,1.125849962234497,0.5589374899864197,-2.377924919128418
1750561119594417700,4.770417724609375,1.1650375127792358,0.35378751158714294,-2.630924940109253
1750561119604022300,4.780022216796875,1.1748000383377075,0.08621250092983246,-2.8960249423980713
1750561119613627100,4.789627197265625,1.1050875186920166,-0.1886499971151352,-3.1171250343322754
1750561119623231700,4.799231689453125,0.9744625091552734,-0.3694624900817871,-3.2624623775482178
1750561119632836400,4.80883642578125,0.7862250208854675,-0.40974998474121094,-3.355412483215332
1750561119642441000,4.81844091796875,0.5785999894142151,-0.3133625090122223,-3.4359874725341797
1750561119652045800,4.8280458984375,0.3806000053882599,-0.19236250221729279,-3.549562454223633
1750561119661650400,4.837650390625,0.2414499968290329,-0.13612499833106995,-3.6790874004364014
1750561119671255300,4.84725537109375,0.12292499840259552,-0.19841249287128448,-3.8476624488830566
1750561119680860200,4.856860107421875,-0.057887498289346695,-0.3609375059604645,-3.9564249515533447
1750561119690464800,4.86646484375,-0.26688748598098755,-0.5160375237464905,-3.82566237449646
1750561119700069400,4.8760693359375,-0.5710374712944031,-0.6175125241279602,-3.372462511062622
1750561119709674000,4.885674072265625,-0.9546625018119812,-0.5502749681472778,-2.552687406539917
1750561119719278800,4.89527880859375,-1.3113374710083008,-0.5112249851226807,-1.4946249723434448
1750561119728883500,4.904883544921875,-1.5300999879837036,-0.649275004863739,-0.39998748898506165
1750561119738488300,4.91448828125,-1.5691499710083008,-0.8338000178337097,0.4563624858856201
1750561119748093000,4.924093017578125,-1.5386250019073486,-0.850849986076355,0.9560375213623047
1750561119757697800,4.93369775390625,-1.5263874530792236,-0.5429875254631042,1.187037467956543
1750561119767302400,4.943302490234375,-1.4970999956130981,-0.15331250429153442,1.1930874586105347
1750561119776907300,4.9529072265625,-1.4250500202178955,0.10449999570846558,1.095324993133545
1750561119786512000,4.962511962890625,-1.3468124866485596,0.19249999523162842,1.0280874967575073
1750561119796116500,4.972116455078125,-1.345574975013733,0.20473749935626984,1.0892750024795532
1750561119805721000,4.98172119140625,-1.3530000448226929,0.3293125033378601,1.2883750200271606
1750561119815326000,4.991325927734375,-1.2845250368118286,0.3683624863624573,1.5046625137329102
1750561119824930800,5.000930908203125,-1.1684750318527222,0.35983750224113464,1.7355250120162964
1750561119834535200,5.01053515625,-1.013237476348877,0.4526500105857849,1.9541499614715576
1750561119844140000,5.02014013671875,-0.794612467288971,0.5468375086784363,2.0446250438690186
1750561119853744600,5.02974462890625,-0.5405125021934509,0.5016000270843506,1.9346250295639038
1750561119863349500,5.039349609375,-0.30098751187324524,0.34154999256134033,1.6560499668121338
1750561119872954400,5.048954345703125,-0.12264999747276306,0.15950000286102295,1.2969000339508057
1750561119882559200,5.058559326171875,-0.0518375001847744,0.13626250624656677,0.9512249827384949
1750561119892163600,5.06816357421875,-0.07631249725818634,0.3305499851703644,0.6946499943733215
1750561119901768400,5.0777685546875,-0.1288374960422516,0.5944125056266785,0.5724124908447266
1750561119911373000,5.087373046875,-0.10807500034570694,0.8094624876976013,0.6029375195503235
1750561119920977700,5.096977783203125,0.020212499424815178,0.8399875164031982,0.7117000222206116
1750561119930582500,5.10658251953125,0.20350000262260437,0.6554625034332275,0.7752249836921692
1750561119940187100,5.116187255859375,0.334262490272522,0.358599990606308,0.7117000222206116
1750561119949791700,5.125791748046875,0.31349998712539673,0.12278749793767929,0.534600019454956
1750561119959396900,5.13539697265625,0.196212500333786,0.010449999943375587,0.30483749508857727
1750561119969001500,5.14500146484375,0.06668750196695328,-0.020075000822544098,0.06297499686479568
1750561119978606000,5.154606201171875,0.008112499490380287,0.015399999916553497,-0.17036250233650208
1750561119988211000,5.1642109375,0.027637500315904617,0.03492499887943268,-0.3926999866962433
1750561119997815600,5.173815673828125,0.08016250282526016,0.07768750190734863,-0.5392749905586243
1750561120007420200,5.183420166015625,0.11550000309944153,0.2377374917268753,-0.566224992275238
1750561120017025000,5.19302490234375,0.14121249318122864,0.4465999901294708,-0.5112249851226807
1750561120026629600,5.202629638671875,0.15702499449253082,0.5248374938964844,-0.43174999952316284
1750561120036234200,5.212234130859375,0.15702499449253082,0.43312498927116394,-0.36822500824928284
1750561120045838800,5.2218388671875,0.12526249885559082,0.19126249849796295,-0.33041250705718994
1750561120055443700,5.231443603515625,0.05444999784231186,-0.10683749616146088,-0.29864999651908875
1750561120065048600,5.241048583984375,-0.03231250122189522,-0.3572250008583069,-0.24488750100135803
1750561120074653400,5.2506533203125,-0.09212499856948853,-0.46351251006126404,-0.16664999723434448
1750561120084258000,5.260258056640625,-0.1190750002861023,-0.41593748331069946,-0.089649997651577
1750561120093862700,5.269862548828125,-0.12636250257492065,-0.23388749361038208,-0.048124998807907104
1750561120103467500,5.279467529296875,-0.09336250275373459,-0.0030249999836087227,-0.06778749823570251
1750561120113072000,5.289072021484375,-0.03231250122189522,0.19126249849796295,-0.15331250429153442
1750561120122676700,5.2986767578125,0.043449997901916504,0.303600013256073,-0.2546499967575073
1750561120132281300,5.30828125,0.10339999943971634,0.32202500104904175,-0.30469998717308044
1750561120141886200,5.31788623046875,0.1289750039577484,0.2890250086784363,-0.28036248683929443
1750561120151490800,5.32749072265625,0.1143999993801117,0.19126249849796295,-0.21312500536441803
1750561120161095400,5.337095458984375,0.07273750007152557,0.03368749842047691,-0.15812499821186066
1750561120170700300,5.3467001953125,0.012924999929964542,-0.11288750171661377,-0.133650004863739
1750561120180305000,5.356304931640625,-0.06283749639987946,-0.18012499809265137,-0.13488750159740448
1750561120189909800,5.36590966796875,-0.1373624950647354,-0.14231249690055847,-0.14231249690055847
1750561120199514600,5.3755146484375,-0.16541250050067902,-0.06778749823570251,-0.14959999918937683
1750561120209119200,5.385119140625,-0.13612499833106995,-0.03231250122189522,-0.13859999179840088
1750561120218723800,5.394723876953125,-0.07136250287294388,-0.01759999990463257,-0.0775500014424324
1750561120228328400,5.404328369140625,-0.0028874999843537807,-0.020075000822544098,0.009212499484419823
1750561120237933300,5.413933349609375,0.05816249921917915,-0.02502499893307686,0.05926249921321869
1750561120247538000,5.423537841796875,0.09721250087022781,-0.03231250122189522,0.03973750025033951
1750561120257142500,5.433142578125,0.09721250087022781,-0.01759999990463257,-0.012787500396370888
1750561120266747400,5.442747314453125,0.05939999967813492,0.0019249999895691872,-0.07631249725818634
1750561120276352000,5.45235205078125,-0.006599999964237213,0.010449999943375587,-0.1251250058412552
1750561120285956900,5.461956787109375,-0.06531249731779099,0.009212499484419823,-0.1153625026345253
1750561120295561500,5.4715615234375,-0.09583749622106552,0.016499999910593033,-0.045787498354911804
1750561120305166300,5.481166259765625,-0.08841250091791153,0.007974999956786633,0.03492499887943268
1750561120314771000,5.49077099609375,-0.053075000643730164,-0.016362499445676804,0.0849749967455864
1750561120324375800,5.500375732421875,-0.004124999977648258,-0.04207500070333481,0.08249999582767487
1750561120333980400,5.50998046875,0.03368749842047691,-0.038362499326467514,0.04097500070929527
1750561120343585000,5.5195849609375,0.04468749836087227,-0.03355000168085098,-0.020075000822544098
1750561120353190000,5.52918994140625,0.03987500071525574,-0.021312499418854713,-0.06283749639987946
1750561120362794500,5.53879443359375,0.012924999929964542,-0.012787500396370888,-0.0798875018954277
1750561120372399000,5.548399169921875,-0.035887498408555984,-0.0017874999903142452,-0.0798875018954277
1750561120382004000,5.55800390625,-0.07136250287294388,-0.0042624999769032,-0.05912499874830246
1750561120391608600,5.567608642578125,-0.07012499868869781,-0.010312499478459358,-0.02736249938607216
1750561120401213400,5.57721337890625,-0.03464999794960022,-0.018837500363588333,-0.0030249999836087227
1750561120410818000,5.586818115234375,0.015399999916553497,-0.040837500244379044,0.010449999943375587
1750561120420423000,5.5964228515625,0.05197500064969063,-0.06531249731779099,0.018975000828504562
1750561120430027500,5.606027587890625,0.06792499870061874,-0.07136250287294388,0.03616249933838844
1750561120439632400,5.61563232421875,0.06421250104904175,-0.038362499326467514,0.04097500070929527
1750561120449237000,5.625237060546875,0.04097500070929527,0.0006874999962747097,0.012924999929964542
1750561120458841600,5.634841552734375,0.025162499397993088,0.05816249921917915,-0.021312499418854713
1750561120468446200,5.6444462890625,0.0031624999828636646,0.10326249897480011,-0.05431250110268593
1750561120478051000,5.654051025390625,-0.022549999877810478,0.1106875017285347,-0.06283749639987946
1750561120487656000,5.663656005859375,-0.038362499326467514,0.07150000333786011,-0.038362499326467514
1750561120497260500,5.673260498046875,-0.02736249938607216,0.0006874999962747097,0.020212499424815178
1750561120506865400,5.682865478515625,0.004399999976158142,-0.06778749823570251,0.09844999760389328
1750561120516470000,5.692469970703125,0.03616249933838844,-0.09831249713897705,0.15826250612735748
1750561120526074600,5.70207470703125,0.05692499876022339,-0.08483749628067017,0.16321249306201935
1750561120535679500,5.711679443359375,0.05816249921917915,-0.03231250122189522,0.11426249891519547
1750561120545284000,5.7212841796875,0.0471624992787838,0.031212499365210533,0.04097500070929527
1750561120554888700,5.730888671875,0.020212499424815178,0.08002500236034393,-0.02983750030398369
1750561120564493600,5.74049365234375,-0.021312499418854713,0.1387374997138977,-0.08855000138282776
1750561120574098200,5.75009814453125,-0.0518375001847744,0.15702499449253082,-0.1288374960422516
1750561120583702800,5.759702880859375,-0.060362499207258224,0.1264999955892563,-0.13859999179840088
1750561120593307400,5.769307373046875,-0.05431250110268593,0.05926249921321869,-0.11659999936819077
1750561120602912300,5.778912353515625,-0.035887498408555984,-0.023787500336766243,-0.06888750195503235
1750561120612517000,5.78851708984375,-0.01759999990463257,-0.053075000643730164,-0.007837500423192978
1750561120622121700,5.798121826171875,-0.007837500423192978,-0.022549999877810478,0.04221250116825104
1750561120631726600,5.8077265625,-0.004124999977648258,0.025162499397993088,0.043449997901916504
1750561120641331200,5.817331298828125,-0.009074999950826168,0.04221250116825104,-0.0017874999903142452
1750561120650935800,5.826935791015625,-0.006599999964237213,0.03616249933838844,-0.05678749829530716
1750561120660540700,5.836540771484375,-0.009074999950826168,0.018975000828504562,-0.09831249713897705
1750561120670145300,5.846145263671875,-0.012787500396370888,-0.010312499478459358,-0.10436250269412994
1750561120679750000,5.85575,-0.011549999937415123,-0.03712499886751175,-0.07383749634027481
1750561120689355000,5.86535498046875,-0.009074999950826168,-0.050599999725818634,-0.031075000762939453
1750561120698959400,5.87495947265625,-0.004124999977648258,-0.026262499392032623,-0.0030249999836087227
1750561120708564200,5.884564208984375,0.0019249999895691872,0.021449999883770943,0.007974999956786633
1750561120718169000,5.894169189453125,0.010449999943375587,0.04468749836087227,0.009212499484419823
1750561120727773700,5.903773681640625,0.011687500402331352,0.031212499365210533,0.010449999943375587
1750561120737378300,5.91337841796875,-0.009074999950826168,-0.01759999990463257,0.016637500375509262
1750561120746983200,5.922983154296875,-0.03355000168085098,-0.07259999960660934,0.018975000828504562
1750561120756587800,5.932587890625,-0.045649997889995575,-0.10807500034570694,0.014162499457597733
1750561120766192400,5.9421923828125,-0.04455000162124634,-0.10559999942779541,-0.0005499999970197678
1750561120775797200,5.95179736328125,-0.035887498408555984,-0.06778749823570251,-0.026124998927116394
1750561120785401900,5.96140185546875,-0.013887500390410423,-0.006599999964237213,-0.0518375001847744
1750561120795006700,5.9710068359375,0.006874999962747097,0.04592499881982803,-0.06159999966621399
1750561120804611600,5.980611572265625,0.011687500402331352,0.0812624990940094,-0.050599999725818634
1750561120814216000,5.9902158203125,0.006874999962747097,0.08373750001192093,-0.026124998927116394
1750561120823820800,5.99982080078125,-0.005362499970942736,0.06173750013113022,-0.011549999937415123
1750561120833425700,6.00942578125,-0.018837500363588333,-0.0005499999970197678,-0.015124999918043613
1750561120843030300,6.0190302734375,-0.03355000168085098,-0.0775500014424324,-0.02736249938607216
1750561120852635000,6.028634765625,-0.048124998807907104,-0.11055000126361847,-0.04455000162124634
1750561120862239500,6.038239501953125,-0.05431250110268593,-0.0798875018954277,-0.06283749639987946
1750561120871844400,6.04784423828125,-0.04331250116229057,-0.020075000822544098,-0.07631249725818634
1750561120881449000,6.057448974609375,-0.012787500396370888,0.026399999856948853,-0.07136250287294388
1750561120891053600,6.067053466796875,0.017875000834465027,0.04221250116825104,-0.04936249926686287
1750561120900658400,6.076658447265625,0.023924998939037323,0.05073750019073486,-0.02736249938607216
1750561120910263300,6.08626318359375,0.006874999962747097,0.06792499870061874,-0.02736249938607216
1750561120919868000,6.095867919921875,-0.02488750033080578,0.09350000321865082,-0.060362499207258224
1750561120929472800,6.10547265625,-0.053075000643730164,0.09597499668598175,-0.09955000132322311
1750561120939077400,6.115077392578125,-0.07136250287294388,0.05444999784231186,-0.1153625026345253
1750561120948682000,6.124681884765625,-0.06888750195503235,-0.020075000822544098,-0.09336250275373459
1750561120958286800,6.134286865234375,-0.04331250116229057,-0.09831249713897705,-0.03712499886751175
1750561120967891500,6.143891357421875,-0.016362499445676804,-0.1288374960422516,0.017737500369548798
1750561120977496300,6.153496337890625,-0.005362499970942736,-0.10807500034570694,0.05321250110864639
1750561120987101000,6.163100830078125,-0.006599999964237213,-0.026262499392032623,0.06792499870061874
1750561120996705500,6.17270556640625,-0.005362499970942736,0.06544999778270721,0.0471624992787838
1750561121006310100,6.18231005859375,0.010449999943375587,0.10944999754428864,-0.007837500423192978
1750561121015915000,6.1919150390625,0.027637500315904617,0.12168750166893005,-0.06655000150203705
1750561121025519900,6.201519775390625,0.03244999796152115,0.09968750178813934,-0.1214125007390976
1750561121035124700,6.211124755859375,0.020212499424815178,0.06297499686479568,-0.16307500004768372
1750561121044729300,6.220729248046875,0.0056374999694526196,0.04468749836087227,-0.17036250233650208
1750561121054334000,6.230333984375,-0.006599999964237213,0.043449997901916504,-0.16307500004768372
1750561121063938600,6.2399384765625,-0.010312499478459358,0.060499999672174454,-0.16541250050067902
1750561121073543400,6.24954345703125,-0.0005499999970197678,0.10449999570846558,-0.20212499797344208
1750561121083148000,6.25914794921875,0.016637500375509262,0.14726249873638153,-0.2681249976158142
1750561121092752600,6.268752685546875,0.04097500070929527,0.1704999953508377,-0.3218874931335449
1750561121102357200,6.278357177734375,0.05816249921917915,0.1765500009059906,-0.3328875005245209
1750561121111962000,6.287962158203125,0.043449997901916504,0.18754999339580536,-0.2998875081539154
1750561121121567000,6.29756689453125,0.014162499457597733,0.17778749763965607,-0.2827000021934509
1750561121131171600,6.307171630859375,-0.022549999877810478,0.1424500048160553,-0.3242250084877014
1750561121140776400,6.3167763671875,-0.045649997889995575,0.10092499852180481,-0.40741249918937683
1750561121150381000,6.326381103515625,-0.048124998807907104,0.06792499870061874,-0.4904625117778778
1750561121159986000,6.33598583984375,-0.053075000643730164,0.028737500309944153,-0.5429875254631042
1750561121169590500,6.345590576171875,-0.06283749639987946,-0.021312499418854713,-0.5600374937057495
1750561121179195100,6.355195068359375,-0.07507500052452087,-0.11659999936819077,-0.5282750129699707
1750561121188800000,6.364800048828125,-0.08841250091791153,-0.22893749177455902,-0.4452250003814697
1750561121198404600,6.374404541015625,-0.15565000474452972,-0.3474625051021576,-0.37070000171661377
1750561121208009200,6.38400927734375,-0.31088748574256897,-0.39998748898506165,-0.2924624979496002
1750561121217614000,6.393614013671875,-0.4525125026702881,-0.4464625120162964,-0.18617500364780426
1750561121227219000,6.403218994140625,-0.5295125246047974,-0.5429875254631042,-0.06888750195503235
1750561121236823600,6.412823486328125,-0.5332249999046326,-0.6725124716758728,0.09226249903440475
1750561121246428200,6.42242822265625,-0.47079998254776,-0.8130375146865845,0.3110249936580658
1750561121256032800,6.43203271484375,-0.3817000091075897,-0.9204249978065491,0.5931749939918518
1750561121265637600,6.4416376953125,-0.2974124848842621,-0.9534249901771545,0.9255124926567078
1750561121275242200,6.4512421875,-0.2704625129699707,-0.9436625242233276,1.2553750276565552
1750561121284847000,6.46084716796875,-0.3279374837875366,-0.8313249945640564,1.6047624349594116
1750561121294451700,6.47045166015625,-0.4464625120162964,-0.7445625066757202,1.952912449836731
1750561121304056300,6.480056396484375,-0.549037516117096,-0.693274974822998,2.3792998790740967
1750561121313661200,6.4896611328125,-0.5698000192642212,-0.5747500061988831,2.8399250507354736
1750561121323265800,6.499265869140625,-0.5575624704360962,-0.4879874885082245,3.249262571334839
1750561121332870400,6.508870361328125,-0.46598750352859497,-0.19359999895095825,3.619412422180176
1750561121342475300,6.518475341796875,-0.2461249977350235,0.07644999772310257,3.8087499141693115
1750561121352080100,6.528080078125,0.03863750025629997,0.13378749787807465,3.7842750549316406
1750561121361684700,6.537684814453125,0.3293125033378601,0.19002500176429749,3.679224967956543
1750561121371289300,6.547289306640625,0.5248374938964844,0.18521249294281006,3.5338873863220215
1750561121380894000,6.55689404296875,0.5713124871253967,0.2022625058889389,3.381124973297119
1750561121390498800,6.566498779296875,0.5578374862670898,0.30483749508857727,3.202787399291992
1750561121400103400,6.576103515625,0.5370749831199646,0.4503124952316284,2.93892502784729
1750561121409708300,6.585708251953125,0.5553625226020813,0.7104625105857849,2.5638248920440674
1750561121419313000,6.59531298828125,0.6201249957084656,1.0648000240325928,2.082437515258789
1750561121428917800,6.604917724609375,0.7264124751091003,1.4349499940872192,1.536424994468689
1750561121438522400,6.6145224609375,0.8485124707221985,1.653712511062622,0.9316999912261963
1750561121448127000,6.624126953125,0.9230374693870544,1.6927624940872192,0.3207874894142151
1750561121457731800,6.63373193359375,0.9682750105857849,1.670762538909912,-0.21917499601840973
1750561121467336700,6.643336669921875,1.042799949645996,1.5974749326705933,-0.7066124677658081
1750561121476941300,6.65294140625,1.1588499546051025,1.4862375259399414,-1.174662470817566
1750561121486546000,6.6625458984375,1.2945624589920044,1.423949956893921,-1.658387541770935
1750561121496150500,6.672150634765625,1.4301375150680542,1.395900011062622,-2.1543500423431396
1750561121505755400,6.68175537109375,1.5681874752044678,1.3421374559402466,-2.6284499168395996
1750561121515360000,6.691360107421875,1.711050033569336,1.2418999671936035,-3.054837465286255
1750561121524964600,6.700964599609375,1.802762508392334,1.1563750505447388,-3.443274974822998
1750561121534569700,6.71056982421875,1.7184749841690063,1.0782749652862549,-3.8013250827789307
1750561121544174300,6.72017431640625,1.4924249649047852,0.9157499670982361,-4.109187602996826
1750561121553779000,6.729779052734375,1.2150875329971313,0.5846499800682068,-4.412099838256836
1750561121563383800,6.7393837890625,0.9059875011444092,0.07644999772310257,-4.715149879455566
1750561121572988400,6.748988525390625,0.5883625149726868,-0.5515124797821045,-4.8287248611450195
1750561121582593000,6.758593017578125,0.30002498626708984,-1.1684750318527222,-4.49762487411499
1750561121592198000,6.768197998046875,0.05321250110864639,-1.5741000175476074,-3.6986124515533447
1750561121601802500,6.777802490234375,-0.2204124927520752,-1.7524374723434448,-2.684687376022339
1750561121611407000,6.787406982421875,-0.5002250075340271,-1.7096749544143677,-1.769624948501587
1750561121621012000,6.797011962890625,-0.8006625175476074,-1.4323375225067139,-1.1501874923706055
1750561121630616600,6.806616455078125,-1.1819499731063843,-0.9571374654769897,-0.8458999991416931
1750561121640221400,6.816221435546875,-1.4702874422073364,-0.3951750099658966,-0.7310875058174133
1750561121649826000,6.825825927734375,-1.5826250314712524,-0.0030249999836087227,-0.693274974822998
1750561121659431000,6.835430908203125,-1.6278624534606934,0.3244999945163727,-0.6015625
1750561121669035500,6.845035400390625,-1.6901500225067139,0.5919374823570251,-0.4232249855995178
1750561121678640000,6.85464013671875,-1.7256250381469727,0.7386500239372253,-0.1751749962568283
1750561121688245000,6.864244873046875,-1.6828625202178955,0.7154124975204468,0.14368750154972076
1750561121697849600,6.873849609375,-1.6411999464035034,0.6664624810218811,0.4954124987125397
1750561121707454200,6.8834541015625,-1.6083375215530396,0.6958875060081482,0.7972249984741211
1750561121717059000,6.89305908203125,-1.4983375072479248,0.6689375042915344,0.9743250012397766
1750561121726663700,6.90266357421875,-1.317525029182434,0.43312498927116394,1.029325008392334
1750561121736268500,6.9122685546875,-1.1232374906539917,0.04097500070929527,0.993987500667572
1750561121745873200,6.921873046875,-0.9607124924659729,-0.3548874855041504,0.9365124702453613
1750561121755477800,6.931477783203125,-0.8861874938011169,-0.5587999820709229,0.9120374917984009
1750561121765082600,6.94108251953125,-0.9094250202178955,-0.3596999943256378,0.9622250199317932
1750561121774687500,6.9506875,-0.9229000210762024,0.021449999883770943,1.0195624828338623
1750561121784292000,6.9602919921875,-0.8336625099182129,0.30002498626708984,1.0220375061035156
1750561121793896700,6.969896728515625,-0.5917999744415283,0.3647874891757965,0.9915124773979187
1750561121803501600,6.97950146484375,-0.30469998717308044,0.21449999511241913,0.890037477016449
1750561121813106200,6.989106201171875,-0.09583749622106552,-0.005362499970942736,0.6971250176429749
1750561121822710800,6.998710693359375,-0.010312499478459358,-0.12636250257492065,0.44536250829696655
1750561121832315400,7.0083154296875,-0.026124998927116394,-0.0798875018954277,0.18150000274181366
1750561121841920300,7.017920166015625,-0.08841250091791153,0.020212499424815178,-0.07631249725818634
1750561121851525000,7.027525146484375,-0.17159999907016754,0.11550000309944153,-0.2876499891281128
1750561121861130000,7.0371298828125,-0.21188749372959137,0.2217874974012375,-0.3877499997615814
1750561121870734600,7.046734619140625,-0.19359999895095825,0.3012624979019165,-0.37564998865127563
1750561121880339200,7.056339111328125,-0.10188750177621841,0.3708375096321106,-0.26688748598098755
1750561121889944000,7.065944091796875,0.009212499484419823,0.3867875039577484,-0.1508374959230423
1750561121899548700,7.075548583984375,0.0849749967455864,0.334262490272522,-0.07878749817609787
1750561121909153300,7.0851533203125,0.116737499833107,0.196212500333786,-0.06655000150203705
1750561121918758000,7.0947578125,0.08373750001192093,0.007974999956786633,-0.10559999942779541
1750561121928362500,7.104362548828125,0.020212499424815178,-0.1434125006198883,-0.1373624950647354
1750561121937967600,7.113967529296875,-0.01759999990463257,-0.27541249990463257,-0.12636250257492065
1750561121947572200,7.123572265625,-0.0017874999903142452,-0.34017500281333923,-0.04936249926686287
1750561121957176800,7.1331767578125,0.03739999979734421,-0.27665001153945923,0.07150000333786011
1750561121966781400,7.142781494140625,0.06668750196695328,-0.08112499862909317,0.15826250612735748
1750561121976386300,7.15238623046875,0.08744999766349792,0.12402500212192535,0.13997499644756317
1750561121985991000,7.161990966796875,0.09597499668598175,0.259737491607666,0.03973750025033951
1750561121995595800,7.171595703125,0.09721250087022781,0.30855000019073486,-0.06159999966621399
1750561122005200400,7.181200439453125,0.08139999955892563,0.26826250553131104,-0.1153625026345253
1750561122014805200,7.19080517578125,0.05321250110864639,0.16802500188350677,-0.1116499975323677
1750561122024409900,7.200409912109375,0.016637500375509262,0.026399999856948853,-0.07259999960660934
1750561122034014500,7.210014404296875,-0.020075000822544098,-0.05678749829530716,-0.014024999924004078
1750561122043619300,7.219619384765625,-0.040837500244379044,-0.04331250116229057,0.025162499397993088
1750561122053224000,7.229223876953125,-0.03231250122189522,-0.007837500423192978,0.023924998939037323
1750561122062828800,7.238828857421875,-0.005362499970942736,0.05926249921321869,0.0056374999694526196
1750561122072433400,7.248433349609375,0.021449999883770943,0.148499995470047,-0.022549999877810478
1750561122082038000,7.2580380859375,0.03492499887943268,0.1802625060081482,-0.045787498354911804
1750561122091643000,7.267642822265625,0.03368749842047691,0.1667875051498413,-0.04207500070333481
1750561122101247500,7.27724755859375,0.020212499424815178,0.09597499668598175,-0.023787500336766243
1750561122110852000,7.28685205078125,0.008112499490380287,-0.040837500244379044,0.006737499963492155
1750561122120457000,7.29645703125,-0.010312499478459358,-0.14464999735355377,0.03739999979734421
1750561122130061600,7.3060615234375,-0.028599999845027924,-0.15812499821186066,0.03244999796152115
1750561122139666400,7.31566650390625,-0.02983750030398369,-0.09212499856948853,-0.020075000822544098
1750561122149271000,7.32527099609375,-0.015124999918043613,-0.010312499478459358,-0.10436250269412994
1750561122158876000,7.3348759765625,0.008112499490380287,0.06297499686479568,-0.18012499809265137
1750561122168480500,7.34448046875,0.03368749842047691,0.09226249903440475,-0.21683749556541443
1750561122178085400,7.35408544921875,0.05692499876022339,0.1264999955892563,-0.18507499992847443
1750561122187689700,7.363689697265625,0.07273750007152557,0.15826250612735748,-0.10807500034570694
1750561122197294600,7.373294677734375,0.07273750007152557,0.15950000286102295,-0.021312499418854713
1750561122206899500,7.3828994140625,0.05816249921917915,0.11426249891519547,0.04097500070929527
1750561122216504000,7.392504150390625,0.03244999796152115,0.015399999916553497,0.05444999784231186
1750561122226108700,7.402108642578125,0.006874999962747097,-0.0835999995470047,0.04097500070929527
1750561122235713500,7.411713623046875,-0.01759999990463257,-0.17036250233650208,0.023924998939037323
1750561122245318100,7.421318115234375,-0.026124998927116394,-0.21312500536441803,0.023924998939037323
1750561122254923000,7.430923095703125,-0.021312499418854713,-0.17531250417232513,0.031212499365210533
1750561122264527600,7.440527587890625,-0.012787500396370888,-0.08978749811649323,0.020212499424815178
1750561122274132200,7.45013232421875,-0.011549999937415123,0.0471624992787838,-0.0030249999836087227
1750561122283737300,7.4597373046875,-0.0028874999843537807,0.17778749763965607,-0.040837500244379044
1750561122293342000,7.469342041015625,0.015399999916553497,0.2217874974012375,-0.07878749817609787
1750561122302946600,7.478946533203125,0.03368749842047691,0.16321249306201935,-0.08855000138282776
1750561122312551200,7.48855126953125,0.029975000768899918,0.028737500309944153,-0.07136250287294388
1750561122322155800,7.49815576171875,0.017875000834465027,-0.1251250058412552,-0.021312499418854713
1750561122331760600,7.5077607421875,0.004399999976158142,-0.2326499968767166,0.03849999979138374
1750561122341365200,7.517365234375,-0.004124999977648258,-0.2363625019788742,0.08744999766349792
1750561122350969900,7.526969970703125,-0.0028874999843537807,-0.133650004863739,0.09968750178813934
1750561122360574700,7.53657470703125,0.004399999976158142,0.015399999916553497,0.07273750007152557
1750561122370179300,7.546179443359375,0.014162499457597733,0.11302500218153,0.007974999956786633
1750561122379784200,7.5557841796875,0.018975000828504562,0.14726249873638153,-0.060362499207258224
1750561122389389000,7.56538916015625,-0.004124999977648258,0.15826250612735748,-0.10188750177621841
1750561122398993700,7.57499365234375,-0.04455000162124634,0.10944999754428864,-0.1093124970793724
1750561122408598300,7.584598388671875,-0.06764999777078629,0.026399999856948853,-0.07878749817609787
1750561122418203100,7.594203125,-0.05912499874830246,-0.06778749823570251,-0.018837500363588333
1750561122427807700,7.603807861328125,-0.03231250122189522,-0.12388750165700912,0.043449997901916504
1750561122437412400,7.613412353515625,0.0031624999828636646,-0.12031249701976776,0.07768750190734863
1750561122447017000,7.623016845703125,0.03492499887943268,-0.045787498354911804,0.07397499680519104
1750561122456621800,7.632621826171875,0.04097500070929527,0.06173750013113022,0.03492499887943268
1750561122466226700,7.642226806640625,0.015399999916553497,0.16073749959468842,-0.023787500336766243
1750561122475831300,7.651831298828125,-0.013887500390410423,0.196212500333786,-0.07631249725818634
1750561122485436200,7.661436279296875,-0.026124998927116394,0.15578749775886536,-0.0873124971985817
1750561122495040800,7.671040771484375,-0.028599999845027924,0.0789249986410141,-0.048124998807907104
1750561122504645600,7.680645751953125,-0.038362499326467514,-0.006599999964237213,-0.0005499999970197678
1750561122514250000,7.69025,-0.040837500244379044,-0.0798875018954277,0.023924998939037323
1750561122523854800,7.699854736328125,-0.035887498408555984,-0.10559999942779541,0.015399999916553497
1750561122533459500,7.70945947265625,-0.031075000762939453,-0.08978749811649323,-0.012787500396370888
1750561122543064000,7.71906396484375,-0.018837500363588333,-0.04207500070333481,-0.02502499893307686
1750561122552669000,7.7286689453125,0.004399999976158142,0.0006874999962747097,0.0019249999895691872
1750561122562273500,7.7382734375,0.026399999856948853,0.025162499397993088,0.05816249921917915
1750561122571878400,7.74787841796875,0.031212499365210533,0.022687500342726707,0.09844999760389328
1750561122581483000,7.75748291015625,0.023924998939037323,0.023924998939037323,0.09350000321865082
1750561122591087900,7.767087890625,0.011687500402331352,0.025162499397993088,0.03739999979734421
1750561122600692700,7.776692626953125,-0.004124999977648258,0.028737500309944153,-0.048124998807907104
1750561122610297300,7.78629736328125,-0.022549999877810478,0.03244999796152115,-0.12636250257492065
1750561122619902000,7.79590185546875,-0.035887498408555984,0.03492499887943268,-0.15565000474452972
1750561122629506600,7.805506591796875,-0.035887498408555984,0.027499999850988388,-0.13241249322891235
1750561122639111400,7.815111328125,-0.028599999845027924,0.017737500369548798,-0.07878749817609787
1750561122648716000,7.824716064453125,-0.021312499418854713,0.018975000828504562,-0.022549999877810478
1750561122658320600,7.834320556640625,-0.005362499970942736,0.03973750025033951,0.011687500402331352
1750561122667925200,7.84392529296875,0.018975000828504562,0.05816249921917915,0.012924999929964542
1750561122677530000,7.853530029296875,0.031212499365210533,0.055687498301267624,-0.020075000822544098
1750561122687135000,7.863135009765625,0.017875000834465027,0.05926249921321869,-0.06655000150203705
1750561122696739600,7.872739501953125,-0.016362499445676804,0.029975000768899918,-0.1093124970793724
1750561122706344400,7.882344482421875,-0.053075000643730164,-0.018837500363588333,-0.12264999747276306
1750561122715949000,7.891948974609375,-0.07259999960660934,-0.060362499207258224,-0.09088750183582306
1750561122725553700,7.9015537109375,-0.07259999960660934,-0.058024998754262924,-0.036024998873472214
1750561122735158500,7.911158447265625,-0.053075000643730164,-0.012787500396370888,0.0006874999962747097
1750561122744763100,7.92076318359375,-0.031075000762939453,0.04097500070929527,-0.0030249999836087227
1750561122754367700,7.93036767578125,-0.010312499478459358,0.08992499858140945,-0.03231250122189522
1750561122763972600,7.93997265625,0.004399999976158142,0.09597499668598175,-0.07383749634027481
1750561122773577200,7.9495771484375,0.015399999916553497,0.048262499272823334,-0.09583749622106552
1750561122783182000,7.95918212890625,0.008112499490380287,-0.02983750030398369,-0.08236250281333923
1750561122792786700,7.96878662109375,-0.009074999950826168,-0.08483749628067017,-0.03478749841451645
1750561122802391600,7.9783916015625,-0.02736249938607216,-0.10312499850988388,0.018975000828504562
1750561122811996200,7.98799609375,-0.04331250116229057,-0.09459999948740005,0.043449997901916504
1750561122821601000,7.99760107421875,-0.04455000162124634,-0.06778749823570251,0.03244999796152115
1750561122831205600,8.00720556640625,-0.035887498408555984,-0.03355000168085098,-0.0005499999970197678
1750561122840810200,8.016810302734376,-0.022549999877810478,-0.006599999964237213,-0.028599999845027924
1750561122850414800,8.026414794921875,-0.007837500423192978,0.005499999970197678,-0.038362499326467514
1750561122860019700,8.036019775390624,-0.0017874999903142452,0.006737499963492155,-0.03959999978542328
1750561122869624300,8.045624267578125,-0.004124999977648258,0.006737499963492155,-0.03478749841451645
1750561122879229200,8.055229248046874,-0.005362499970942736,-0.0017874999903142452,-0.03231250122189522
1750561122888834000,8.064833984375,-0.006599999964237213,0.004399999976158142,-0.03231250122189522
1750561122898438700,8.074438720703125,-0.006599999964237213,0.017737500369548798,-0.040837500244379044
1750561122908043300,8.084043212890625,-0.0028874999843537807,0.014162499457597733,-0.05431250110268593
1750561122917648000,8.09364794921875,0.0031624999828636646,-0.012787500396370888,-0.057887498289346695
1750561122927252700,8.103252685546876,0.010449999943375587,-0.04702499881386757,-0.040837500244379044
1750561122936857300,8.112857421875,0.012924999929964542,-0.0775500014424324,0.0019249999895691872
1750561122946462000,8.1224619140625,0.008112499490380287,-0.0798875018954277,0.04592499881982803
1750561122956066800,8.13206689453125,-0.004124999977648258,-0.0518375001847744,0.05692499876022339
1750561122965671700,8.141671630859374,-0.015124999918043613,-0.007837500423192978,0.023924998939037323
1750561122975276500,8.151276611328125,-0.022549999877810478,0.029975000768899918,-0.03231250122189522
1750561122984881200,8.160881103515624,-0.02488750033080578,0.04097500070929527,-0.0835999995470047
1750561122994485800,8.17048583984375,-0.018837500363588333,0.0494999997317791,-0.11659999936819077
1750561123004090400,8.18009033203125,-0.018837500363588333,0.017737500369548798,-0.13612499833106995
1750561123013695200,8.1896953125,-0.01759999990463257,-0.028599999845027924,-0.12388750165700912
1750561123023299800,8.1992998046875,-0.012787500396370888,-0.08236250281333923,-0.0835999995470047
1750561123032904700,8.20890478515625,-0.0028874999843537807,-0.09583749622106552,-0.012787500396370888
1750561123042509300,8.21850927734375,0.0056374999694526196,-0.07631249725818634,0.043449997901916504
1750561123052114200,8.2281142578125,0.009212499484419823,-0.014024999924004078,0.055687498301267624
1750561123061718800,8.23771875,-0.004124999977648258,0.060499999672174454,0.007974999956786633
1750561123071323600,8.24732373046875,-0.02488750033080578,0.11550000309944153,-0.07631249725818634
1750561123080928300,8.25692822265625,-0.048124998807907104,0.13144999742507935,-0.14959999918937683
1750561123090532900,8.266532958984374,-0.060362499207258224,0.08992499858140945,-0.16417500376701355
1750561123100137500,8.276137451171875,-0.0518375001847744,0.005499999970197678,-0.1153625026345253
1750561123109742300,8.285742431640625,-0.028599999845027924,-0.07383749634027481,-0.03478749841451645
1750561123119347200,8.29534716796875,-0.012787500396370888,-0.09212499856948853,0.031212499365210533
1750561123128951800,8.304951904296875,-0.012787500396370888,-0.048124998807907104,0.05444999784231186
1750561123138556700,8.314556640625,-0.011549999937415123,0.017737500369548798,0.03849999979138374
1750561123148161300,8.324161376953125,-0.004124999977648258,0.05692499876022339,-0.009074999950826168
1750561123157766100,8.33376611328125,0.0019249999895691872,0.07273750007152557,-0.05912499874830246
1750561123167370500,8.34337060546875,0.0006874999962747097,0.08992499858140945,-0.10559999942779541
1750561123176975400,8.352975341796874,-0.011549999937415123,0.08249999582767487,-0.15441249310970306
1750561123186580000,8.362580078125,-0.02488750033080578,0.06421250104904175,-0.19112500548362732
1750561123196184600,8.3721845703125,-0.03355000168085098,0.06421250104904175,-0.21917499601840973
1750561123205789400,8.38178955078125,-0.03355000168085098,0.07397499680519104,-0.2644124925136566
1750561123215394000,8.39139404296875,-0.011549999937415123,0.06421250104904175,-0.3059374988079071
1750561123224998700,8.40099853515625,0.03244999796152115,0.028737500309944153,-0.3059374988079071
1750561123234603500,8.410603515625,0.08016250282526016,-0.031075000762939453,-0.271699994802475
1750561123244208400,8.42020849609375,0.10821250081062317,-0.10078749805688858,-0.25341248512268066
1750561123253813200,8.429813232421875,0.09968750178813934,-0.16307500004768372,-0.2961750030517578
1750561123263417900,8.43941796875,0.05692499876022339,-0.2241249978542328,-0.3877499997615814
1750561123273022500,8.4490224609375,-0.012787500396370888,-0.2681249976158142,-0.5014625191688538
1750561123282627000,8.458626953125,-0.07631249725818634,-0.31088748574256897,-0.6162750124931335
1750561123292232000,8.46823193359375,-0.10917499661445618,-0.3866499960422516,-0.7250375151634216
1750561123301836500,8.47783642578125,-0.10917499661445618,-0.505174994468689,-0.8007999658584595
1750561123311441200,8.487441162109375,-0.09336250275373459,-0.6150375008583069,-0.7592750191688538
1750561123321046000,8.4970458984375,-0.19593749940395355,-0.5637499690055847,-0.5502749681472778
1750561123330650600,8.506650634765625,-0.37798750400543213,-0.4427500069141388,-0.21312500536441803
1750561123340255200,8.516255126953125,-0.5429875254631042,-0.40974998474121094,0.17778749763965607
1750561123349859800,8.52585986328125,-0.6467999815940857,-0.4404124915599823,0.600600004196167
1750561123359464700,8.535464599609375,-0.7420874834060669,-0.566224992275238,1.0928499698638916
1750561123369069300,8.5450693359375,-0.8300874829292297,-0.513700008392334,1.728237509727478
1750561123378674000,8.554673828125,-0.8215624690055847,-0.4086500108242035,2.4160125255584717
1750561123388279000,8.564279052734374,-0.7188500165939331,-0.5478000044822693,3.047687530517578
1750561123397883400,8.57388330078125,-0.5600374937057495,-0.7653250098228455,3.620650053024292
1750561123407488300,8.58348828125,-0.39393749833106995,-0.9303249716758728,4.080037593841553
1750561123417092600,8.593092529296875,-0.2461249977350235,-0.7225624918937683,4.4074249267578125
1750561123426697500,8.602697509765624,-0.10683749616146088,-0.2839374840259552,4.539287567138672
1750561123436302300,8.61230224609375,0.1069749966263771,0.12526249885559082,4.495424747467041
1750561123445907000,8.621906982421875,0.4258374869823456,0.544362485408783,4.359712600708008
1750561123455511800,8.63151171875,0.7251750230789185,0.7336999773979187,4.126375198364258
1750561123465116400,8.641116455078125,0.9219374656677246,0.871749997138977,3.7904624938964844
1750561123474721300,8.65072119140625,0.9757000207901001,1.033037543296814,3.2320749759674072
1750561123484326000,8.660325927734375,0.9132750034332275,1.029325008392334,2.4855875968933105
1750561123493930500,8.669930419921876,0.780174970626831,0.9597499966621399,1.7612375020980835
1750561123503535400,8.679535400390625,0.6518874764442444,0.8877000212669373,1.1748000383377075
1750561123513139700,8.6891396484375,0.656837522983551,0.9230374693870544,0.7434625029563904
1750561123522744600,8.69874462890625,0.8351749777793884,1.1320375204086304,0.3525499999523163
1750561123532349200,8.70834912109375,1.0892750024795532,1.3641375303268433,-0.057887498289346695
1750561123541954300,8.717954345703125,1.3934249877929688,1.6670500040054321,-0.3987500071525574
1750561123551559000,8.727558837890625,1.7307125329971313,1.9639124870300293,-0.6663249731063843
1750561123561163500,8.73716357421875,2.093437433242798,2.134962558746338,-0.903374969959259
1750561123570768100,8.74676806640625,2.461250066757202,2.1216249465942383,-1.1477124691009521
1750561123580373000,8.756373046875,2.7202999591827393,1.9065749645233154,-1.4140499830245972
1750561123589977600,8.7659775390625,2.8411624431610107,1.5217125415802002,-1.6693874597549438
1750561123599582200,8.775582275390626,2.7495875358581543,0.9767999649047852,-1.9271999597549438
1750561123609187000,8.78518701171875,2.435537576675415,0.414837509393692,-2.17511248588562
1750561123618791700,8.794791748046874,2.0153374671936035,0.0471624992787838,-2.4366374015808105
1750561123628396500,8.804396484375,1.5754749774932861,-0.133650004863739,-2.821500062942505
1750561123638001400,8.81400146484375,1.2493250370025635,-0.1825999915599823,-3.330937385559082
1750561123647606000,8.82360595703125,1.108799934387207,-0.16060000658035278,-3.862375020980835
1750561123657210600,8.833210693359375,1.0697499513626099,-0.16183750331401825,-4.376762390136719
1750561123666815200,8.842815185546876,1.046512484550476,-0.24488750100135803,-4.795724868774414
1750561123676420000,8.852420166015625,0.8376500010490417,-0.37070000171661377,-5.07553768157959
1750561123686024700,8.862024658203126,0.27678748965263367,-0.4452250003814697,-5.234350204467773
1750561123695629600,8.871629638671875,-0.48551249504089355,-0.5637499690055847,-5.242875099182129
1750561123705234200,8.881234130859376,-1.1354750394821167,-0.8080874681472778,-5.016825199127197
1750561123714838800,8.8908388671875,-1.571624994277954,-1.0817124843597412,-4.465862274169922
1750561123724443400,8.900443359375,-1.8501999378204346,-1.288237452507019,-3.5972750186920166
1750561123734048300,8.91004833984375,-2.0565874576568604,-1.3432375192642212,-2.5551624298095703
1750561123743653000,8.919653076171874,-2.2448248863220215,-1.1037124395370483,-1.5508625507354736
1750561123753257700,8.9292578125,-2.3828749656677246,-0.7225624918937683,-0.7335624694824219
1750561123762862300,8.9388623046875,-2.336400032043457,-0.4404124915599823,-0.09212499856948853
1750561123772467200,8.94846728515625,-2.114062547683716,-0.3451249897480011,0.489362508058548
1750561123782071800,8.95807177734375,-1.8965375423431396,-0.12759999930858612,1.0257500410079956
1750561123791676400,8.967676513671876,-1.6889125108718872,0.2853125035762787,1.34089994430542
1750561123801281300,8.97728125,-1.4311000108718872,0.6738874912261963,1.3226125240325928
1750561123810886000,8.986885986328126,-1.191712498664856,1.017087459564209,1.0806125402450562
1750561123820490500,8.996490478515625,-1.0951875448226929,1.461899995803833,0.802174985408783
1750561123830095000,9.00609521484375,-1.1012375354766846,1.785575032234192,0.5809375047683716
1750561123839700200,9.0157001953125,-1.1391874551773071,1.6952375173568726,0.48083749413490295
1750561123849304800,9.025304931640624,-1.191712498664856,1.2590874433517456,0.5468375086784363
1750561123858909700,9.03490966796875,-1.222237467765808,0.5785999894142151,0.7826499938964844
1750561123868514300,9.044514404296875,-1.2735249996185303,-0.10559999942779541,1.1600874662399292
1750561123878119000,9.054118896484376,-1.3065249919891357,-0.4404124915599823,1.5717624425888062
1750561123887723500,9.0637236328125,-1.2332375049591064,-0.4489375054836273,1.799049973487854
1750561123897328400,9.073328369140626,-1.016950011253357,-0.22165000438690186,1.7538124322891235
1750561123906933000,9.08293310546875,-0.7103250026702881,0.0849749967455864,1.4606624841690063
1750561123916537600,9.09253759765625,-0.4171749949455261,0.3170749843120575,1.0415624380111694
1750561123926142500,9.102142578125,-0.22288750112056732,0.5028374791145325,0.6494125127792358
1750561123935747300,9.111747314453124,-0.16664999723434448,0.6151750087738037,0.3525499999523163
1750561123945352000,9.12135205078125,-0.21546250581741333,0.6371750235557556,0.18273749947547913
1750561123954956800,9.130956787109374,-0.3022249937057495,0.5491750240325928,0.11550000309944153
1750561123964561400,9.1405615234375,-0.38651248812675476,0.3647874891757965,0.10202500224113464
1750561123974166000,9.150166015625,-0.40617498755455017,0.17544999718666077,0.13750000298023224
1750561123983771000,9.15977099609375,-0.33041250705718994,0.03726249933242798,0.2059749960899353
1750561123993375500,9.16937548828125,-0.2143625020980835,-0.04936249926686287,0.2853125035762787
1750561124002980000,9.17897998046875,-0.0835999995470047,-0.1153625026345253,0.342787504196167
1750561124012584700,9.188584716796875,0.03863750025629997,-0.16183750331401825,0.33550000190734863
1750561124022189600,9.198189453125,0.09597499668598175,-0.13983750343322754,0.2217874974012375
1750561124031794400,9.20779443359375,0.08868750184774399,-0.012787500396370888,0.026399999856948853
1750561124041399000,9.21739892578125,0.06421250104904175,0.15578749775886536,-0.1886499971151352
1750561124051003600,9.227003662109375,0.03987500071525574,0.30483749508857727,-0.3536500036716461
1750561124060608500,9.2366083984375,0.023924998939037323,0.38554999232292175,-0.39393749833106995
1750561124070213000,9.246213134765625,-0.0017874999903142452,0.367125004529953,-0.30717501044273376
1750561124079817700,9.255817626953124,-0.013887500390410423,0.27073749899864197,-0.1251250058412552
1750561124089422600,9.265422607421876,-0.007837500423192978,0.10821250081062317,0.08621250092983246
1750561124099027200,9.275027099609375,0.011687500402331352,-0.07631249725818634,0.25107499957084656
1750561124108631800,9.2846318359375,0.04592499881982803,-0.2143625020980835,0.30855000019073486
1750561124118236700,9.294236572265625,0.08016250282526016,-0.25093749165534973,0.2340250015258789
1750561124127841300,9.30384130859375,0.09968750178813934,-0.21188749372959137,0.07150000333786011
1750561124137446100,9.313446044921875,0.08992499858140945,-0.060362499207258224,-0.08483749628067017
1750561124147050800,9.32305078125,0.0471624992787838,0.19249999523162842,-0.18988749384880066
1750561124156655400,9.3326552734375,0.012924999929964542,0.3830749988555908,-0.24117499589920044
1750561124166260000,9.342260009765624,0.026399999856948853,0.4185499846935272,-0.24117499589920044
1750561124175864800,9.35186474609375,0.07644999772310257,0.3110249936580658,-0.19359999895095825
1750561124185469700,9.3614697265625,0.12416250258684158,0.1326874941587448,-0.11055000126361847
1750561124195074300,9.37107421875,0.1326874941587448,-0.053075000643730164,-0.014024999924004078
1750561124204679000,9.380678955078125,0.09968750178813934,-0.18741250038146973,0.06792499870061874
1750561124214283800,9.39028369140625,0.05073750019073486,-0.2241249978542328,0.09721250087022781
1750561124223888400,9.399888427734375,-0.004124999977648258,-0.1434125006198883,0.06297499686479568
1750561124233493000,9.409492919921876,-0.06159999966621399,-0.0017874999903142452,-0.02736249938607216
1750561124243097600,9.41909765625,-0.09459999948740005,0.14602500200271606,-0.14231249690055847
1750561124252702500,9.428702392578124,-0.0873124971985817,0.24131250381469727,-0.23512500524520874
1750561124262307000,9.43830712890625,-0.053075000643730164,0.2437874972820282,-0.25712499022483826
1750561124271912000,9.447911865234374,-0.006599999964237213,0.1839749962091446,-0.19112500548362732
1750561124281516500,9.4575166015625,0.03987500071525574,0.09350000321865082,-0.07012499868869781
1750561124291121400,9.467121337890624,0.06916250288486481,-0.006599999964237213,0.05816249921917915
1750561124300726000,9.47672607421875,0.06916250288486481,-0.050599999725818634,0.14602500200271606
1750561124310331000,9.486330810546875,0.03616249933838844,-0.06159999966621399,0.15344999730587006
1750561124319935500,9.495935546875,-0.021312499418854713,-0.03712499886751175,0.08992499858140945
1750561124329540000,9.5055400390625,-0.08112499862909317,0.025162499397993088,-0.0017874999903142452
1750561124339145000,9.51514501953125,-0.09941250085830688,0.07026249915361404,-0.06655000150203705
1750561124348749300,9.524749267578125,-0.08236250281333923,0.0789249986410141,-0.07507500052452087
1750561124358354200,9.534354248046874,-0.0518375001847744,0.05926249921321869,-0.04207500070333481
1750561124367959000,9.543958984375,-0.028599999845027924,0.03368749842047691,-0.010312499478459358
1750561124377563600,9.553563720703124,-0.010312499478459358,0.0471624992787838,0.0019249999895691872
1750561124387168300,9.563168212890625,-0.0017874999903142452,0.09102500230073929,-0.011549999937415123
1750561124396773000,9.572773193359374,-0.004124999977648258,0.13144999742507935,-0.04702499881386757
1750561124406377700,9.582377685546875,-0.013887500390410423,0.14368750154972076,-0.08855000138282776
1750561124415982600,9.591982666015625,-0.035887498408555984,0.11302500218153,-0.13007499277591705
1750561124425587200,9.601587158203126,-0.050599999725818634,0.06668750196695328,-0.14464999735355377
1750561124435192000,9.611192138671875,-0.060362499207258224,0.005499999970197678,-0.12264999747276306
1750561124444796700,9.620796630859376,-0.06283749639987946,-0.03959999978542328,-0.07878749817609787
1750561124454401300,9.6304013671875,-0.057887498289346695,-0.018837500363588333,-0.03959999978542328
1750561124464006000,9.640005859375,-0.05664999783039093,0.021449999883770943,-0.023787500336766243
1750561124473610800,9.64961083984375,-0.050599999725818634,0.0494999997317791,-0.038362499326467514
1750561124483215400,9.65921533203125,-0.03464999794960022,0.06792499870061874,-0.06159999966621399
1750561124492820200,9.6688203125,-0.013887500390410423,0.08373750001192093,-0.07012499868869781
1750561124502424800,9.6784248046875,-0.0005499999970197678,0.07273750007152557,-0.05678749829530716
1750561124512029700,9.68802978515625,0.011687500402331352,0.017737500369548798,-0.020075000822544098
1750561124521634300,9.69763427734375,0.010449999943375587,-0.05555000156164169,0.021449999883770943
1750561124531239000,9.707239013671876,0.0019249999895691872,-0.09088750183582306,0.05197500064969063
1750561124540843800,9.71684375,-0.0005499999970197678,-0.07012499868869781,0.05444999784231186
1750561124550448400,9.726448486328126,-0.0028874999843537807,-0.016362499445676804,0.026399999856948853
1750561124560053200,9.73605322265625,0.0031624999828636646,0.04592499881982803,-0.011549999937415123
1750561124569657600,9.74565771484375,0.020212499424815178,0.08621250092983246,-0.03959999978542328
1750561124579262500,9.755262451171875,0.03739999979734421,0.09721250087022781,-0.04331250116229057
1750561124588867000,9.7648671875,0.03739999979734421,0.08002500236034393,-0.026124998927116394
1750561124598471700,9.7744716796875,0.021449999883770943,0.027499999850988388,0.0019249999895691872
1750561124608076500,9.78407666015625,-0.007837500423192978,-0.02983750030398369,0.021449999883770943
1750561124617681200,9.79368115234375,-0.038362499326467514,-0.08607500046491623,0.012924999929964542
1750561124627286000,9.8032861328125,-0.05912499874830246,-0.11288750171661377,-0.011549999937415123
1750561124636891000,9.812890869140626,-0.05912499874830246,-0.08112499862909317,-0.038362499326467514
1750561124646495500,9.82249560546875,-0.03712499886751175,-0.036024998873472214,-0.05912499874830246
1750561124656100000,9.83210009765625,-0.007837500423192978,0.027499999850988388,-0.05431250110268593
1750561124665704700,9.84170458984375,0.015399999916553497,0.09350000321865082,-0.023787500336766243
1750561124675309600,9.8513095703125,0.031212499365210533,0.10573749989271164,0.014162499457597733
1750561124684914200,9.8609140625,0.03244999796152115,0.06792499870061874,0.0471624992787838
1750561124694518800,9.870518798828124,0.018975000828504562,0.009212499484419823,0.06421250104904175
1750561124704123600,9.88012353515625,0.0006874999962747097,-0.06778749823570251,0.05692499876022339
1750561124713728500,9.889728515625,-0.02983750030398369,-0.11783749610185623,0.025162499397993088
1750561124723333000,9.8993330078125,-0.06531249731779099,-0.12759999930858612,-0.014024999924004078
1750561124732938000,9.90893798828125,-0.0798875018954277,-0.10188750177621841,-0.031075000762939453
1750561124742542600,9.91854248046875,-0.06888750195503235,-0.04455000162124634,-0.018837500363588333
1750561124752147200,9.928147216796875,-0.031075000762939453,0.03726249933242798,0.004399999976158142
1750561124761752000,9.937751953125,0.015399999916553497,0.10449999570846558,0.011687500402331352
1750561124771356400,9.9473564453125,0.05444999784231186,0.1289750039577484,0.0031624999828636646
1750561124780961300,9.956961181640626,0.07644999772310257,0.10573749989271164,-0.007837500423192978
1750561124790566000,9.96656591796875,0.06916250288486481,0.060499999672174454,-0.011549999937415123
1750561124800170500,9.97617041015625,0.03616249933838844,0.0006874999962747097,-0.009074999950826168
1750561124809775400,9.985775390625,0.0019249999895691872,-0.08112499862909317,-0.006599999964237213
1750561124819380200,9.995380126953124,-0.021312499418854713,-0.1434125006198883,-0.0017874999903142452
1750561124828984800,10.00498486328125,-0.02736249938607216,-0.1373624950647354,0.012924999929964542
1750561124838589700,10.014589599609375,-0.01759999990463257,-0.053075000643730164,0.017737500369548798
1750561124848194300,10.0241943359375,0.004399999976158142,0.05321250110864639,0.0019249999895691872
1750561124857799000,10.033798828125,0.03616249933838844,0.12044999748468399,-0.028599999845027924
1750561124867403800,10.04340380859375,0.06063750013709068,0.1350249946117401,-0.060362499207258224
1750561124877008400,10.05300830078125,0.07163749635219574,0.11302500218153,-0.07136250287294388
1750561124886613000,10.062613037109376,0.07039999961853027,0.06173750013113022,-0.06283749639987946
1750561124896217900,10.0722177734375,0.05816249921917915,-0.015262499451637268,-0.038362499326467514
1750561124905822500,10.081822509765624,0.03739999979734421,-0.07507500052452087,-0.006599999964237213
1750561124915427000,10.091427001953125,0.010449999943375587,-0.09955000132322311,0.014162499457597733
1750561124925032000,10.101031982421874,-0.016362499445676804,-0.06778749823570251,0.011687500402331352
1750561124934636800,10.11063671875,-0.02488750033080578,-0.0005499999970197678,-0.020075000822544098
1750561124944241400,10.120241455078125,-0.020075000822544098,0.05444999784231186,-0.07259999960660934
1750561124953846300,10.12984619140625,-0.0017874999903142452,0.09226249903440475,-0.1190750002861023
1750561124963451000,10.139450927734375,0.009212499484419823,0.09968750178813934,-0.1471250057220459
1750561124973055500,10.149055419921876,0.009212499484419823,0.060499999672174454,-0.1434125006198883
1750561124982660000,10.15866015625,-0.0005499999970197678,0.009212499484419823,-0.09212499856948853
1750561124992264700,10.1682646484375,-0.016362499445676804,-0.04702499881386757,-0.01759999990463257
1750561125001869600,10.17786962890625,-0.02736249938607216,-0.06902500241994858,0.04221250116825104
1750561125011474200,10.18747412109375,-0.03231250122189522,-0.07631249725818634,0.05816249921917915
1750561125021079000,10.1970791015625,-0.031075000762939453,-0.06159999966621399,0.020212499424815178
1750561125030683600,10.20668359375,-0.031075000762939453,-0.03231250122189522,-0.045787498354911804
1750561125040288500,10.21628857421875,-0.02983750030398369,-0.011549999937415123,-0.09707500040531158
1750561125049893000,10.22589306640625,-0.020075000822544098,-0.007837500423192978,-0.1116499975323677
1750561125059498000,10.235498046875,-0.007837500423192978,-0.021312499418854713,-0.09336250275373459
1750561125069102300,10.245102294921875,-0.011549999937415123,-0.031075000762939453,-0.04936249926686287
1750561125078707200,10.254707275390626,-0.02983750030398369,-0.0005499999970197678,-0.01759999990463257
1750561125088311800,10.264311767578125,-0.035887498408555984,0.03368749842047691,-0.021312499418854713
1750561125097916400,10.27391650390625,-0.02736249938607216,0.06792499870061874,-0.048124998807907104
1750561125107521300,10.283521240234375,-0.016362499445676804,0.08744999766349792,-0.0775500014424324
1750561125117126000,10.2931259765625,-0.010312499478459358,0.0752125009894371,-0.09212499856948853
1750561125126730500,10.30273046875,-0.005362499970942736,0.05444999784231186,-0.0835999995470047
1750561125136335400,10.31233544921875,-0.012787500396370888,0.029975000768899918,-0.06888750195503235
1750561125145940200,10.321940185546875,-0.03464999794960022,-0.005362499970942736,-0.06283749639987946
1750561125155544800,10.331544921875,-0.05555000156164169,-0.028599999845027924,-0.045787498354911804
1750561125165149700,10.341149658203125,-0.06531249731779099,-0.03231250122189522,-0.023787500336766243
1750561125174754300,10.35075439453125,-0.06283749639987946,-0.03478749841451645,-0.006599999964237213
1750561125184359000,10.36035888671875,-0.04455000162124634,-0.007837500423192978,-0.016362499445676804
1750561125193963500,10.369963623046875,-0.031075000762939453,0.031212499365210533,-0.06888750195503235
1750561125203568400,10.379568359375,-0.026124998927116394,0.05926249921321869,-0.1313125044107437
1750561125213173000,10.389173095703125,-0.03231250122189522,0.05444999784231186,-0.1751749962568283
1750561125222777600,10.398777587890624,-0.040837500244379044,0.020212499424815178,-0.18507499992847443
1750561125232382500,10.408382568359375,-0.03959999978542328,-0.03712499886751175,-0.15812499821186066
1750561125241987000,10.417987060546874,-0.028599999845027924,-0.09212499856948853,-0.13007499277591705
1750561125251591700,10.427591796875,-0.011549999937415123,-0.09707500040531158,-0.13983750343322754
1750561125261196500,10.437196533203124,0.0019249999895691872,-0.038362499326467514,-0.19965000450611115
1750561125270801400,10.446801513671875,-0.005362499970942736,0.026399999856948853,-0.30841249227523804
1750561125280406000,10.456406005859375,-0.012787500396370888,0.09968750178813934,-0.4269374907016754
1750561125290011000,10.466010986328126,-0.01759999990463257,0.11178749799728394,-0.5502749681472778
1750561125299615500,10.475615478515625,-0.02488750033080578,0.09721250087022781,-0.6517499685287476
1750561125309220000,10.48522021484375,-0.0518375001847744,0.05073750019073486,-0.7042750120162964
1750561125318824700,10.49482470703125,-0.13241249322891235,-0.0518375001847744,-0.6870874762535095
1750561125328429300,10.50442919921875,-0.24488750100135803,-0.19965000450611115,-0.5917999744415283
1750561125338034200,10.5140341796875,-0.34622499346733093,-0.4012250006198883,-0.4587000012397766
1750561125347639000,10.52363916015625,-0.47203749418258667,-0.5600374937057495,-0.30469998717308044
1750561125357244000,10.533243896484375,-0.6089875102043152,-0.6443250179290771,-0.10559999942779541
1750561125366848300,10.54284814453125,-0.7066124677658081,-0.7335624694824219,0.12526249885559082
1750561125376453000,10.552453125,-0.7701374888420105,-0.8276125192642212,0.3770250082015991
1750561125386057700,10.5620576171875,-0.8056125044822693,-0.854562520980835,0.6421250104904175
1750561125395662600,10.57166259765625,-0.8238999843597412,-0.7958499789237976,0.9107999801635742
1750561125405267200,10.58126708984375,-0.8215624690055847,-0.6615124940872192,1.1978999376296997
1750561125414871800,10.590871826171876,-0.7578999996185303,-0.5807999968528748,1.5180000066757202
1750561125424476400,10.600476318359375,-0.6272749900817871,-0.513700008392334,1.9150999784469604
1750561125434081300,10.610081298828124,-0.454987496137619,-0.37193748354911804,2.352487564086914
1750561125443686000,10.619685791015625,-0.27912500500679016,-0.2681249976158142,2.719062566757202
1750561125453290500,10.62929052734375,-0.10312499850988388,-0.20707499980926514,2.9657375812530518
1750561125462895400,10.638895263671875,0.03863750025629997,-0.23388749361038208,3.106262445449829
1750561125472500000,10.6485,0.08868750184774399,-0.31212499737739563,3.2405998706817627
1750561125482104600,10.6581044921875,0.10944999754428864,-0.28517499566078186,3.483837366104126
1750561125491709400,10.66770947265625,0.1387374997138977,-0.30717501044273376,3.7659873962402344
1750561125501314300,10.677314208984376,0.23526249825954437,-0.2961750030517578,4.009087562561035
1750561125510919000,10.6869189453125,0.37207499146461487,-0.1434125006198883,4.073850154876709
1750561125520523500,10.6965234375,0.5321249961853027,0.1447875052690506,3.8795623779296875
1750561125530128100,10.706128173828125,0.744700014591217,0.5834124684333801,3.4203124046325684
1750561125539733000,10.71573291015625,0.9744625091552734,1.0367499589920044,2.7495875358581543
1750561125549337600,10.725337646484375,1.178375005722046,1.4606624841690063,1.999387502670288
1750561125558942500,10.7349423828125,1.3323750495910645,1.8931000232696533,1.2639000415802002
1750561125568546800,10.744546875,1.4093749523162842,2.202199935913086,0.526075005531311
1750561125578151700,10.754151611328124,1.4546124935150146,2.297487497329712,-0.133650004863739
1750561125587756500,10.763756591796875,1.541237473487854,2.3182499408721924,-0.6162750124931335
1750561125597361200,10.773361083984375,1.715999960899353,2.296250104904175,-0.951087474822998
1750561125606966000,10.782966064453126,1.948099970817566,2.244962453842163,-1.2307624816894531
1750561125616570600,10.792570556640625,2.113100051879883,2.119149923324585,-1.5875749588012695
1750561125626175500,10.802175537109376,2.0923373699188232,1.8918625116348267,-2.01877498626709
1750561125635780000,10.811780029296875,1.9273375272750854,1.6512374877929688,-2.420687437057495
1750561125645384700,10.821384765625,1.745287537574768,1.3726625442504883,-2.7407875061035156
1750561125654989300,10.8309892578125,1.6182374954223633,1.046512484550476,-2.9680750370025635
1750561125664594200,10.84059423828125,1.558424949645996,0.7166500091552734,-3.169650077819824
1750561125674198800,10.85019873046875,1.4606624841690063,0.36959999799728394,-3.484799861907959
1750561125683803400,10.859803466796874,1.1980375051498413,0.016499999910593033,-3.957662582397461
1750561125693408300,10.869408203125,0.7997000217437744,-0.27912500500679016,-4.503812313079834
1750561125703012900,10.879012939453125,0.41126251220703125,-0.5625125169754028,-4.946012496948242
1750561125712617700,10.88861767578125,0.10821250081062317,-0.7873250246047974,-5.154874801635742
1750561125722222300,10.898222412109375,-0.1373624950647354,-0.951087474822998,-5.120774745941162
1750561125731827000,10.907826904296876,-0.319412499666214,-1.187999963760376,-4.834774971008301
1750561125741431800,10.917431884765625,-0.4830375015735626,-1.4812874794006348,-4.215475082397461
1750561125751036400,10.927036376953126,-0.6345624923706055,-1.6596249341964722,-3.234412431716919
1750561125760641300,10.936641357421875,-0.8788999915122986,-1.6328125,-2.116537570953369
1750561125770246000,10.946245849609374,-1.1697125434875488,-1.524049997329712,-1.2282874584197998
1750561125779850500,10.9558505859375,-1.3651000261306763,-1.4190000295639038,-0.8276125192642212
1750561125789455400,10.965455322265624,-1.541100025177002,-1.3017125129699707,-0.8410875201225281
1750561125799060200,10.975060302734375,-1.658387541770935,-1.1024750471115112,-0.9131374955177307
1750561125808664800,10.984664794921875,-1.7561500072479248,-0.8263750076293945,-0.7470374703407288
1750561125818269400,10.99426953125,-1.8111499547958374,-0.3451249897480011,-0.260699987411499
1750561125827874300,11.003874267578125,-1.7597249746322632,-0.02502499893307686,0.33550000190734863
1750561125837479000,11.01347900390625,-1.6962000131607056,0.20350000262260437,0.9352750182151794
1750561125847083500,11.02308349609375,-1.658387541770935,0.358599990606308,1.4141875505447388
1750561125856688000,11.032688232421876,-1.6094374656677246,0.5186499953269958,1.7037625312805176
1750561125866292700,11.042292724609375,-1.5801500082015991,0.771512508392334,1.8515750169754028
1750561125875897600,11.051897705078124,-1.525149941444397,1.0232750177383423,1.944387435913086
1750561125885502200,11.061502197265625,-1.4200999736785889,1.0806125402450562,1.9883874654769897
1750561125895107300,11.071107421875,-1.257712483406067,0.9107999801635742,1.9578624963760376
1750561125904712000,11.0807119140625,-1.0414249897003174,0.5798375010490417,1.8368624448776245
1750561125914316500,11.090316650390625,-0.8153749704360962,0.2633124887943268,1.6267625093460083
1750561125923921200,11.099921142578125,-0.6528499722480774,0.09844999760389328,1.36166250705719
1750561125933526000,11.109526123046875,-0.5893250107765198,0.26083749532699585,1.1393250226974487
1750561125943130600,11.119130615234376,-0.6602749824523926,0.5676000118255615,0.9890375137329102
1750561125952735200,11.1287353515625,-0.7701374888420105,0.9732249975204468,0.9829875230789185
1750561125962339800,11.13833984375,-0.7530875205993652,1.208899974822998,1.1320375204086304
1750561125971944700,11.14794482421875,-0.5429875254631042,1.037850022315979,1.3591874837875366
1750561125981549300,11.15754931640625,-0.2008875012397766,0.5101249814033508,1.5046625137329102
1750561125991154000,11.16715380859375,0.09239999949932098,-0.09583749622106552,1.4093749523162842
1750561126000758800,11.1767587890625,0.24997499585151672,-0.42941248416900635,1.0818500518798828
1750561126010363600,11.18636376953125,0.2877874970436096,-0.41593748331069946,0.6335999965667725
1750561126019968300,11.19596826171875,0.21078750491142273,-0.24365000426769257,0.17902499437332153
1750561126029572900,11.20557275390625,0.05073750019073486,0.05321250110864639,-0.133650004863739
1750561126039177700,11.215177734375,-0.1153625026345253,0.38183748722076416,-0.2521750032901764
1750561126048782300,11.2247822265625,-0.1508374959230423,0.605412483215332,-0.22783750295639038
1750561126058387000,11.234386962890625,-0.0518375001847744,0.6506500244140625,-0.16307500004768372
1750561126067991800,11.24399169921875,0.08992499858140945,0.5821750164031982,-0.11412499845027924
1750561126077596200,11.25359619140625,0.2059749960899353,0.4600749909877777,-0.1093124970793724
1750561126087201000,11.263200927734376,0.26455000042915344,0.32202500104904175,-0.14588749408721924
1750561126096806000,11.272805908203125,0.26826250553131104,0.15097500383853912,-0.20583750307559967
1750561126106410500,11.282410400390624,0.23278750479221344,-0.06778749823570251,-0.24736249446868896
1750561126116015000,11.29201513671875,0.14368750154972076,-0.21312500536441803,-0.23993749916553497
1750561126125620000,11.301619873046874,0.027637500315904617,-0.141075000166893,-0.18988749384880066
1750561126135224800,11.311224853515625,-0.04936249926686287,0.048262499272823334,-0.13612499833106995
1750561126144829400,11.320829345703125,-0.057887498289346695,0.19126249849796295,-0.10312499850988388
1750561126154434000,11.33043408203125,-0.006599999964237213,0.23526249825954437,-0.09459999948740005
1750561126164038700,11.34003857421875,0.08139999955892563,0.18150000274181366,-0.11412499845027924
1750561126173643500,11.3496435546875,0.16568750143051147,0.1069749966263771,-0.133650004863739
1750561126183248100,11.359248046875,0.2194499969482422,0.05073750019073486,-0.1313125044107437
1750561126192852700,11.368852783203126,0.227974995970726,0.018975000828504562,-0.12031249701976776
1750561126202457300,11.378457275390625,0.18645000457763672,0.012924999929964542,-0.133650004863739
1750561126212062200,11.388062255859374,0.1143999993801117,0.07150000333786011,-0.18383750319480896
1750561126221667000,11.3976669921875,0.021449999883770943,0.15702499449253082,-0.2461249977350235
1750561126231271700,11.407271728515624,-0.045649997889995575,0.196212500333786,-0.28888750076293945
1750561126240876300,11.416876220703125,-0.06641250103712082,0.14121249318122864,-0.27541249990463257
1750561126250481200,11.426481201171875,-0.048124998807907104,0.05816249921917915,-0.17765000462532043
1750561126260085800,11.436085693359376,-0.013887500390410423,-0.021312499418854713,-0.031075000762939453
1750561126269690600,11.445690673828125,0.020212499424815178,-0.04702499881386757,0.09844999760389328
1750561126279295200,11.455295166015626,0.04839999973773956,-0.0042624999769032,0.1350249946117401
1750561126288899800,11.46489990234375,0.07039999961853027,0.05816249921917915,0.06668750196695328
1750561126298504400,11.47450439453125,0.0752125009894371,0.09721250087022781,-0.05555000156164169
1750561126308109000,11.484109130859375,0.05444999784231186,0.12168750166893005,-0.16183750331401825
1750561126317714000,11.4937138671875,0.018975000828504562,0.1264999955892563,-0.19965000450611115
1750561126327318500,11.503318603515625,-0.0028874999843537807,0.07768750190734863,-0.15331250429153442
1750561126336923100,11.512923095703124,-0.015124999918043613,-0.022549999877810478,-0.03478749841451645
1750561126346528000,11.522528076171875,-0.012787500396370888,-0.10312499850988388,0.10449999570846558
1750561126356132600,11.532132568359375,-0.0005499999970197678,-0.1373624950647354,0.2022625058889389
1750561126365737500,11.541737548828126,0.017875000834465027,-0.1093124970793724,0.2059749960899353
1750561126375342300,11.55134228515625,0.028875000774860382,-0.0518375001847744,0.12168750166893005
1750561126384947000,11.560947021484376,0.027637500315904617,0.005499999970197678,-0.0017874999903142452
1750561126394551600,11.570551513671875,0.020212499424815178,0.05321250110864639,-0.1251250058412552
1750561126404156200,11.58015625,0.018975000828504562,0.060499999672174454,-0.21188749372959137
1750561126413761000,11.589760986328125,0.027637500315904617,0.04468749836087227,-0.23141250014305115
1750561126423365600,11.59936572265625,0.05197500064969063,0.03726249933242798,-0.19965000450611115
1750561126432970200,11.60897021484375,0.08249999582767487,0.03244999796152115,-0.15331250429153442
1750561126442574800,11.618574951171874,0.11921250075101852,0.004399999976158142,-0.10312499850988388
1750561126452179700,11.6281796875,0.1522125005722046,-0.053075000643730164,-0.04455000162124634
1750561126461784300,11.637784423828125,0.1461624950170517,-0.07878749817609787,0.020212499424815178
1750561126471389200,11.64738916015625,0.09116250276565552,-0.026262499392032623,0.06792499870061874
1750561126480993800,11.656993896484375,0.020212499424815178,0.048262499272823334,0.06792499870061874
1750561126490598700,11.6665986328125,-0.04331250116229057,0.0849749967455864,0.017737500369548798
1750561126500203300,11.676203369140625,-0.07631249725818634,0.08868750184774399,-0.06407500058412552
1750561126509808000,11.68580810546875,-0.06888750195503235,0.07026249915361404,-0.14231249690055847
1750561126519412700,11.695412841796875,-0.031075000762939453,0.03368749842047691,-0.18383750319480896
1750561126529017300,11.705017333984374,0.006874999962747097,0.012924999929964542,-0.1788875013589859
1750561126538622200,11.714622314453125,0.03244999796152115,0.0031624999828636646,-0.13983750343322754
1750561126548226800,11.724226806640624,0.03492499887943268,0.018975000828504562,-0.08112499862909317
1750561126557831400,11.73383154296875,0.021449999883770943,0.031212499365210533,-0.018837500363588333
