time,seconds_elapsed,z,y,x
1750561114878509000,0.054509033203125,0.5812125205993652,0.6291999816894531,-0.2964499890804291
1750561114888114000,0.064114013671875,0.5861625075340271,0.020762499421834946,-0.2732124924659729
1750561114897718300,0.07371826171875,0.49321249127388,-0.2761000096797943,-0.28049999475479126
1750561114907323100,0.0833232421875,0.32711249589920044,-0.1428624987602234,-0.3807374835014343
1750561114916927700,0.092927734375,0.13158750534057617,0.1942874938249588,-0.5455999970436096
1750561114926532400,0.102532470703125,0.08277499675750732,0.32381248474121094,-0.639787495136261
1750561114936137000,0.112136962890625,0.21587499976158142,0.34209999442100525,-0.5750250220298767
1750561114945741800,0.121741943359375,0.346637487411499,0.5229125022888184,-0.4357374906539917
1750561114955346400,0.131346435546875,0.3821125030517578,1.2351624965667725,-0.40521249175071716
1750561114964951000,0.140950927734375,0.39063748717308044,1.8508875370025635,-0.32945001125335693
1750561114974556000,0.150555908203125,0.37482500076293945,2.135512590408325,-0.31597501039505005
1750561114984160500,0.160160400390625,0.5139750242233276,1.6163125038146973,-0.3684999942779541
1750561114993765400,0.169765380859375,0.7339749932289124,0.6206749677658081,-0.5017374753952026
1750561115003370000,0.179369873046875,0.823074996471405,0.02199999988079071,-0.6507874727249146
1750561115012974600,0.188974609375,0.8072624802589417,-0.10009999573230743,-0.6617875099182129
1750561115022579500,0.198579345703125,0.6924499869346619,0.03904999792575836,-0.5273125171661377
1750561115032184000,0.20818408203125,0.5494499802589417,0.3665750026702881,-0.2793999910354614
1750561115041788700,0.21778857421875,0.3723500072956085,0.4959625005722046,-0.08868750184774399
1750561115051393300,0.227393310546875,0.15729999542236328,0.39586248993873596,-0.013062499463558197
1750561115060998100,0.236998046875,0.08524999767541885,0.3653374910354614,0.04441250115633011
1750561115070602800,0.246602783203125,0.04496249929070473,0.12099999934434891,-0.013062499463558197
1750561115080207400,0.256207275390625,0.008249999955296516,-0.16128750145435333,-0.1742125004529953
1750561115089812200,0.265812255859375,-0.045512501150369644,-0.24310000240802765,-0.4197874963283539
1750561115099417000,0.2754169921875,-0.10656250268220901,-0.24557499587535858,-0.7350749969482422
1750561115109021700,0.285021728515625,-0.113987497985363,-0.1551000028848648,-1.0575125217437744
1750561115118626300,0.294626220703125,-0.06379999965429306,0.002474999986588955,-1.1845624446868896
1750561115128231000,0.30423095703125,0.04372499883174896,0.3176249861717224,-0.9879375100135803
1750561115137835800,0.313835693359375,0.07672499865293503,0.3946250081062317,-0.6898375153541565
1750561115147440400,0.3234404296875,0.06572499871253967,0.3493874967098236,-0.40521249175071716
1750561115157045000,0.333044921875,0.0387750007212162,0.27486249804496765,-0.2194499969482422
1750561115166649900,0.34264990234375,0.05706249922513962,0.15152500569820404,-0.12168750166893005
1750561115176254500,0.35225439453125,0.10724999755620956,-0.0170499999076128,-0.10092499852180481
1750561115185859000,0.361859130859375,0.12925000488758087,-0.18081249296665192,-0.015399999916553497
1750561115195463700,0.371463623046875,0.19511249661445618,-0.25286251306533813,0.20074999332427979
1750561115205068500,0.381068603515625,0.24034999310970306,-0.3433375060558319,0.42198750376701355
1750561115214673200,0.390673095703125,0.2745875120162964,-0.3371500074863434,0.6028000116348267
1750561115224278000,0.400278076171875,0.3100624978542328,-0.2223374992609024,0.6991875171661377
1750561115233882600,0.409882568359375,0.3320625126361847,-0.045237500220537186,0.676087498664856
1750561115243487500,0.419487548828125,0.3540624976158142,0.13433749973773956,0.5600374937057495
1750561115253091800,0.429091796875,0.3381125032901764,0.18081249296665192,0.40603750944137573
1750561115262696700,0.43869677734375,0.27582499384880066,0.15633749961853027,0.2862749993801117
1750561115272301300,0.44830126953125,0.17806249856948853,0.01952499896287918,0.19470000267028809
1750561115281906000,0.457906005859375,0.06929999589920044,-0.03904999792575836,0.1494625061750412
1750561115291510800,0.4675107421875,-0.016224998980760574,-0.05004999786615372,0.09212499856948853
1750561115301115400,0.477115478515625,-0.06998749822378159,-0.047575000673532486,0.026124998927116394
1750561115310720000,0.486719970703125,-0.08332499861717224,-0.02928750030696392,-0.011824999935925007
1750561115320324900,0.496324951171875,-0.055275000631809235,0.03423750028014183,0.006599999964237213
1750561115329929500,0.505929443359375,-0.033275000751018524,0.07576250284910202,0.07246249914169312
1750561115339534000,0.5155341796875,-0.07727500051259995,0.0012374999932944775,0.18617500364780426
1750561115349138700,0.525138671875,-0.1872749924659729,-0.17104999721050262,0.30951249599456787
1750561115358743600,0.53474365234375,-0.3008500039577484,-0.29081249237060547,0.39022499322891235
1750561115368348200,0.54434814453125,-0.35942500829696655,-0.30662500858306885,0.40603750944137573
1750561115377952800,0.553952880859375,-0.34113749861717224,-0.28462499380111694,0.35475000739097595
1750561115387557600,0.5635576171875,-0.26785001158714294,-0.32615000009536743,0.24117499589920044
1750561115397162200,0.573162353515625,-0.19580000638961792,-0.5069624781608582,0.0798875018954277
1750561115406766800,0.582766845703125,-0.1480875015258789,-0.6254875063896179,-0.05582499876618385
1750561115416371500,0.592371337890625,-0.038224998861551285,-0.8771125078201294,-0.06916250288486481
1750561115425976300,0.601976318359375,-0.01979999989271164,-0.8025875091552734,-0.09116250276565552
1750561115435581000,0.611580810546875,-0.07232499867677689,-0.5754374861717224,-0.08387500047683716
1750561115445185800,0.621185791015625,-0.09679999947547913,-0.34814998507499695,0.006599999964237213
1750561115454790400,0.630790283203125,-0.07479999959468842,-0.2125750035047531,0.09569999575614929
1750561115464395000,0.64039501953125,-0.025987500324845314,-0.1270499974489212,0.11646249890327454
1750561115473999600,0.64999951171875,0.03753750026226044,-0.045237500220537186,0.07136250287294388
1750561115483604500,0.6596044921875,0.07177499681711197,0.002474999986588955,0.008937500417232513
1750561115493209000,0.669208984375,0.05224999785423279,-0.047575000673532486,-0.004399999976158142
1750561115502813700,0.678813720703125,-0.014987500384449959,-0.1551000028848648,0.013887500390410423
1750561115512418300,0.688418212890625,-0.10051249712705612,-0.22728750109672546,0.0004124999977648258
1750561115522023200,0.698023193359375,-0.15056249499320984,-0.3176249861717224,-0.03135000169277191
1750561115531627800,0.707627685546875,-0.10298749804496765,-0.559487521648407,-0.014162499457597733
1750561115541232400,0.717232421875,-0.03946249932050705,-0.7367249727249146,0.026124998927116394
1750561115550837200,0.726837158203125,-0.01746249943971634,-0.7562500238418579,0.03946249932050705
1750561115560441900,0.73644189453125,-0.003987499978393316,-0.5839625000953674,0.048124998807907104
1750561115570046500,0.74604638671875,0.0032999999821186066,-0.3310999870300293,0.05169999971985817
1750561115579651300,0.7556513671875,0.0009624999947845936,-0.09033749997615814,0.052937500178813934
1750561115589256000,0.765255859375,-0.006462499964982271,0.08428750187158585,0.04441250115633011
1750561115598860800,0.77486083984375,-0.04922499880194664,0.17957499623298645,0.008937500417232513
1750561115608465400,0.78446533203125,-0.0919874981045723,0.2480500042438507,-0.03492499887943268
1750561115618070000,0.794070068359375,-0.10903749614953995,0.32615000009536743,-0.09968750178813934
1750561115627675000,0.8036748046875,-0.142037495970726,0.4006749987602234,-0.1742125004529953
1750561115637279500,0.813279541015625,-0.14327499270439148,0.5229125022888184,-0.2574000060558319
1750561115646884000,0.822884033203125,-0.08579999953508377,0.6914874911308289,-0.3269749879837036
1750561115656488700,0.83248876953125,-0.008799999952316284,0.7904874682426453,-0.3867875039577484
1750561115666093600,0.842093505859375,0.0644875019788742,0.8185374736785889,-0.4197874963283539
1750561115675698200,0.8516982421875,0.11701250076293945,0.7514374852180481,-0.4235000014305115
1750561115685302800,0.861302734375,0.14506250619888306,0.6364874839782715,-0.390500009059906
1750561115694907600,0.87090771484375,0.12925000488758087,0.4959625005722046,-0.3111625015735626
1750561115704512300,0.88051220703125,0.07301250100135803,0.3335750102996826,-0.1816374957561493
1750561115714116900,0.890116943359375,0.020487500354647636,0.07699999958276749,-0.010587500408291817
1750561115723721700,0.8997216796875,-0.013749999925494194,-0.22962500154972076,0.20198750495910645
1750561115733326600,0.90932666015625,-0.01251249946653843,-0.4641999900341034,0.3950375020503998
1750561115742931200,0.91893115234375,0.0009624999947845936,-0.5033875107765198,0.4487999975681305
1750561115752535800,0.928535888671875,0.05348749831318855,-0.40562498569488525,0.35475000739097595
1750561115762140400,0.938140380859375,0.1060125008225441,-0.2320999950170517,0.17874999344348907
1750561115771745300,0.947745361328125,0.13282500207424164,-0.05004999786615372,0.010174999944865704
1750561115781350000,0.957349853515625,0.15001249313354492,0.07328750193119049,-0.08992499858140945
1750561115790954500,0.96695458984375,0.15853749215602875,0.00976249948143959,-0.1046374961733818
1750561115800559000,0.97655908203125,0.1597750037908554,-0.17352500557899475,-0.026399999856948853
1750561115810164000,0.9861640625,0.12182500213384628,-0.35062500834465027,0.08717499673366547
1750561115819768600,0.9957685546875,0.06696250289678574,-0.4226749837398529,0.16417500376701355
1750561115829373200,1.005373291015625,0.020487500354647636,-0.39338749647140503,0.1592250019311905
1750561115838978300,1.014978271484375,-0.01251249946653843,-0.3139125108718872,0.08717499673366547
1750561115848582700,1.024582763671875,-0.02227500081062317,-0.19181250035762787,0.007699999958276749
1750561115858187500,1.0341875,-0.02227500081062317,-0.08552499860525131,-0.06063750013709068
1750561115867792100,1.043792236328125,-0.002749999985098839,0.007287499960511923,-0.1046374961733818
1750561115877396700,1.053396728515625,0.020487500354647636,0.054999999701976776,-0.11563749611377716
1750561115887001300,1.06300146484375,-0.0015124999918043613,0.07699999958276749,-0.09858749806880951
1750561115896606200,1.072606201171875,-0.006462499964982271,0.04028749838471413,-0.04592499881982803
1750561115906210800,1.0822109375,-0.016224998980760574,0.002474999986588955,-0.004399999976158142
1750561115915815400,1.0918154296875,-0.04675000160932541,0.0147124994546175,-0.0031624999828636646
1750561115925420300,1.101420166015625,-0.08951249718666077,0.16499999165534973,-0.06063750013709068
1750561115935025200,1.111025146484375,-0.142037495970726,0.3091000020503998,-0.15111249685287476
1750561115944629800,1.120629638671875,-0.15427500009536743,0.404387503862381,-0.20239999890327454
1750561115954234600,1.130234619140625,-0.12732499837875366,0.3971000015735626,-0.20239999890327454
1750561115963839200,1.139839111328125,-0.0882750004529953,0.2932874858379364,-0.164450004696846
1750561115973443800,1.14944384765625,-0.043037500232458115,0.15399999916553497,-0.11811249703168869
1750561115983048400,1.15904833984375,-0.01251249946653843,-0.006049999967217445,-0.09611249715089798
1750561115992653300,1.1686533203125,-0.008799999952316284,-0.1368124932050705,-0.08387500047683716
1750561116002258000,1.1782578125,-0.02722499892115593,-0.16362500190734863,-0.07535000145435333
1750561116011862500,1.187862548828125,-0.047987498342990875,-0.12581250071525574,-0.06558749824762344
1750561116021467100,1.197467041015625,-0.04922499880194664,-0.09281250089406967,-0.03135000169277191
1750561116031071700,1.20707177734375,-0.03698749840259552,-0.09652499854564667,0.035887498408555984
1750561116040676600,1.216676513671875,-0.01746249943971634,-0.1625249981880188,0.11769999563694
1750561116050281500,1.226281494140625,-0.007562499959021807,-0.1942874938249588,0.18851250410079956
1750561116059885800,1.2358857421875,-0.02474999986588955,-0.1527625024318695,0.2032250016927719
1750561116069491000,1.245490966796875,-0.05403750017285347,-0.07823749631643295,0.14217500388622284
1750561116079095600,1.255095458984375,-0.06998749822378159,0.023237500339746475,0.035887498408555984
1750561116088700200,1.2647001953125,-0.052799999713897705,0.10023749619722366,-0.06063750013709068
1750561116098304800,1.2743046875,-0.01979999989271164,0.10999999940395355,-0.10587500035762787
1750561116107909400,1.283909423828125,0.015537500381469727,0.035475000739097595,-0.0728750005364418
1750561116117514200,1.29351416015625,0.04729999974370003,-0.05252499878406525,0.005362499970942736
1750561116127118800,1.303118896484375,0.06806249916553497,-0.07452499866485596,0.06393750011920929
1750561116136723500,1.312723388671875,0.06806249916553497,-0.0317624993622303,0.07012499868869781
1750561116146328000,1.322328125,0.03629999980330467,0.042762499302625656,0.02969999983906746
1750561116155933000,1.331932861328125,-0.016224998980760574,0.10628750175237656,-0.03987500071525574
1750561116165537800,1.341537841796875,-0.056512501090765,0.10628750175237656,-0.09968750178813934
1750561116175142400,1.351142333984375,-0.07975000143051147,0.02199999988079071,-0.11935000121593475
1750561116184747000,1.3607470703125,-0.09308750182390213,-0.12581250071525574,-0.07768750190734863
1750561116194351900,1.370351806640625,-0.08208750188350677,-0.20281249284744263,-0.006874999962747097
1750561116203956700,1.379956787109375,-0.050324998795986176,-0.2063875049352646,0.030937500298023224
1750561116213561300,1.389561279296875,-0.016224998980760574,-0.16005000472068787,0.021175000816583633
1750561116223166000,1.399166015625,0.011962499469518661,-0.09652499854564667,-0.014162499457597733
1750561116232770600,1.4087705078125,0.03272499889135361,-0.05623750016093254,-0.03863750025629997
1750561116242375200,1.418375244140625,0.04729999974370003,-0.05376249924302101,-0.027637500315904617
1750561116251979800,1.427979736328125,0.04001250118017197,-0.07452499866485596,0.005362499970942736
1750561116261584600,1.437584716796875,0.015537500381469727,-0.07933750003576279,0.04193750023841858
1750561116271189200,1.447189208984375,-0.014987500384449959,-0.02928750030696392,0.06641250103712082
1750561116280793900,1.4567939453125,-0.025987500324845314,0.03423750028014183,0.06764999777078629
1750561116290398500,1.4663984375,0.010724999941885471,0.03423750028014183,0.048124998807907104
1750561116300003300,1.47600341796875,0.06572499871253967,-0.05857500061392784,0.008937500417232513
1750561116309608200,1.485608154296875,0.11577499657869339,-0.1845249980688095,-0.024062499403953552
1750561116319212800,1.495212890625,0.15606249868869781,-0.2675749957561493,-0.03863750025629997
1750561116328817700,1.504817626953125,0.1658249944448471,-0.3188624978065491,-0.04592499881982803
1750561116338422300,1.51442236328125,0.1377750039100647,-0.3188624978065491,-0.04963750019669533
1750561116348027000,1.52402685546875,0.08277499675750732,-0.22962500154972076,-0.03863750025629997
1750561116357631700,1.5336318359375,0.002199999988079071,-0.09281250089406967,-0.019112499430775642
1750561116367236400,1.543236328125,-0.06998749822378159,0.0012374999932944775,-0.011824999935925007
1750561116376841000,1.552841064453125,-0.09556250274181366,0.0672374963760376,-0.019112499430775642
1750561116386445600,1.562445556640625,-0.07356250286102295,0.09776250272989273,-0.04592499881982803
1750561116396050200,1.57205029296875,-0.028462499380111694,0.06971249729394913,-0.06916250288486481
1750561116405655300,1.5816552734375,0.03753750026226044,0.01718750037252903,-0.05582499876618385
1750561116415260000,1.591260009765625,0.09501250088214874,-0.032999999821186066,-0.020349999889731407
1750561116424864800,1.60086474609375,0.09982500225305557,-0.04881250113248825,0.040699999779462814
1750561116434469400,1.610469482421875,0.06077500060200691,-0.010999999940395355,0.11522500216960907
1750561116444074000,1.620073974609375,0.013199999928474426,0.035475000739097595,0.15565000474452972
1750561116453678800,1.629678955078125,-0.021037500351667404,0.05004999786615372,0.1434125006198883
1750561116463283200,1.639283203125,-0.035750001668930054,0.03423750028014183,0.10312499850988388
1750561116472888000,1.64888818359375,-0.02956249937415123,0.007287499960511923,0.06270000338554382
1750561116482492700,1.65849267578125,-0.008799999952316284,-0.015812499448657036,0.028599999845027924
1750561116492097300,1.66809716796875,0.0009624999947845936,0,0.0004124999977648258
1750561116501702100,1.6777021484375,-0.007562499959021807,0.06228749826550484,-0.03863750025629997
1750561116511306800,1.687306640625,-0.02956249937415123,0.12099999934434891,-0.08758749812841415
1750561116520911600,1.69691162109375,-0.04427500069141388,0.13928750157356262,-0.12787500023841858
1750561116530516200,1.70651611328125,-0.02722499892115593,0.12099999934434891,-0.12787500023841858
1750561116540121000,1.71612109375,0.0032999999821186066,0.07081250101327896,-0.09116250276565552
1750561116549725700,1.7257255859375,0.022962499409914017,0.03423750028014183,-0.030112499371170998
1750561116559330600,1.73533056640625,0.02419999986886978,0.030524998903274536,0.016362499445676804
1750561116568935200,1.74493505859375,0.009487500414252281,0.032999999821186066,0.02736249938607216
1750561116578539800,1.754539794921875,-0.005224999971687794,0.02694999985396862,0.018699999898672104
1750561116588144400,1.764144287109375,-0.011274999938905239,-0.0037124999798834324,0.006599999964237213
1750561116597749000,1.7737490234375,-0.005224999971687794,-0.04028749838471413,0.01759999990463257
1750561116607353600,1.783353515625,0.007012499962002039,-0.07081250101327896,0.05664999783039093
1750561116616958500,1.79295849609375,0.014299999922513962,-0.07081250101327896,0.0859375
1750561116626563300,1.802563232421875,0.025299999862909317,-0.01952499896287918,0.07369999587535858
1750561116636168200,1.812168212890625,0.03629999980330467,0.05871250107884407,0.02241249941289425
1750561116645772800,1.821772705078125,0.03272499889135361,0.11123749613761902,-0.0411125011742115
1750561116655377400,1.83137744140625,0.021724998950958252,0.10023749619722366,-0.0826374962925911
1750561116664982000,1.84098193359375,0.014299999922513962,0.025712499395012856,-0.07163749635219574
1750561116674587000,1.8505869140625,0.021724998950958252,-0.06599999964237213,-0.004399999976158142
1750561116684191500,1.86019140625,0.03396249935030937,-0.11481250077486038,0.09446249902248383
1750561116693796000,1.869796142578125,0.04124999791383743,-0.09652499854564667,0.17765000462532043
1750561116703401000,1.87940087890625,0.04124999791383743,-0.05376249924302101,0.19593749940395355
1750561116713005300,1.88900537109375,0.03506249934434891,-0.01223750039935112,0.1494625061750412
1750561116722610200,1.898610107421875,0.022962499409914017,0.02199999988079071,0.07617499679327011
1750561116732214800,1.90821484375,0.008249999955296516,0.032999999821186066,0.005362499970942736
1750561116741819600,1.917819580078125,-0.002749999985098839,0.020762499421834946,-0.03492499887943268
1750561116751424300,1.92742431640625,-0.003987499978393316,-0.014574999921023846,-0.03135000169277191
1750561116761029000,1.937029052734375,-0.003987499978393316,-0.05857500061392784,0.0004124999977648258
1750561116770633700,1.9466337890625,-0.006462499964982271,-0.08304999768733978,0.038362499326467514
1750561116780238300,1.95623828125,-0.007562499959021807,-0.0635249987244606,0.0541750006377697
1750561116789843200,1.96584326171875,-0.016224998980760574,-0.028049999848008156,0.03464999794960022
1750561116799447800,1.97544775390625,-0.030799999833106995,0,0.006599999964237213
1750561116809052400,1.985052490234375,-0.038224998861551285,-0.002474999986588955,-0.013062499463558197
1750561116818657300,1.9946572265625,-0.030799999833106995,-0.023237500339746475,-0.004399999976158142
1750561116828262000,2.004261962890625,-0.0015124999918043613,-0.015812499448657036,0.02969999983906746
1750561116837866800,2.01386669921875,0.03753750026226044,0.015949999913573265,0.0541750006377697
1750561116847471400,2.023471435546875,0.06324999779462814,0.06104999780654907,0.04688749834895134
1750561116857076200,2.033076171875,0.08524999767541885,0.06476250290870667,0.015124999918043613
1750561116866680800,2.042680908203125,0.09748750180006027,-0.0012374999932944775,-0.019112499430775642
1750561116876285400,2.052285400390625,0.08030000329017639,-0.09281250089406967,-0.03382499888539314
1750561116885890300,2.061890380859375,0.0424874983727932,-0.14781250059604645,-0.022824998944997787
1750561116895495000,2.071494873046875,0.0057749999687075615,-0.13433749973773956,0.006599999964237213
1750561116905099500,2.081099609375,-0.008799999952316284,-0.0695749968290329,0.03217500075697899
1750561116914704400,2.090704345703125,-0.0015124999918043613,0.002474999986588955,0.04193750023841858
1750561116924309000,2.10030908203125,0.013199999928474426,0.0672374963760376,0.02488750033080578
1750561116933913600,2.10991357421875,0.025299999862909317,0.09652499854564667,-0.016637500375509262
1750561116943518200,2.119518310546875,0.02419999986886978,0.0989999994635582,-0.06063750013709068
1750561116953123000,2.129123046875,0.0032999999821186066,0.07823749631643295,-0.09487500041723251
1750561116962727700,2.138727783203125,-0.02956249937415123,0.028049999848008156,-0.10339999943971634
1750561116972332300,2.148332275390625,-0.05403750017285347,-0.03423750028014183,-0.07535000145435333
1750561116981937200,2.157937255859375,-0.06132499873638153,-0.07823749631643295,-0.011824999935925007
1750561116991542000,2.1675419921875,-0.055275000631809235,-0.09776250272989273,0.06641250103712082
1750561117001146600,2.177146728515625,-0.038224998861551285,-0.08057499676942825,0.12264999747276306
1750561117010751200,2.186751220703125,-0.014987500384449959,-0.030524998903274536,0.1274625062942505
1750561117020356000,2.196356201171875,-0.0015124999918043613,0.028049999848008156,0.08470000326633453
1750561117029960700,2.205960693359375,0.0057749999687075615,0.07452499866485596,0.021175000816583633
1750561117039565300,2.2155654296875,0.009487500414252281,0.07947500050067902,-0.03382499888539314
1750561117049170000,2.225169921875,0.011962499469518661,0.04647500067949295,-0.05692499876022339
1750561117058774800,2.23477490234375,0.0057749999687075615,-0.0085249999538064,-0.04963750019669533
1750561117068379400,2.24437939453125,-0.0002749999985098839,-0.05004999786615372,-0.015399999916553497
1750561117077984300,2.253984375,0.002199999988079071,-0.06476250290870667,0.026124998927116394
1750561117087589000,2.263589111328125,0.007012499962002039,-0.05004999786615372,0.0541750006377697
1750561117097193700,2.27319384765625,0.007012499962002039,-0.02199999988079071,0.048124998807907104
1750561117106798300,2.28279833984375,0.0032999999821186066,-0.006049999967217445,0.013887500390410423
1750561117116403000,2.29240283203125,-0.008799999952316284,0.0012374999932944775,-0.026399999856948853
1750561117126007600,2.302007568359375,-0.01251249946653843,-0.006049999967217445,-0.0411125011742115
1750561117135612400,2.3116123046875,-0.002749999985098839,-0.032999999821186066,-0.020349999889731407
1750561117145217000,2.321217041015625,0.029012499377131462,-0.05004999786615372,0.028599999845027924
1750561117154822000,2.33082177734375,0.06324999779462814,-0.054999999701976776,0.07493750005960464
1750561117164426500,2.340426513671875,0.07782500237226486,-0.05004999786615372,0.09569999575614929
1750561117174031400,2.35003125,0.07177499681711197,-0.020762499421834946,0.09212499856948853
1750561117183636000,2.359635986328125,0.05596249923110008,0.007287499960511923,0.07741250097751617
1750561117193240800,2.36924072265625,0.04606249928474426,0.01347499992698431,0.07864999771118164
1750561117202845400,2.378845458984375,0.04124999791383743,-0.007287499960511923,0.09569999575614929
1750561117212450000,2.388449951171875,0.03753750026226044,-0.037812501192092896,0.1311749964952469
1750561117222054700,2.3980546875,0.03396249935030937,-0.06104999780654907,0.17022499442100525
1750561117231659500,2.407659423828125,0.03506249934434891,-0.07328750193119049,0.1812250018119812
1750561117241264000,2.41726416015625,0.03148749843239784,-0.0635249987244606,0.14588749408721924
1750561117250868700,2.42686865234375,0.013199999928474426,-0.02199999988079071,0.07136250287294388
1750561117260473300,2.436473388671875,-0.005224999971687794,0.03671250119805336,-0.011824999935925007
1750561117270078200,2.446078125,-0.013749999925494194,0.08552499860525131,-0.07411249727010727
1750561117279683000,2.45568310546875,-0.002749999985098839,0.10381250083446503,-0.08992499858140945
1750561117289287700,2.46528759765625,0.021724998950958252,0.0989999994635582,-0.07039999961853027
1750561117298892500,2.474892578125,0.04001250118017197,0.08181250095367432,-0.03382499888539314
1750561117308497200,2.4844970703125,0.04606249928474426,0.045237500220537186,-0.0031624999828636646
1750561117318101800,2.494101806640625,0.03629999980330467,0,0.012649999931454659
1750561117327706600,2.50370654296875,0.010724999941885471,-0.01952499896287918,0.005362499970942736
1750561117337311200,2.513311279296875,-0.01979999989271164,-0.010999999940395355,-0.021587500348687172
1750561117346915800,2.522915771484375,-0.040562499314546585,0.00976249948143959,-0.05211250111460686
1750561117356520700,2.532520751953125,-0.03946249932050705,0.02447500079870224,-0.06792499870061874
1750561117366125300,2.542125244140625,-0.023512499406933784,0.02199999988079071,-0.06187500059604645
1750561117375730000,2.55172998046875,-0.003987499978393316,0.0085249999538064,-0.03863750025629997
1750561117385334500,2.56133447265625,0.014299999922513962,-0.010999999940395355,-0.011824999935925007
1750561117394939400,2.570939453125,0.02419999986886978,-0.04399999976158142,0.008937500417232513
1750561117404544300,2.580544189453125,0.021724998950958252,-0.06833750009536743,0.02969999983906746
1750561117414148900,2.59014892578125,-0.003987499978393316,-0.07328750193119049,0.038362499326467514
1750561117423753700,2.599753662109375,-0.03946249932050705,-0.04647500067949295,0.028599999845027924
1750561117433358300,2.6093583984375,-0.05898749828338623,0.00494999997317791,0.006599999964237213
1750561117442963000,2.618962890625,-0.06132499873638153,0.04895000159740448,-0.028875000774860382
1750561117452567600,2.628567626953125,-0.052799999713897705,0.08071249723434448,-0.06558749824762344
1750561117462172400,2.63817236328125,-0.033275000751018524,0.08923749625682831,-0.09487500041723251
1750561117471777000,2.647777099609375,-0.006462499964982271,0.06599999964237213,-0.09735000133514404
1750561117481381600,2.657381591796875,0.025299999862909317,0.02447500079870224,-0.06187500059604645
1750561117490986200,2.666986328125,0.05101250112056732,-0.02681249938905239,0.005362499970942736
1750561117500591000,2.676591064453125,0.06324999779462814,-0.05857500061392784,0.07136250287294388
1750561117510195700,2.68619580078125,0.0644875019788742,-0.07204999774694443,0.10917499661445618
1750561117519800600,2.695800537109375,0.05348749831318855,-0.06228749826550484,0.11646249890327454
1750561117529405200,2.7054052734375,0.030249999836087227,-0.02928750030696392,0.09693749994039536
1750561117539010000,2.715010009765625,0.009487500414252281,-0.01223750039935112,0.0541750006377697
1750561117548614700,2.72461474609375,0.009487500414252281,-0.01347499992698431,0.012649999931454659
1750561117558219500,2.734219482421875,0.01924999989569187,-0.035475000739097595,-0.017875000834465027
1750561117567824100,2.74382421875,0.03272499889135361,-0.04881250113248825,-0.026399999856948853
1750561117577428700,2.7534287109375,0.04496249929070473,-0.0317624993622303,-0.019112499430775642
1750561117587033300,2.763033447265625,0.05224999785423279,0,-0.013062499463558197
1750561117596638200,2.77263818359375,0.05829999968409538,0.03671250119805336,-0.024062499403953552
1750561117606242800,2.782242919921875,0.05706249922513962,0.06104999780654907,-0.05087500065565109
1750561117615847400,2.791847412109375,0.05101250112056732,0.04152499884366989,-0.07768750190734863
1750561117625452300,2.801452392578125,0.03629999980330467,0.006187499966472387,-0.08387500047683716
1750561117635057000,2.811056884765625,0.010724999941885471,-0.030524998903274536,-0.07411249727010727
1750561117644661800,2.820661865234375,-0.0002749999985098839,-0.0635249987244606,-0.05211250111460686
1750561117654266400,2.830266357421875,0.0032999999821186066,-0.06599999964237213,-0.030112499371170998
1750561117663871200,2.839871337890625,0.0032999999821186066,-0.0317624993622303,-0.027637500315904617
1750561117673475800,2.849475830078125,0.002199999988079071,0.030524998903274536,-0.04592499881982803
1750561117683080400,2.85908056640625,-0.0002749999985098839,0.06971249729394913,-0.08016250282526016
1750561117692685300,2.868685302734375,-0.0015124999918043613,0.0635249987244606,-0.1143999993801117
1750561117702290000,2.8782900390625,0.010724999941885471,0.01347499992698431,-0.13887499272823334
1750561117711894500,2.88789453125,0.03148749843239784,-0.025575000792741776,-0.13516250252723694
1750561117721499400,2.89749951171875,0.04977500066161156,-0.03657500073313713,-0.10944999754428864
1750561117731104000,2.90710400390625,0.05596249923110008,-0.023237500339746475,-0.08635000139474869
1750561117740708600,2.91670849609375,0.05472499877214432,0.01223750039935112,-0.06792499870061874
1750561117750313500,2.9263134765625,0.029012499377131462,0.05376249924302101,-0.04358749836683273
1750561117759918000,2.93591796875,-0.011274999938905239,0.0635249987244606,-0.017875000834465027
1750561117769523000,2.94552294921875,-0.03451250120997429,0.01347499992698431,0.01759999990463257
1750561117779127600,2.95512744140625,-0.02227500081062317,-0.05128749832510948,0.06764999777078629
1750561117788732400,2.964732421875,0.014299999922513962,-0.10257499665021896,0.1274625062942505
1750561117798337000,2.9743369140625,0.0387750007212162,-0.11728750169277191,0.17270000278949738
1750561117807941600,2.983941650390625,0.04729999974370003,-0.07933750003576279,0.1812250018119812
1750561117817546200,2.993546142578125,0.04606249928474426,-0.020762499421834946,0.14093749225139618
1750561117827151000,3.003151123046875,0.03506249934434891,0.045237500220537186,0.06393750011920929
1750561117836755700,3.012755615234375,0.02419999986886978,0.07452499866485596,-0.017875000834465027
1750561117846360600,3.022360595703125,0.022962499409914017,0.07452499866485596,-0.06792499870061874
1750561117855965200,3.031965087890625,0.03148749843239784,0.08676250278949738,-0.06435000151395798
1750561117865570000,3.041570068359375,0.04001250118017197,0.08676250278949738,-0.026399999856948853
1750561117875174700,3.051174560546875,0.04124999791383743,0.07081250101327896,0.023649999871850014
1750561117884779500,3.060779541015625,0.03272499889135361,0.0317624993622303,0.05912499874830246
1750561117894384000,3.070384033203125,0.022962499409914017,-0.010999999940395355,0.06393750011920929
1750561117903988700,3.07998876953125,0.014299999922513962,-0.03423750028014183,0.04441250115633011
1750561117913593600,3.089593505859375,0.011962499469518661,-0.0317624993622303,0.006599999964237213
1750561117923198200,3.0991982421875,0.010724999941885471,-0.004812499973922968,-0.03739999979734421
1750561117932802800,3.108802734375,0.014299999922513962,0.037950001657009125,-0.06558749824762344
1750561117942407700,3.11840771484375,0.013199999928474426,0.07081250101327896,-0.06311249732971191
1750561117952012300,3.12801220703125,0.007012499962002039,0.0672374963760376,-0.03863750025629997
1750561117961617200,3.1376171875,-0.002749999985098839,0.028049999848008156,-0.019112499430775642
1750561117971221800,3.1472216796875,-0.01979999989271164,-0.014574999921023846,-0.008112499490380287
1750561117980826600,3.15682666015625,-0.03698749840259552,-0.042762499302625656,-0.0008249999955296516
1750561117990431200,3.16643115234375,-0.04675000160932541,-0.059812501072883606,-0.0008249999955296516
1750561118000035800,3.176035888671875,-0.043037500232458115,-0.05128749832510948,-0.008112499490380287
1750561118009640400,3.185640380859375,-0.035750001668930054,-0.042762499302625656,-0.021587500348687172
1750561118019245300,3.195245361328125,-0.02956249937415123,-0.04028749838471413,-0.03258749842643738
1750561118028850000,3.204849853515625,-0.023512499406933784,-0.02447500079870224,-0.030112499371170998
1750561118038454500,3.21445458984375,-0.01746249943971634,-0.00976249948143959,-0.017875000834465027
1750561118048059100,3.22405908203125,-0.014987500384449959,0.0147124994546175,-0.0056374999694526196
1750561118057664000,3.2336640625,-0.01251249946653843,0.032999999821186066,-0.006874999962747097
1750561118067268900,3.243268798828125,-0.003987499978393316,0.032999999821186066,-0.017875000834465027
1750561118076873500,3.25287353515625,0.0009624999947845936,0.01223750039935112,-0.019112499430775642
1750561118086478000,3.26247802734375,0.004537499975413084,-0.032999999821186066,0.0004124999977648258
1750561118096082700,3.272082763671875,0.009487500414252281,-0.08304999768733978,0.03946249932050705
1750561118105687600,3.2816875,0.011962499469518661,-0.09776250272989273,0.07741250097751617
1750561118115292200,3.291292236328125,0.009487500414252281,-0.06599999964237213,0.082225002348423
1750561118124897000,3.30089697265625,0.008249999955296516,-0.0085249999538064,0.040699999779462814
1750561118134502000,3.310501953125,0.013199999928474426,0.045237500220537186,-0.027637500315904617
1750561118144106500,3.3201064453125,0.020487500354647636,0.08428750187158585,-0.08387500047683716
1750561118153711000,3.329711181640625,0.025299999862909317,0.08071249723434448,-0.10711249709129333
1750561118163315700,3.339315673828125,0.025299999862909317,0.03904999792575836,-0.09116250276565552
1750561118172920300,3.34892041015625,0.025299999862909317,-0.015812499448657036,-0.03987500071525574
1750561118182525200,3.358525146484375,0.027775000780820847,-0.05623750016093254,0.028599999845027924
1750561118192129800,3.3681298828125,0.03506249934434891,-0.0695749968290329,0.09446249902248383
1750561118201734700,3.377734619140625,0.05101250112056732,-0.059812501072883606,0.1214125007390976
1750561118211339500,3.387339599609375,0.05596249923110008,-0.02928750030696392,0.09088750183582306
1750561118220944100,3.396944091796875,0.0424874983727932,0.020762499421834946,0.023649999871850014
1750561118230548700,3.406548828125,0.01677500084042549,0.05376249924302101,-0.05692499876022339
1750561118240153600,3.416153564453125,0.0009624999947845936,0.05871250107884407,-0.11563749611377716
1750561118249758200,3.42575830078125,-0.0002749999985098839,0.02694999985396862,-0.1303499937057495
1750561118259362800,3.43536279296875,0.009487500414252281,-0.02928750030696392,-0.09858749806880951
1750561118268967400,3.444967529296875,0.01924999989569187,-0.07328750193119049,-0.03739999979734421
1750561118278572000,3.454572021484375,0.022962499409914017,-0.07204999774694443,0.018699999898672104
1750561118288177200,3.46417724609375,0.018012499436736107,-0.03423750028014183,0.040699999779462814
1750561118297781800,3.47378173828125,0.0032999999821186066,0.00976249948143959,0.01993750035762787
1750561118307386400,3.483386474609375,-0.02227500081062317,0.035475000739097595,-0.026399999856948853
1750561118316991200,3.4929912109375,-0.03451250120997429,0.04399999976158142,-0.06792499870061874
1750561118326595800,3.502595947265625,-0.025987500324845314,0.028049999848008156,-0.08139999955892563
1750561118336200400,3.512200439453125,-0.005224999971687794,0.00976249948143959,-0.06187500059604645
1750561118345805300,3.521805419921875,0.015537500381469727,0.0012374999932944775,-0.022824998944997787
1750561118355410000,3.531409912109375,0.02419999986886978,0.010999999940395355,0.011412499472498894
1750561118365014800,3.541014892578125,0.021724998950958252,0.02694999985396862,0.018699999898672104
1750561118374619400,3.550619384765625,0.009487500414252281,0.020762499421834946,0.006599999964237213
1750561118384224000,3.56022412109375,-0.005224999971687794,-0.0037124999798834324,-0.0008249999955296516
1750561118393828900,3.569828857421875,-0.02227500081062317,-0.02928750030696392,0.005362499970942736
1750561118403433700,3.579433837890625,-0.035750001668930054,-0.04399999976158142,0.02241249941289425
1750561118413038300,3.589038330078125,-0.033275000751018524,-0.028049999848008156,0.045649997889995575
1750561118422643000,3.598642822265625,-0.013749999925494194,-0.007287499960511923,0.05664999783039093
1750561118432247600,3.60824755859375,0.013199999928474426,0.010999999940395355,0.04936249926686287
1750561118441852400,3.617852294921875,0.030249999836087227,0.02199999988079071,0.01759999990463257
1750561118451457000,3.62745703125,0.03629999980330467,0.03671250119805336,-0.025162499397993088
1750561118461061600,3.6370615234375,0.029012499377131462,0.04399999976158142,-0.05939999967813492
1750561118470666500,3.64666650390625,0.020487500354647636,0.035475000739097595,-0.06916250288486481
1750561118480271000,3.65627099609375,0.013199999928474426,0.0147124994546175,-0.05816249921917915
1750561118489875700,3.665875732421875,-0.0002749999985098839,-0.01347499992698431,-0.03863750025629997
1750561118499480600,3.67548046875,-0.010037500411272049,-0.02928750030696392,-0.026399999856948853
1750561118509085200,3.685085205078125,-0.011274999938905239,-0.02199999988079071,-0.03382499888539314
1750561118518689800,3.694689697265625,-0.0015124999918043613,-0.0037124999798834324,-0.0448249988257885
1750561118528295000,3.704294921875,0.007012499962002039,0.02928750030696392,-0.05087500065565109
1750561118537899500,3.7138994140625,0.011962499469518661,0.06847500056028366,-0.05087500065565109
1750561118547504000,3.723504150390625,0.009487500414252281,0.08304999768733978,-0.04358749836683273
1750561118557109000,3.73310888671875,0.0009624999947845936,0.05623750016093254,-0.03987500071525574
1750561118566713600,3.742713623046875,-0.013749999925494194,0.002474999986588955,-0.04839999973773956
1750561118576318200,3.752318115234375,-0.030799999833106995,-0.05252499878406525,-0.05816249921917915
1750561118585922800,3.7619228515625,-0.043037500232458115,-0.08552499860525131,-0.06063750013709068
1750561118595527700,3.771527587890625,-0.038224998861551285,-0.08057499676942825,-0.0471624992787838
1750561118605132500,3.781132568359375,-0.01979999989271164,-0.037812501192092896,-0.019112499430775642
1750561118614737200,3.790737060546875,0.002199999988079071,0.020762499421834946,-0.002062499988824129
1750561118624341800,3.800341796875,0.009487500414252281,0.05252499878406525,-0.013062499463558197
1750561118633946600,3.809946533203125,0.0032999999821186066,0.05871250107884407,-0.03739999979734421
1750561118643551200,3.81955126953125,-0.006462499964982271,0.057475000619888306,-0.06558749824762344
1750561118653155800,3.82915576171875,-0.02474999986588955,0.047712501138448715,-0.09363749623298645
1750561118662760700,3.8387607421875,-0.030799999833106995,0.035475000739097595,-0.10216250270605087
1750561118672365300,3.848365234375,-0.02474999986588955,0.010999999940395355,-0.07768750190734863
1750561118681970000,3.857969970703125,-0.01251249946653843,-0.02199999988079071,-0.025162499397993088
1750561118691574500,3.867574462890625,-0.0002749999985098839,-0.054999999701976776,0.03217500075697899
1750561118701179400,3.877179443359375,0.011962499469518661,-0.07452499866485596,0.06888750195503235
1750561118710784300,3.8867841796875,0.022962499409914017,-0.054999999701976776,0.07369999587535858
1750561118720388900,3.896388916015625,0.027775000780820847,-0.01223750039935112,0.045649997889995575
1750561118729993700,3.90599365234375,0.01677500084042549,0.04399999976158142,-0.008112499490380287
1750561118739598300,3.915598388671875,-0.005224999971687794,0.08923749625682831,-0.07039999961853027
1750561118749203000,3.925202880859375,-0.025987500324845314,0.10257499665021896,-0.12044999748468399
1750561118758807800,3.934807861328125,-0.035750001668930054,0.08923749625682831,-0.1363999992609024
1750561118768412400,3.944412353515625,-0.03698749840259552,0.04647500067949295,-0.1143999993801117
1750561118778017000,3.95401708984375,-0.035750001668930054,-0.0037124999798834324,-0.06558749824762344
1750561118787622000,3.963621826171875,-0.025987500324845314,-0.02928750030696392,-0.010587500408291817
1750561118797226500,3.9732265625,-0.011274999938905239,-0.020762499421834946,0.035887498408555984
1750561118806831000,3.9828310546875,0.0032999999821186066,-0.002474999986588955,0.0541750006377697
1750561118816436000,3.99243603515625,0.002199999988079071,0.015949999913573265,0.03712499886751175
1750561118826040600,4.00204052734375,-0.0015124999918043613,0.02199999988079071,-0.002062499988824129
1750561118835645400,4.0116455078125,-0.005224999971687794,0.015949999913573265,-0.04358749836683273
1750561118845250300,4.021250244140625,-0.011274999938905239,0.0085249999538064,-0.06063750013709068
1750561118854855000,4.03085498046875,-0.013749999925494194,-0.002474999986588955,-0.0448249988257885
1750561118864459500,4.04045947265625,-0.003987499978393316,-0.0085249999538064,-0.004399999976158142
1750561118874064100,4.050064208984375,0.018012499436736107,-0.010999999940395355,0.03464999794960022
1750561118883669000,4.0596689453125,0.03629999980330467,-0.004812499973922968,0.048124998807907104
1750561118893273600,4.069273681640625,0.04977500066161156,0.002474999986588955,0.026124998927116394
1750561118902878200,4.078878173828125,0.04853750020265579,0,-0.026399999856948853
1750561118912483000,4.088483154296875,0.030249999836087227,0,-0.08139999955892563
1750561118922088000,4.098087890625,0.011962499469518661,-0.0085249999538064,-0.1143999993801117
1750561118931692500,4.107692626953125,-0.0002749999985098839,-0.0037124999798834324,-0.11687500029802322
1750561118941297200,4.117297119140625,-0.010037500411272049,0.030524998903274536,-0.10711249709129333
1750561118950902000,4.126902099609375,-0.007562499959021807,0.07699999958276749,-0.10092499852180481
1750561118960506600,4.136506591796875,0.010724999941885471,0.11481250077486038,-0.09858749806880951
1750561118970111500,4.146111572265625,0.03396249935030937,0.13805000483989716,-0.10092499852180481
1750561118979716000,4.155716064453125,0.04977500066161156,0.1368124932050705,-0.1143999993801117
1750561118989321000,4.165321044921875,0.05706249922513962,0.11247500032186508,-0.1106875017285347
1750561118998925600,4.174925537109375,0.04372499883174896,0.0672374963760376,-0.07411249727010727
1750561119008530200,4.1845302734375,-0.0002749999985098839,-0.0012374999932944775,-0.022824998944997787
1750561119018134800,4.194134765625,-0.04427500069141388,-0.07081250101327896,0.02241249941289425
1750561119027739400,4.203739501953125,-0.07232499867677689,-0.1050499975681305,0.04193750023841858
1750561119037344300,4.21334423828125,-0.07851249724626541,-0.10752499848604202,0.040699999779462814
1750561119046948900,4.222948974609375,-0.06875000149011612,-0.09652499854564667,0.01993750035762787
1750561119056553700,4.2325537109375,-0.045512501150369644,-0.06228749826550484,0.0016499999910593033
1750561119066158300,4.242158447265625,-0.010037500411272049,0.006187499966472387,-0.0056374999694526196
1750561119075763200,4.25176318359375,0.011962499469518661,0.08181250095367432,-0.022824998944997787
1750561119085367800,4.261367919921875,0.018012499436736107,0.12099999934434891,-0.05458749830722809
1750561119094972700,4.27097265625,0.014299999922513962,0.1050499975681305,-0.08511249721050262
1750561119104577300,4.280577392578125,0.0032999999821186066,0.07823749631643295,-0.09363749623298645
1750561119114182000,4.290181884765625,-0.021037500351667404,0.07204999774694443,-0.09363749623298645
1750561119123786800,4.299786865234375,-0.038224998861551285,0.07947500050067902,-0.08139999955892563
1750561119133391600,4.3093916015625,-0.038224998861551285,0.04647500067949295,-0.05211250111460686
1750561119142996200,4.318996337890625,-0.02474999986588955,-0.025575000792741776,-0.008112499490380287
1750561119152600800,4.328600830078125,-0.006462499964982271,-0.09281250089406967,0.045649997889995575
1750561119162205400,4.338205322265625,0.010724999941885471,-0.11481250077486038,0.08112499862909317
1750561119171810300,4.347810302734375,0.01677500084042549,-0.09776250272989273,0.07864999771118164
1750561119181415000,4.357414794921875,0.0032999999821186066,-0.05623750016093254,0.03712499886751175
1750561119191019800,4.367019775390625,-0.021037500351667404,-0.00976249948143959,-0.03382499888539314
1750561119200624400,4.376624267578125,-0.03451250120997429,0.02928750030696392,-0.09968750178813934
1750561119210229000,4.38622900390625,-0.02722499892115593,0.057475000619888306,-0.14863750338554382
1750561119219833900,4.395833740234375,-0.005224999971687794,0.06971249729394913,-0.16568750143051147
1750561119229438500,4.4054384765625,0.021724998950958252,0.06971249729394913,-0.15468749403953552
1750561119239043300,4.415043212890625,0.04496249929070473,0.0635249987244606,-0.14121249318122864
1750561119248648000,4.42464794921875,0.06077500060200691,0.06847500056028366,-0.1363999992609024
1750561119258252500,4.43425244140625,0.05596249923110008,0.05128749832510948,-0.13392500579357147
1750561119267857200,4.443857177734375,0.018012499436736107,0.0037124999798834324,-0.08758749812841415
1750561119277462000,4.4534619140625,-0.038224998861551285,-0.07933750003576279,0.026124998927116394
1750561119287067000,4.46306689453125,-0.0882750004529953,-0.21504999697208405,0.1751749962568283
1750561119296671500,4.47267138671875,-0.10656250268220901,-0.35062500834465027,0.3254624903202057
1750561119306276000,4.482276123046875,-0.10298749804496765,-0.4801499843597412,0.4670875072479248
1750561119315881000,4.491880859375,-0.09927500039339066,-0.5656750202178955,0.6650875210762024
1750561119325485600,4.501485595703125,-0.12127500027418137,-0.6499624848365784,0.9009000062942505
1750561119335090200,4.511090087890625,-0.14932499825954437,-0.7672500014305115,1.2208625078201294
1750561119344695000,4.520695068359375,-0.17627499997615814,-0.8722999691963196,1.6216750144958496
1750561119354299600,4.530299560546875,-0.2116124927997589,-0.9480624794960022,2.000349998474121
1750561119363904500,4.539904541015625,-0.19827499985694885,-0.9675874710083008,2.324162483215332
1750561119373509400,4.54950927734375,-0.12484999746084213,-0.8760125041007996,2.5770249366760254
1750561119383114000,4.559114013671875,-0.033275000751018524,-0.7000125050544739,2.7565999031066895
1750561119392718600,4.568718505859375,0.06201250106096268,-0.3543374836444855,2.856837511062622
1750561119402323200,4.5783232421875,0.16101250052452087,0.0085249999538064,2.832362413406372
1750561119411928000,4.587927978515625,0.28929999470710754,0.3433375060558319,2.723599910736084
1750561119421532700,4.59753271484375,0.4358749985694885,0.5704874992370605,2.5709750652313232
1750561119431137300,4.60713720703125,0.5726875066757202,0.6414374709129333,2.3986876010894775
1750561119440742100,4.6167421875,0.682687520980835,0.6279624700546265,2.2312123775482178
1750561119450347000,4.626346923828125,0.7119749784469604,0.5852000117301941,2.0613999366760254
1750561119459951900,4.635951904296875,0.6850249767303467,0.5559124946594238,1.895300030708313
1750561119469556500,4.645556396484375,0.6740249991416931,0.6829624772071838,1.703487515449524
1750561119479161000,4.6551611328125,0.7277874946594238,0.8870124816894531,1.433437466621399
1750561119488765700,4.664765625,0.8414999842643738,1.0921624898910522,1.1035749912261963
1750561119498370600,4.67437060546875,0.9660750031471252,1.259637475013733,0.7506124973297119
1750561119507975200,4.68397509765625,1.1053625345230103,1.3329249620437622,0.39627498388290405
1750561119517579800,4.693579833984375,1.2581249475479126,1.3414499759674072,0.016362499445676804
1750561119527184400,4.703184326171875,1.3729374408721924,1.2694000005722046,-0.40149998664855957
1750561119536789200,4.712789306640625,1.4180375337600708,1.1666874885559082,-0.8339374661445618
1750561119546394000,4.72239404296875,1.3937000036239624,1.0433499813079834,-1.253037452697754
1750561119555999000,4.7319990234375,1.299649953842163,0.9125875234603882,-1.6097124814987183
1750561119565603600,4.741603515625,1.1957000494003296,0.8185374736785889,-1.8847124576568604
1750561119575208200,4.751208251953125,1.1383625268936157,0.7024874687194824,-2.1290500164031982
1750561119584813000,4.76081298828125,1.128600001335144,0.5583875179290771,-2.376962423324585
1750561119594417700,4.770417724609375,1.1676499843597412,0.3531000018119812,-2.62996244430542
1750561119604022300,4.780022216796875,1.177412509918213,0.08552499860525131,-2.8950624465942383
1750561119613627100,4.789627197265625,1.107837438583374,-0.18933749198913574,-3.1161625385284424
1750561119623231700,4.799231689453125,0.9770749807357788,-0.37014999985694885,-3.2614998817443848
1750561119632836400,4.80883642578125,0.7889750003814697,-0.4104374945163727,-3.3543124198913574
1750561119642441000,4.81844091796875,0.5812125205993652,-0.3139125108718872,-3.4350249767303467
1750561119652045800,4.8280458984375,0.3833499848842621,-0.19304999709129333,-3.5485999584198
1750561119661650400,4.837650390625,0.24406249821186066,-0.1368124932050705,-3.6781249046325684
1750561119671255300,4.84725537109375,0.12553749978542328,-0.19910000264644623,-3.8466999530792236
1750561119680860200,4.856860107421875,-0.055275000631809235,-0.36162498593330383,-3.9554624557495117
1750561119690464800,4.86646484375,-0.26413750648498535,-0.5167250037193298,-3.824699878692627
1750561119700069400,4.8760693359375,-0.5684249997138977,-0.6182000041007996,-3.371500015258789
1750561119709674000,4.885674072265625,-0.952049970626831,-0.550962507724762,-2.551724910736084
1750561119719278800,4.89527880859375,-1.3087249994277954,-0.5119125247001648,-1.4936624765396118
1750561119728883500,4.904883544921875,-1.5274875164031982,-0.6499624848365784,-0.39902499318122864
1750561119738488300,4.91448828125,-1.5665374994277954,-0.8343499898910522,0.4573250114917755
1750561119748093000,4.924093017578125,-1.5360125303268433,-0.8515374660491943,0.9570000171661377
1750561119757697800,4.93369775390625,-1.5237749814987183,-0.5436750054359436,1.187999963760376
1750561119767302400,4.943302490234375,-1.4944875240325928,-0.15386250615119934,1.1940499544143677
1750561119776907300,4.9529072265625,-1.4224375486373901,0.10381250083446503,1.096287488937378
1750561119786512000,4.962511962890625,-1.3442000150680542,0.19181250035762787,1.0290499925613403
1750561119796116500,4.972116455078125,-1.3429625034332275,0.2040500044822693,1.0902374982833862
1750561119805721000,4.98172119140625,-1.350250005722046,0.32862499356269836,1.2893375158309937
1750561119815326000,4.991325927734375,-1.2819124460220337,0.36781248450279236,1.5056250095367432
1750561119824930800,5.000930908203125,-1.1658624410629272,0.3591499924659729,1.7364875078201294
1750561119834535200,5.01053515625,-1.0106250047683716,0.45210000872612,1.9551124572753906
1750561119844140000,5.02014013671875,-0.7919999957084656,0.5461499691009521,2.0455875396728516
1750561119853744600,5.02974462890625,-0.5378999710083008,0.5009124875068665,1.9355875253677368
1750561119863349500,5.039349609375,-0.2983750104904175,0.340862512588501,1.6570124626159668
1750561119872954400,5.048954345703125,-0.1200374960899353,0.1588124930858612,1.2978625297546387
1750561119882559200,5.058559326171875,-0.04922499880194664,0.13557499647140503,0.9521874785423279
1750561119892163600,5.06816357421875,-0.07356250286102295,0.329862505197525,0.6956124901771545
1750561119901768400,5.0777685546875,-0.1260875016450882,0.5937250256538391,0.5733749866485596
1750561119911373000,5.087373046875,-0.10532499849796295,0.808775007724762,0.6039000153541565
1750561119920977700,5.096977783203125,0.022962499409914017,0.8392999768257141,0.7126625180244446
1750561119930582500,5.10658251953125,0.20611250400543213,0.6549124717712402,0.7761874794960022
1750561119940187100,5.116187255859375,0.33687499165534973,0.35791251063346863,0.7126625180244446
1750561119949791700,5.125791748046875,0.3161124885082245,0.12223749607801437,0.5355625152587891
1750561119959396900,5.13539697265625,0.19882500171661377,0.00976249948143959,0.3057999908924103
1750561119969001500,5.14500146484375,0.06929999589920044,-0.020762499421834946,0.06393750011920929
1750561119978606000,5.154606201171875,0.010724999941885471,0.0147124994546175,-0.16940000653266907
1750561119988211000,5.1642109375,0.030249999836087227,0.03423750028014183,-0.3917374908924103
1750561119997815600,5.173815673828125,0.08277499675750732,0.07699999958276749,-0.5383124947547913
1750561120007420200,5.183420166015625,0.11824999749660492,0.23704999685287476,-0.565262496471405
1750561120017025000,5.19302490234375,0.1438249945640564,0.44591251015663147,-0.5102624893188477
1750561120026629600,5.202629638671875,0.1597750037908554,0.524150013923645,-0.43078750371932983
1750561120036234200,5.212234130859375,0.1597750037908554,0.4324375092983246,-0.36726251244544983
1750561120045838800,5.2218388671875,0.1280124932527542,0.1905750036239624,-0.32945001125335693
1750561120055443700,5.231443603515625,0.05706249922513962,-0.10752499848604202,-0.29768750071525574
1750561120065048600,5.241048583984375,-0.02956249937415123,-0.35791251063346863,-0.24392500519752502
1750561120074653400,5.2506533203125,-0.08951249718666077,-0.4641999900341034,-0.16568750143051147
1750561120084258000,5.260258056640625,-0.1163249984383583,-0.4166249930858612,-0.08868750184774399
1750561120093862700,5.269862548828125,-0.1237500011920929,-0.23457500338554382,-0.0471624992787838
1750561120103467500,5.279467529296875,-0.09075000137090683,-0.0037124999798834324,-0.0668250024318695
1750561120113072000,5.289072021484375,-0.02956249937415123,0.1905750036239624,-0.1522125005722046
1750561120122676700,5.2986767578125,0.04606249928474426,0.3030500113964081,-0.2536875009536743
1750561120132281300,5.30828125,0.1060125008225441,0.32133749127388,-0.30373749136924744
1750561120141886200,5.31788623046875,0.13158750534057617,0.28833749890327454,-0.2793999910354614
1750561120151490800,5.32749072265625,0.11701250076293945,0.1905750036239624,-0.21216249465942383
1750561120161095400,5.337095458984375,0.07548750191926956,0.032999999821186066,-0.15716250240802765
1750561120170700300,5.3467001953125,0.015537500381469727,-0.11357499659061432,-0.1326874941587448
1750561120180305000,5.356304931640625,-0.060224998742341995,-0.18081249296665192,-0.13392500579357147
1750561120189909800,5.36590966796875,-0.13474999368190765,-0.1428624987602234,-0.14121249318122864
1750561120199514600,5.3755146484375,-0.16279999911785126,-0.06833750009536743,-0.14863750338554382
1750561120209119200,5.385119140625,-0.1335124969482422,-0.032999999821186066,-0.13763749599456787
1750561120218723800,5.394723876953125,-0.06875000149011612,-0.018287500366568565,-0.0765874981880188
1750561120228328400,5.404328369140625,-0.0002749999985098839,-0.020762499421834946,0.010174999944865704
1750561120237933300,5.413933349609375,0.06077500060200691,-0.025575000792741776,0.060362499207258224
1750561120247538000,5.423537841796875,0.09982500225305557,-0.032999999821186066,0.040699999779462814
1750561120257142500,5.433142578125,0.09982500225305557,-0.018287500366568565,-0.011824999935925007
1750561120266747400,5.442747314453125,0.06201250106096268,0.0012374999932944775,-0.07535000145435333
1750561120276352000,5.45235205078125,-0.003987499978393316,0.00976249948143959,-0.12416250258684158
1750561120285956900,5.461956787109375,-0.0625625029206276,0.0085249999538064,-0.1143999993801117
1750561120295561500,5.4715615234375,-0.09308750182390213,0.015949999913573265,-0.0448249988257885
1750561120305166300,5.481166259765625,-0.08579999953508377,0.007287499960511923,0.035887498408555984
1750561120314771000,5.49077099609375,-0.050324998795986176,-0.0170499999076128,0.0859375
1750561120324375800,5.500375732421875,-0.0015124999918043613,-0.042762499302625656,0.08346249908208847
1750561120333980400,5.50998046875,0.03629999980330467,-0.03904999792575836,0.04193750023841858
1750561120343585000,5.5195849609375,0.04729999974370003,-0.03423750028014183,-0.019112499430775642
1750561120353190000,5.52918994140625,0.0424874983727932,-0.02199999988079071,-0.06187500059604645
1750561120362794500,5.53879443359375,0.015537500381469727,-0.01347499992698431,-0.0789249986410141
1750561120372399000,5.548399169921875,-0.033275000751018524,-0.002474999986588955,-0.0789249986410141
1750561120382004000,5.55800390625,-0.06875000149011612,-0.004812499973922968,-0.05816249921917915
1750561120391608600,5.567608642578125,-0.06751249730587006,-0.010999999940395355,-0.026399999856948853
1750561120401213400,5.57721337890625,-0.03203750029206276,-0.01952499896287918,-0.002062499988824129
1750561120410818000,5.586818115234375,0.018012499436736107,-0.04152499884366989,0.011412499472498894
1750561120420423000,5.5964228515625,0.05472499877214432,-0.06599999964237213,0.01993750035762787
1750561120430027500,5.606027587890625,0.0705375000834465,-0.07204999774694443,0.03712499886751175
1750561120439632400,5.61563232421875,0.06696250289678574,-0.03904999792575836,0.04193750023841858
1750561120449237000,5.625237060546875,0.04372499883174896,0,0.013887500390410423
1750561120458841600,5.634841552734375,0.027775000780820847,0.057475000619888306,-0.020349999889731407
1750561120468446200,5.6444462890625,0.0057749999687075615,0.10257499665021896,-0.05335000157356262
1750561120478051000,5.654051025390625,-0.01979999989271164,0.10999999940395355,-0.06187500059604645
1750561120487656000,5.663656005859375,-0.035750001668930054,0.07081250101327896,-0.03739999979734421
1750561120497260500,5.673260498046875,-0.02474999986588955,0,0.021175000816583633
1750561120506865400,5.682865478515625,0.007012499962002039,-0.06833750009536743,0.09941250085830688
1750561120516470000,5.692469970703125,0.0387750007212162,-0.0989999994635582,0.1592250019311905
1750561120526074600,5.70207470703125,0.05953750014305115,-0.08552499860525131,0.16417500376701355
1750561120535679500,5.711679443359375,0.06077500060200691,-0.032999999821186066,0.11522500216960907
1750561120545284000,5.7212841796875,0.04977500066161156,0.030524998903274536,0.04193750023841858
1750561120554888700,5.730888671875,0.022962499409914017,0.07947500050067902,-0.028875000774860382
1750561120564493600,5.74049365234375,-0.018562499433755875,0.13805000483989716,-0.08758749812841415
1750561120574098200,5.75009814453125,-0.04922499880194664,0.15633749961853027,-0.12787500023841858
1750561120583702800,5.759702880859375,-0.057750001549720764,0.12581250071525574,-0.13763749599456787
1750561120593307400,5.769307373046875,-0.05156249925494194,0.05871250107884407,-0.11563749611377716
1750561120602912300,5.778912353515625,-0.033275000751018524,-0.02447500079870224,-0.06792499870061874
1750561120612517000,5.78851708984375,-0.014987500384449959,-0.05376249924302101,-0.006874999962747097
1750561120622121700,5.798121826171875,-0.005224999971687794,-0.023237500339746475,0.043175000697374344
1750561120631726600,5.8077265625,-0.0015124999918043613,0.02447500079870224,0.04441250115633011
1750561120641331200,5.817331298828125,-0.006462499964982271,0.04152499884366989,-0.0008249999955296516
1750561120650935800,5.826935791015625,-0.003987499978393316,0.035475000739097595,-0.05582499876618385
1750561120660540700,5.836540771484375,-0.006462499964982271,0.018287500366568565,-0.09735000133514404
1750561120670145300,5.846145263671875,-0.010037500411272049,-0.010999999940395355,-0.10339999943971634
1750561120679750000,5.85575,-0.008799999952316284,-0.037812501192092896,-0.0728750005364418
1750561120689355000,5.86535498046875,-0.006462499964982271,-0.05128749832510948,-0.030112499371170998
1750561120698959400,5.87495947265625,-0.0015124999918043613,-0.02681249938905239,-0.002062499988824129
1750561120708564200,5.884564208984375,0.004537499975413084,0.020762499421834946,0.008937500417232513
1750561120718169000,5.894169189453125,0.013199999928474426,0.04399999976158142,0.010174999944865704
1750561120727773700,5.903773681640625,0.014299999922513962,0.030524998903274536,0.011412499472498894
1750561120737378300,5.91337841796875,-0.006462499964982271,-0.018287500366568565,0.01759999990463257
1750561120746983200,5.922983154296875,-0.030799999833106995,-0.07328750193119049,0.01993750035762787
1750561120756587800,5.932587890625,-0.043037500232458115,-0.10876250267028809,0.015124999918043613
1750561120766192400,5.9421923828125,-0.04179999977350235,-0.10628750175237656,0.0004124999977648258
1750561120775797200,5.95179736328125,-0.033275000751018524,-0.06833750009536743,-0.025162499397993088
1750561120785401900,5.96140185546875,-0.011274999938905239,-0.007287499960511923,-0.05087500065565109
1750561120795006700,5.9710068359375,0.009487500414252281,0.045237500220537186,-0.06063750013709068
1750561120804611600,5.980611572265625,0.014299999922513962,0.08071249723434448,-0.04963750019669533
1750561120814216000,5.9902158203125,0.009487500414252281,0.08304999768733978,-0.025162499397993088
1750561120823820800,5.99982080078125,-0.002749999985098839,0.06104999780654907,-0.010587500408291817
1750561120833425700,6.00942578125,-0.016224998980760574,-0.0012374999932944775,-0.014162499457597733
1750561120843030300,6.0190302734375,-0.030799999833106995,-0.07823749631643295,-0.026399999856948853
1750561120852635000,6.028634765625,-0.045512501150369644,-0.11110000312328339,-0.04358749836683273
1750561120862239500,6.038239501953125,-0.05156249925494194,-0.08057499676942825,-0.06187500059604645
1750561120871844400,6.04784423828125,-0.040562499314546585,-0.020762499421834946,-0.07535000145435333
1750561120881449000,6.057448974609375,-0.010037500411272049,0.025712499395012856,-0.07039999961853027
1750561120891053600,6.067053466796875,0.020487500354647636,0.04152499884366989,-0.04839999973773956
1750561120900658400,6.076658447265625,0.026537500321865082,0.05004999786615372,-0.026399999856948853
1750561120910263300,6.08626318359375,0.009487500414252281,0.0672374963760376,-0.026399999856948853
1750561120919868000,6.095867919921875,-0.02227500081062317,0.09281250089406967,-0.05939999967813492
1750561120929472800,6.10547265625,-0.050324998795986176,0.0952875018119812,-0.09858749806880951
1750561120939077400,6.115077392578125,-0.06875000149011612,0.05376249924302101,-0.1143999993801117
1750561120948682000,6.124681884765625,-0.06627500057220459,-0.020762499421834946,-0.09239999949932098
1750561120958286800,6.134286865234375,-0.040562499314546585,-0.0989999994635582,-0.03616249933838844
1750561120967891500,6.143891357421875,-0.013749999925494194,-0.12952500581741333,0.018699999898672104
1750561120977496300,6.153496337890625,-0.002749999985098839,-0.10876250267028809,0.0541750006377697
1750561120987101000,6.163100830078125,-0.003987499978393316,-0.02681249938905239,0.06888750195503235
1750561120996705500,6.17270556640625,-0.002749999985098839,0.06476250290870667,0.048124998807907104
1750561121006310100,6.18231005859375,0.013199999928474426,0.10876250267028809,-0.006874999962747097
1750561121015915000,6.1919150390625,0.030249999836087227,0.12099999934434891,-0.06558749824762344
1750561121025519900,6.201519775390625,0.03506249934434891,0.0989999994635582,-0.12044999748468399
1750561121035124700,6.211124755859375,0.022962499409914017,0.06228749826550484,-0.1621125042438507
1750561121044729300,6.220729248046875,0.008249999955296516,0.04399999976158142,-0.16940000653266907
1750561121054334000,6.230333984375,-0.003987499978393316,0.042762499302625656,-0.1621125042438507
1750561121063938600,6.2399384765625,-0.007562499959021807,0.059812501072883606,-0.164450004696846
1750561121073543400,6.24954345703125,0.002199999988079071,0.10381250083446503,-0.20116250216960907
1750561121083148000,6.25914794921875,0.01924999989569187,0.14657500386238098,-0.2671625018119812
1750561121092752600,6.268752685546875,0.04372499883174896,0.16981250047683716,-0.3209249973297119
1750561121102357200,6.278357177734375,0.06077500060200691,0.17599999904632568,-0.33192500472068787
1750561121111962000,6.287962158203125,0.04606249928474426,0.18700000643730164,-0.2989250123500824
1750561121121567000,6.29756689453125,0.01677500084042549,0.17710000276565552,-0.2817375063896179
1750561121131171600,6.307171630859375,-0.01979999989271164,0.14176249504089355,-0.3232625126838684
1750561121140776400,6.3167763671875,-0.043037500232458115,0.10023749619722366,-0.4064500033855438
1750561121150381000,6.326381103515625,-0.045512501150369644,0.0672374963760376,-0.4894999861717224
1750561121159986000,6.33598583984375,-0.050324998795986176,0.028049999848008156,-0.5420249700546265
1750561121169590500,6.345590576171875,-0.060224998742341995,-0.02199999988079071,-0.5590749979019165
1750561121179195100,6.355195068359375,-0.07232499867677689,-0.11728750169277191,-0.5273125171661377
1750561121188800000,6.364800048828125,-0.08579999953508377,-0.22962500154972076,-0.4442625045776367
1750561121198404600,6.374404541015625,-0.15303750336170197,-0.34814998507499695,-0.36973750591278076
1750561121208009200,6.38400927734375,-0.3081375062465668,-0.4006749987602234,-0.2915000021457672
1750561121217614000,6.393614013671875,-0.4499000012874603,-0.44714999198913574,-0.18521249294281006
1750561121227219000,6.403218994140625,-0.5268999934196472,-0.5436750054359436,-0.06792499870061874
1750561121236823600,6.412823486328125,-0.5304750204086304,-0.6732000112533569,0.09322500228881836
1750561121246428200,6.42242822265625,-0.46818751096725464,-0.813587486743927,0.3119874894618988
1750561121256032800,6.43203271484375,-0.37908750772476196,-0.9211124777793884,0.5941374897956848
1750561121265637600,6.4416376953125,-0.2947999835014343,-0.9541124701499939,0.9264749884605408
1750561121275242200,6.4512421875,-0.26785001158714294,-0.944350004196167,1.2563375234603882
1750561121284847000,6.46084716796875,-0.32532501220703125,-0.8320124745368958,1.6057250499725342
1750561121294451700,6.47045166015625,-0.4437125027179718,-0.7452499866485596,1.9540125131607056
1750561121304056300,6.480056396484375,-0.5464249849319458,-0.6939625144004822,2.3802623748779297
1750561121313661200,6.4896611328125,-0.567187488079071,-0.5754374861717224,2.8408875465393066
1750561121323265800,6.499265869140625,-0.5549499988555908,-0.48867499828338623,3.250225067138672
1750561121332870400,6.508870361328125,-0.4633750021457672,-0.1942874938249588,3.620374917984009
1750561121342475300,6.518475341796875,-0.2433750033378601,0.07576250284910202,3.8097124099731445
1750561121352080100,6.528080078125,0.04124999791383743,0.13323749601840973,3.7852375507354736
1750561121361684700,6.537684814453125,0.3320625126361847,0.18933749198913574,3.680187463760376
1750561121371289300,6.547289306640625,0.5274500250816345,0.1845249980688095,3.5348498821258545
1750561121380894000,6.55689404296875,0.5739250183105469,0.20157499611377716,3.382087469100952
1750561121390498800,6.566498779296875,0.56045001745224,0.30428749322891235,3.203749895095825
1750561121400103400,6.576103515625,0.5396875143051147,0.4496249854564667,2.939887523651123
1750561121409708300,6.585708251953125,0.5579749941825867,0.7097749710083008,2.5647873878479004
1750561121419313000,6.59531298828125,0.622737467288971,1.0641125440597534,2.083400011062622
1750561121428917800,6.604917724609375,0.7290250062942505,1.4342625141143799,1.537387490272522
1750561121438522400,6.6145224609375,0.8512625098228455,1.6530250310897827,0.9326624870300293
1750561121448127000,6.624126953125,0.9257875084877014,1.6920750141143799,0.3217499852180481
1750561121457731800,6.63373193359375,0.9710249900817871,1.6700749397277832,-0.21821250021457672
1750561121467336700,6.643336669921875,1.045549988746643,1.596787452697754,-0.7056499719619751
1750561121476941300,6.65294140625,1.1615999937057495,1.485550045967102,-1.1735625267028809
1750561121486546000,6.6625458984375,1.2971750497817993,1.4232624769210815,-1.657425045967102
1750561121496150500,6.672150634765625,1.4327499866485596,1.3952125310897827,-2.1533875465393066
1750561121505755400,6.68175537109375,1.5707999467849731,1.3414499759674072,-2.6274874210357666
1750561121515360000,6.691360107421875,1.7137999534606934,1.2412124872207642,-3.053874969482422
1750561121524964600,6.700964599609375,1.8053749799728394,1.1556874513626099,-3.442312479019165
1750561121534569700,6.71056982421875,1.7210874557495117,1.0775874853134155,-3.8003625869750977
1750561121544174300,6.72017431640625,1.4950374364852905,0.9150624871253967,-4.108224868774414
1750561121553779000,6.729779052734375,1.2177000045776367,0.5839625000953674,-4.411137580871582
1750561121563383800,6.7393837890625,0.9085999727249146,0.07576250284910202,-4.7141876220703125
1750561121572988400,6.748988525390625,0.5909749865531921,-0.5522000193595886,-4.827762603759766
1750561121582593000,6.758593017578125,0.3026374876499176,-1.1691625118255615,-4.496662616729736
1750561121592198000,6.768197998046875,0.05596249923110008,-1.5747874975204468,-3.6976499557495117
1750561121601802500,6.777802490234375,-0.21779999136924744,-1.7531249523162842,-2.683724880218506
1750561121611407000,6.787406982421875,-0.4974749982357025,-1.710362434387207,-1.768662452697754
1750561121621012000,6.797011962890625,-0.7980499863624573,-1.4330250024795532,-1.1492249965667725
1750561121630616600,6.806616455078125,-1.1791999340057373,-0.9578250050544739,-0.8449375033378601
1750561121640221400,6.816221435546875,-1.467537522315979,-0.39586248993873596,-0.7301250100135803
1750561121649826000,6.825825927734375,-1.5800124406814575,-0.0037124999798834324,-0.692312479019165
1750561121659431000,6.835430908203125,-1.625112533569336,0.32381248474121094,-0.600600004196167
1750561121669035500,6.845035400390625,-1.687537431716919,0.5913875102996826,-0.4222624897956848
1750561121678640000,6.85464013671875,-1.7228749990463257,0.7379624843597412,-0.1742125004529953
1750561121688245000,6.864244873046875,-1.6801124811172485,0.7147250175476074,0.14464999735355377
1750561121697849600,6.873849609375,-1.638587474822998,0.6659125089645386,0.4965125024318695
1750561121707454200,6.8834541015625,-1.6055874824523926,0.6951999664306641,0.7981874942779541
1750561121717059000,6.89305908203125,-1.4957250356674194,0.6682500243186951,0.9754250049591064
1750561121726663700,6.90266357421875,-1.3149124383926392,0.4324375092983246,1.030287504196167
1750561121736268500,6.9122685546875,-1.1206250190734863,0.04028749838471413,0.994949996471405
1750561121745873200,6.921873046875,-0.9581000208854675,-0.3554374873638153,0.9374749660491943
1750561121755477800,6.931477783203125,-0.8835750222206116,-0.559487521648407,0.9129999876022339
1750561121765082600,6.94108251953125,-0.9068124890327454,-0.36038750410079956,0.9631875157356262
1750561121774687500,6.9506875,-0.9202874898910522,0.020762499421834946,1.0205249786376953
1750561121784292000,6.9602919921875,-0.8310499787330627,0.2993375062942505,1.0230000019073486
1750561121793896700,6.969896728515625,-0.589187502861023,0.36410000920295715,0.9924749732017517
1750561121803501600,6.97950146484375,-0.3020874857902527,0.21381250023841858,0.890999972820282
1750561121813106200,6.989106201171875,-0.09308750182390213,-0.006049999967217445,0.6980875134468079
1750561121822710800,6.998710693359375,-0.007562499959021807,-0.1270499974489212,0.44632500410079956
1750561121832315400,7.0083154296875,-0.023512499406933784,-0.08057499676942825,0.18246249854564667
1750561121841920300,7.017920166015625,-0.08579999953508377,0.01952499896287918,-0.07535000145435333
1750561121851525000,7.027525146484375,-0.16885000467300415,0.11481250077486038,-0.2866874933242798
1750561121861130000,7.0371298828125,-0.2092749923467636,0.22110000252723694,-0.3867875039577484
1750561121870734600,7.046734619140625,-0.19085000455379486,0.30057498812675476,-0.3746874928474426
1750561121880339200,7.056339111328125,-0.09927500039339066,0.37014999985694885,-0.26592499017715454
1750561121889944000,7.065944091796875,0.011962499469518661,0.38609999418258667,-0.1498750001192093
1750561121899548700,7.075548583984375,0.08772499859333038,0.3335750102996826,-0.07768750190734863
1750561121909153300,7.0851533203125,0.11948750168085098,0.19552500545978546,-0.06558749824762344
1750561121918758000,7.0947578125,0.08648750185966492,0.007287499960511923,-0.1046374961733818
1750561121928362500,7.104362548828125,0.022962499409914017,-0.14409999549388885,-0.1363999992609024
1750561121937967600,7.113967529296875,-0.014987500384449959,-0.2761000096797943,-0.12540000677108765
1750561121947572200,7.123572265625,0.0009624999947845936,-0.340862512588501,-0.04839999973773956
1750561121957176800,7.1331767578125,0.04001250118017197,-0.2773374915122986,0.07246249914169312
1750561121966781400,7.142781494140625,0.06929999589920044,-0.08181250095367432,0.1592250019311905
1750561121976386300,7.15238623046875,0.09006249904632568,0.12347500026226044,0.14093749225139618
1750561121985991000,7.161990966796875,0.09872499853372574,0.25905001163482666,0.040699999779462814
1750561121995595800,7.171595703125,0.09982500225305557,0.3078624904155731,-0.06063750013709068
1750561122005200400,7.181200439453125,0.08401250094175339,0.2675749957561493,-0.1143999993801117
1750561122014805200,7.19080517578125,0.05596249923110008,0.16733749210834503,-0.1106875017285347
1750561122024409900,7.200409912109375,0.01924999989569187,0.025712499395012856,-0.07163749635219574
1750561122034014500,7.210014404296875,-0.01746249943971634,-0.057337500154972076,-0.013062499463558197
1750561122043619300,7.219619384765625,-0.038224998861551285,-0.04399999976158142,0.026124998927116394
1750561122053224000,7.229223876953125,-0.02956249937415123,-0.0085249999538064,0.02488750033080578
1750561122062828800,7.238828857421875,-0.002749999985098839,0.05871250107884407,0.006599999964237213
1750561122072433400,7.248433349609375,0.02419999986886978,0.14781250059604645,-0.021587500348687172
1750561122082038000,7.2580380859375,0.03753750026226044,0.17957499623298645,-0.0448249988257885
1750561122091643000,7.267642822265625,0.03629999980330467,0.1662375032901764,-0.0411125011742115
1750561122101247500,7.27724755859375,0.022962499409914017,0.0952875018119812,-0.022824998944997787
1750561122110852000,7.28685205078125,0.010724999941885471,-0.04152499884366989,0.007699999958276749
1750561122120457000,7.29645703125,-0.007562499959021807,-0.14533749222755432,0.038362499326467514
1750561122130061600,7.3060615234375,-0.025987500324845314,-0.1588124930858612,0.03341250121593475
1750561122139666400,7.31566650390625,-0.02722499892115593,-0.09281250089406967,-0.019112499430775642
1750561122149271000,7.32527099609375,-0.01251249946653843,-0.010999999940395355,-0.10339999943971634
1750561122158876000,7.3348759765625,0.010724999941885471,0.06228749826550484,-0.17916250228881836
1750561122168480500,7.34448046875,0.03629999980330467,0.09171249717473984,-0.2157374918460846
1750561122178085400,7.35408544921875,0.05953750014305115,0.12581250071525574,-0.1839749962091446
1750561122187689700,7.363689697265625,0.07548750191926956,0.15757499635219574,-0.10711249709129333
1750561122197294600,7.373294677734375,0.07548750191926956,0.1588124930858612,-0.020349999889731407
1750561122206899500,7.3828994140625,0.06077500060200691,0.11357499659061432,0.04193750023841858
1750561122216504000,7.392504150390625,0.03506249934434891,0.0147124994546175,0.055412501096725464
1750561122226108700,7.402108642578125,0.009487500414252281,-0.08428750187158585,0.04193750023841858
1750561122235713500,7.411713623046875,-0.014987500384449959,-0.17104999721050262,0.02488750033080578
1750561122245318100,7.421318115234375,-0.023512499406933784,-0.21381250023841858,0.02488750033080578
1750561122254923000,7.430923095703125,-0.018562499433755875,-0.17586250603199005,0.03217500075697899
1750561122264527600,7.440527587890625,-0.010037500411272049,-0.09033749997615814,0.021175000816583633
1750561122274132200,7.45013232421875,-0.008799999952316284,0.04647500067949295,-0.002062499988824129
1750561122283737300,7.4597373046875,-0.0002749999985098839,0.17710000276565552,-0.03987500071525574
1750561122293342000,7.469342041015625,0.018012499436736107,0.22110000252723694,-0.07768750190734863
1750561122302946600,7.478946533203125,0.03629999980330467,0.1625249981880188,-0.08758749812841415
1750561122312551200,7.48855126953125,0.03272499889135361,0.028049999848008156,-0.07039999961853027
1750561122322155800,7.49815576171875,0.020487500354647636,-0.12581250071525574,-0.020349999889731407
1750561122331760600,7.5077607421875,0.007012499962002039,-0.23333749175071716,0.03946249932050705
1750561122341365200,7.517365234375,-0.0015124999918043613,-0.23704999685287476,0.08841250091791153
1750561122350969900,7.526969970703125,-0.0002749999985098839,-0.13433749973773956,0.10064999759197235
1750561122360574700,7.53657470703125,0.007012499962002039,0.0147124994546175,0.07369999587535858
1750561122370179300,7.546179443359375,0.01677500084042549,0.11247500032186508,0.008937500417232513
1750561122379784200,7.5557841796875,0.021724998950958252,0.14657500386238098,-0.05939999967813492
1750561122389389000,7.56538916015625,-0.0015124999918043613,0.15757499635219574,-0.10092499852180481
1750561122398993700,7.57499365234375,-0.04179999977350235,0.10876250267028809,-0.1083500012755394
1750561122408598300,7.584598388671875,-0.06503749638795853,0.025712499395012856,-0.07768750190734863
1750561122418203100,7.594203125,-0.056512501090765,-0.06833750009536743,-0.017875000834465027
1750561122427807700,7.603807861328125,-0.02956249937415123,-0.12457499653100967,0.04441250115633011
1750561122437412400,7.613412353515625,0.0057749999687075615,-0.12086249887943268,0.07864999771118164
1750561122447017000,7.623016845703125,0.03753750026226044,-0.04647500067949295,0.07493750005960464
1750561122456621800,7.632621826171875,0.04372499883174896,0.06104999780654907,0.035887498408555984
1750561122466226700,7.642226806640625,0.018012499436736107,0.16005000472068787,-0.022824998944997787
1750561122475831300,7.651831298828125,-0.011274999938905239,0.19552500545978546,-0.07535000145435333
1750561122485436200,7.661436279296875,-0.023512499406933784,0.15523749589920044,-0.08635000139474869
1750561122495040800,7.671040771484375,-0.025987500324845314,0.07823749631643295,-0.0471624992787838
1750561122504645600,7.680645751953125,-0.035750001668930054,-0.007287499960511923,0.0004124999977648258
1750561122514250000,7.69025,-0.038224998861551285,-0.08057499676942825,0.02488750033080578
1750561122523854800,7.699854736328125,-0.033275000751018524,-0.10628750175237656,0.016362499445676804
1750561122533459500,7.70945947265625,-0.028462499380111694,-0.09033749997615814,-0.011824999935925007
1750561122543064000,7.71906396484375,-0.016224998980760574,-0.042762499302625656,-0.024062499403953552
1750561122552669000,7.7286689453125,0.007012499962002039,0,0.0028874999843537807
1750561122562273500,7.7382734375,0.029012499377131462,0.02447500079870224,0.05912499874830246
1750561122571878400,7.74787841796875,0.03396249935030937,0.02199999988079071,0.09941250085830688
1750561122581483000,7.75748291015625,0.026537500321865082,0.023237500339746475,0.09446249902248383
1750561122591087900,7.767087890625,0.014299999922513962,0.02447500079870224,0.038362499326467514
1750561122600692700,7.776692626953125,-0.0015124999918043613,0.028049999848008156,-0.0471624992787838
1750561122610297300,7.78629736328125,-0.01979999989271164,0.0317624993622303,-0.12540000677108765
1750561122619902000,7.79590185546875,-0.033275000751018524,0.03423750028014183,-0.15468749403953552
1750561122629506600,7.805506591796875,-0.033275000751018524,0.02694999985396862,-0.13144999742507935
1750561122639111400,7.815111328125,-0.025987500324845314,0.01718750037252903,-0.07768750190734863
1750561122648716000,7.824716064453125,-0.018562499433755875,0.018287500366568565,-0.021587500348687172
1750561122658320600,7.834320556640625,-0.002749999985098839,0.03904999792575836,0.012649999931454659
1750561122667925200,7.84392529296875,0.021724998950958252,0.057475000619888306,0.013887500390410423
1750561122677530000,7.853530029296875,0.03396249935030937,0.054999999701976776,-0.019112499430775642
1750561122687135000,7.863135009765625,0.020487500354647636,0.05871250107884407,-0.06558749824762344
1750561122696739600,7.872739501953125,-0.013749999925494194,0.02928750030696392,-0.1083500012755394
1750561122706344400,7.882344482421875,-0.050324998795986176,-0.01952499896287918,-0.12168750166893005
1750561122715949000,7.891948974609375,-0.06998749822378159,-0.06104999780654907,-0.08992499858140945
1750561122725553700,7.9015537109375,-0.06998749822378159,-0.05857500061392784,-0.03492499887943268
1750561122735158500,7.911158447265625,-0.050324998795986176,-0.01347499992698431,0.0016499999910593033
1750561122744763100,7.92076318359375,-0.028462499380111694,0.04028749838471413,-0.002062499988824129
1750561122754367700,7.93036767578125,-0.007562499959021807,0.08923749625682831,-0.03135000169277191
1750561122763972600,7.93997265625,0.007012499962002039,0.0952875018119812,-0.0728750005364418
1750561122773577200,7.9495771484375,0.018012499436736107,0.047712501138448715,-0.09487500041723251
1750561122783182000,7.95918212890625,0.010724999941885471,-0.030524998903274536,-0.08139999955892563
1750561122792786700,7.96878662109375,-0.006462499964982271,-0.08552499860525131,-0.03382499888539314
1750561122802391600,7.9783916015625,-0.02474999986588955,-0.10381250083446503,0.01993750035762787
1750561122811996200,7.98799609375,-0.040562499314546585,-0.0952875018119812,0.04441250115633011
1750561122821601000,7.99760107421875,-0.04179999977350235,-0.06833750009536743,0.03341250121593475
1750561122831205600,8.00720556640625,-0.033275000751018524,-0.03423750028014183,0.0004124999977648258
1750561122840810200,8.016810302734376,-0.01979999989271164,-0.007287499960511923,-0.027637500315904617
1750561122850414800,8.026414794921875,-0.005224999971687794,0.00494999997317791,-0.03739999979734421
1750561122860019700,8.036019775390624,0.0009624999947845936,0.006187499966472387,-0.03863750025629997
1750561122869624300,8.045624267578125,-0.0015124999918043613,0.006187499966472387,-0.03382499888539314
1750561122879229200,8.055229248046874,-0.002749999985098839,-0.002474999986588955,-0.03135000169277191
1750561122888834000,8.064833984375,-0.003987499978393316,0.0037124999798834324,-0.03135000169277191
1750561122898438700,8.074438720703125,-0.003987499978393316,0.01718750037252903,-0.03987500071525574
1750561122908043300,8.084043212890625,-0.0002749999985098839,0.01347499992698431,-0.05335000157356262
1750561122917648000,8.09364794921875,0.0057749999687075615,-0.01347499992698431,-0.05692499876022339
1750561122927252700,8.103252685546876,0.013199999928474426,-0.047575000673532486,-0.03987500071525574
1750561122936857300,8.112857421875,0.015537500381469727,-0.07823749631643295,0.0028874999843537807
1750561122946462000,8.1224619140625,0.010724999941885471,-0.08057499676942825,0.04688749834895134
1750561122956066800,8.13206689453125,-0.0015124999918043613,-0.05252499878406525,0.057887498289346695
1750561122965671700,8.141671630859374,-0.01251249946653843,-0.0085249999538064,0.02488750033080578
1750561122975276500,8.151276611328125,-0.01979999989271164,0.02928750030696392,-0.03135000169277191
1750561122984881200,8.160881103515624,-0.02227500081062317,0.04028749838471413,-0.0826374962925911
1750561122994485800,8.17048583984375,-0.016224998980760574,0.04895000159740448,-0.11563749611377716
1750561123004090400,8.18009033203125,-0.016224998980760574,0.01718750037252903,-0.13516250252723694
1750561123013695200,8.1896953125,-0.014987500384449959,-0.02928750030696392,-0.12292499840259552
1750561123023299800,8.1992998046875,-0.010037500411272049,-0.08304999768733978,-0.0826374962925911
1750561123032904700,8.20890478515625,-0.0002749999985098839,-0.09652499854564667,-0.011824999935925007
1750561123042509300,8.21850927734375,0.008249999955296516,-0.07699999958276749,0.04441250115633011
1750561123052114200,8.2281142578125,0.011962499469518661,-0.014574999921023846,0.05664999783039093
1750561123061718800,8.23771875,-0.0015124999918043613,0.059812501072883606,0.008937500417232513
1750561123071323600,8.24732373046875,-0.02227500081062317,0.11481250077486038,-0.07535000145435333
1750561123080928300,8.25692822265625,-0.045512501150369644,0.1307625025510788,-0.14863750338554382
1750561123090532900,8.266532958984374,-0.057750001549720764,0.08923749625682831,-0.16321249306201935
1750561123100137500,8.276137451171875,-0.04922499880194664,0.00494999997317791,-0.1143999993801117
1750561123109742300,8.285742431640625,-0.025987500324845314,-0.07452499866485596,-0.03382499888539314
1750561123119347200,8.29534716796875,-0.010037500411272049,-0.09281250089406967,0.03217500075697899
1750561123128951800,8.304951904296875,-0.010037500411272049,-0.04881250113248825,0.055412501096725464
1750561123138556700,8.314556640625,-0.008799999952316284,0.01718750037252903,0.03946249932050705
1750561123148161300,8.324161376953125,-0.0015124999918043613,0.05623750016093254,-0.008112499490380287
1750561123157766100,8.33376611328125,0.004537499975413084,0.07204999774694443,-0.05816249921917915
1750561123167370500,8.34337060546875,0.0032999999821186066,0.08923749625682831,-0.1046374961733818
1750561123176975400,8.352975341796874,-0.008799999952316284,0.08181250095367432,-0.15344999730587006
1750561123186580000,8.362580078125,-0.02227500081062317,0.0635249987244606,-0.19016249477863312
1750561123196184600,8.3721845703125,-0.030799999833106995,0.0635249987244606,-0.21821250021457672
1750561123205789400,8.38178955078125,-0.030799999833106995,0.07328750193119049,-0.2634499967098236
1750561123215394000,8.39139404296875,-0.008799999952316284,0.0635249987244606,-0.3049750030040741
1750561123224998700,8.40099853515625,0.03506249934434891,0.028049999848008156,-0.3049750030040741
1750561123234603500,8.410603515625,0.08277499675750732,-0.0317624993622303,-0.27073749899864197
1750561123244208400,8.42020849609375,0.11082500219345093,-0.1013374999165535,-0.25244998931884766
1750561123253813200,8.429813232421875,0.1023000031709671,-0.16362500190734863,-0.2952125072479248
1750561123263417900,8.43941796875,0.05953750014305115,-0.22481249272823334,-0.3867875039577484
1750561123273022500,8.4490224609375,-0.010037500411272049,-0.26881250739097595,-0.5005000233650208
1750561123282627000,8.458626953125,-0.07356250286102295,-0.3115749955177307,-0.6153125166893005
1750561123292232000,8.46823193359375,-0.10656250268220901,-0.3871999979019165,-0.7240750193595886
1750561123301836500,8.47783642578125,-0.10656250268220901,-0.5057250261306763,-0.7998374700546265
1750561123311441200,8.487441162109375,-0.09075000137090683,-0.6157249808311462,-0.7583125233650208
1750561123321046000,8.4970458984375,-0.1933249980211258,-0.5644375085830688,-0.5493124723434448
1750561123330650600,8.506650634765625,-0.37537500262260437,-0.44343748688697815,-0.21216249465942383
1750561123340255200,8.516255126953125,-0.5402374863624573,-0.4104374945163727,0.17874999344348907
1750561123349859800,8.52585986328125,-0.6441875100135803,-0.4409624934196472,0.6015625
1750561123359464700,8.535464599609375,-0.7394750118255615,-0.5669124722480774,1.0938124656677246
1750561123369069300,8.5450693359375,-0.8273375034332275,-0.5143874883651733,1.729200005531311
1750561123378674000,8.554673828125,-0.8188124895095825,-0.4092000126838684,2.4169750213623047
1750561123388279000,8.564279052734374,-0.716237485408783,-0.5484874844551086,3.048650026321411
1750561123397883400,8.57388330078125,-0.5574250221252441,-0.7660124897956848,3.621612548828125
1750561123407488300,8.58348828125,-0.39118748903274536,-0.9308750033378601,4.080999851226807
1750561123417092900,8.5930927734375,-0.2433750033378601,-0.7232499718666077,4.408387660980225
1750561123426697500,8.602697509765624,-0.10408750176429749,-0.28462499380111694,4.540249824523926
1750561123436302300,8.61230224609375,0.10958749800920486,0.12457499653100967,4.496387481689453
1750561123445907000,8.621906982421875,0.42858749628067017,0.5436750054359436,4.360674858093262
1750561123455511800,8.63151171875,0.7277874946594238,0.7330124974250793,4.127337455749512
1750561123465116400,8.641116455078125,0.9245499968528748,0.8710625171661377,3.7914249897003174
1750561123474721300,8.65072119140625,0.9783124923706055,1.032349944114685,3.2330374717712402
1750561123484326000,8.660325927734375,0.9160249829292297,1.0286375284194946,2.4865500926971436
1750561123493930500,8.669930419921876,0.7827875018119812,0.9590625166893005,1.7621999979019165
1750561123503535400,8.679535400390625,0.6545000076293945,0.8870124816894531,1.1757625341415405
1750561123513139700,8.6891396484375,0.6594499945640564,0.9223499894142151,0.7444249987602234
1750561123522744600,8.69874462890625,0.8377875089645386,1.131350040435791,0.3535124957561493
1750561123532349200,8.70834912109375,1.0918874740600586,1.363450050354004,-0.05692499876022339
1750561123541954300,8.717954345703125,1.3961750268936157,1.6663625240325928,-0.39778751134872437
1750561123551559000,8.727558837890625,1.7333250045776367,1.963362455368042,-0.6653624773025513
1750561123561163500,8.73716357421875,2.0961875915527344,2.1344125270843506,-0.902412474155426
1750561123570768100,8.74676806640625,2.463862419128418,2.1209375858306885,-1.1467499732971191
1750561123580373000,8.756373046875,2.722912549972534,1.905887484550476,-1.4130874872207642
1750561123589977600,8.7659775390625,2.8437750339508057,1.5210249423980713,-1.6684249639511108
1750561123599582200,8.775582275390626,2.75219988822937,0.9761124849319458,-1.9262374639511108
1750561123609187000,8.78518701171875,2.4382874965667725,0.4141499996185303,-2.174149990081787
1750561123618791700,8.794791748046874,2.0179500579833984,0.04647500067949295,-2.4356749057769775
1750561123628396500,8.804396484375,1.5780874490737915,-0.13433749973773956,-2.820537567138672
1750561123638001400,8.81400146484375,1.2519375085830688,-0.18328750133514404,-3.329974889755249
1750561123647606000,8.82360595703125,1.111412525177002,-0.16128750145435333,-3.861412525177002
1750561123657210600,8.833210693359375,1.0723625421524048,-0.1625249981880188,-4.375662326812744
1750561123666815200,8.842815185546876,1.0491249561309814,-0.24557499587535858,-4.79476261138916
1750561123676420000,8.852420166015625,0.8402624726295471,-0.3713875114917755,-5.074574947357178
1750561123686024700,8.862024658203126,0.27953749895095825,-0.44591251015663147,-5.233387470245361
1750561123695629600,8.871629638671875,-0.4828999936580658,-0.5644375085830688,-5.241912364959717
1750561123705234200,8.881234130859376,-1.1328624486923218,-0.808775007724762,-5.015862464904785
1750561123714838800,8.8908388671875,-1.5690125226974487,-1.0823999643325806,-4.464900016784668
1750561123724443400,8.900443359375,-1.8475874662399292,-1.288925051689148,-3.5963125228881836
1750561123734048300,8.91004833984375,-2.0539751052856445,-1.3439249992370605,-2.5541999340057373
1750561123743653000,8.919653076171874,-2.242074966430664,-1.1044000387191772,-1.549899935722351
1750561123753257700,8.9292578125,-2.380125045776367,-0.7232499718666077,-0.7325999736785889
1750561123762862300,8.9388623046875,-2.333787441253662,-0.4409624934196472,-0.09116250276565552
1750561123772467200,8.94846728515625,-2.111449956893921,-0.345674991607666,0.490325003862381
1750561123782071800,8.95807177734375,-1.8939249515533447,-0.12828749418258667,1.0267125368118286
1750561123791676400,8.967676513671876,-1.6863000392913818,0.28462499380111694,1.341862440109253
1750561123801281300,8.97728125,-1.4284875392913818,0.6732000112533569,1.3235750198364258
1750561123810886000,8.986885986328126,-1.188962459564209,1.0165375471115112,1.0817124843597412
1750561123820490500,8.996490478515625,-1.092574954032898,1.4612125158309937,0.803137481212616
1750561123830095000,9.00609521484375,-1.0986249446868896,1.784887433052063,0.5820375084877014
1750561123839700200,9.0157001953125,-1.1364375352859497,1.6945500373840332,0.48179998993873596
1750561123849304800,9.025304931640624,-1.188962459564209,1.2583999633789062,0.5478000044822693
1750561123858909700,9.03490966796875,-1.2196249961853027,0.5779125094413757,0.7836124897003174
1750561123868514300,9.044514404296875,-1.270912528038025,-0.10628750175237656,1.1610499620437622
1750561123878119000,9.054118896484376,-1.3039125204086304,-0.4409624934196472,1.5727249383926392
1750561123887723500,9.0637236328125,-1.230625033378601,-0.4496249854564667,1.800012469291687
1750561123897328400,9.073328369140626,-1.0143375396728516,-0.2223374992609024,1.754775047302246
1750561123906933000,9.08293310546875,-0.7077124714851379,0.08428750187158585,1.4616249799728394
1750561123916537600,9.09253759765625,-0.41442498564720154,0.31638750433921814,1.042525053024292
1750561123926142500,9.102142578125,-0.22027499973773956,0.5021499991416931,0.6503750085830688
1750561123935747300,9.111747314453124,-0.16403749585151672,0.6144874691963196,0.3535124957561493
1750561123945352000,9.12135205078125,-0.21285000443458557,0.6364874839782715,0.18369999527931213
1750561123954956800,9.130956787109374,-0.29961249232292175,0.5486249923706055,0.11646249890327454
1750561123964561400,9.1405615234375,-0.383899986743927,0.36410000920295715,0.10312499850988388
1750561123974166000,9.150166015625,-0.403425008058548,0.17476250231266022,0.13846249878406525
1750561123983771000,9.15977099609375,-0.32766249775886536,0.03671250119805336,0.2069374918937683
1750561123993375500,9.16937548828125,-0.2116124927997589,-0.05004999786615372,0.2862749993801117
1750561124002980000,9.17897998046875,-0.08098749816417694,-0.11604999750852585,0.34375
1750561124012584700,9.188584716796875,0.04124999791383743,-0.1625249981880188,0.33646249771118164
1750561124022189600,9.198189453125,0.09872499853372574,-0.1405249983072281,0.2227499932050705
1750561124031794400,9.20779443359375,0.09129999577999115,-0.01347499992698431,0.02736249938607216
1750561124041399000,9.21739892578125,0.06696250289678574,0.15523749589920044,-0.18768750131130219
1750561124051003600,9.227003662109375,0.0424874983727932,0.30428749322891235,-0.3526875078678131
1750561124060608500,9.2366083984375,0.026537500321865082,0.3848625123500824,-0.39297500252723694
1750561124070213000,9.246213134765625,0.0009624999947845936,0.3665750026702881,-0.30621248483657837
1750561124079817700,9.255817626953124,-0.011274999938905239,0.2700499892234802,-0.12416250258684158
1750561124089422600,9.265422607421876,-0.005224999971687794,0.10752499848604202,0.08717499673366547
1750561124099027200,9.275027099609375,0.014299999922513962,-0.07699999958276749,0.2521750032901764
1750561124108631800,9.2846318359375,0.04853750020265579,-0.21504999697208405,0.30951249599456787
1750561124118236700,9.294236572265625,0.08277499675750732,-0.2516250014305115,0.23498749732971191
1750561124127841300,9.30384130859375,0.1023000031709671,-0.2125750035047531,0.07246249914169312
1750561124137446100,9.313446044921875,0.09253749996423721,-0.06104999780654907,-0.08387500047683716
1750561124147050800,9.32305078125,0.04977500066161156,0.19181250035762787,-0.18892499804496765
1750561124156655400,9.3326552734375,0.015537500381469727,0.3823874890804291,-0.24021250009536743
1750561124166260000,9.342260009765624,0.029012499377131462,0.41786250472068787,-0.24021250009536743
1750561124175864800,9.35186474609375,0.07906249910593033,0.31033748388290405,-0.19263750314712524
1750561124185469700,9.3614697265625,0.12677499651908875,0.13199999928474426,-0.10944999754428864
1750561124195074300,9.37107421875,0.13529999554157257,-0.05376249924302101,-0.013062499463558197
1750561124204679000,9.380678955078125,0.1023000031709671,-0.18809999525547028,0.06888750195503235
1750561124214283800,9.39028369140625,0.05348749831318855,-0.22481249272823334,0.09817499667406082
1750561124223888400,9.399888427734375,-0.0015124999918043613,-0.14409999549388885,0.06393750011920929
1750561124233493000,9.409492919921876,-0.05898749828338623,-0.002474999986588955,-0.026399999856948853
1750561124243097600,9.41909765625,-0.0919874981045723,0.14533749222755432,-0.14121249318122864
1750561124252702500,9.428702392578124,-0.0845625028014183,0.24076250195503235,-0.23416249454021454
1750561124262307000,9.43830712890625,-0.050324998795986176,0.24310000240802765,-0.25616249442100525
1750561124271912000,9.447911865234374,-0.003987499978393316,0.18328750133514404,-0.19016249477863312
1750561124281516500,9.4575166015625,0.0424874983727932,0.09281250089406967,-0.06916250288486481
1750561124291121400,9.467121337890624,0.07177499681711197,-0.007287499960511923,0.05912499874830246
1750561124300726000,9.47672607421875,0.07177499681711197,-0.05128749832510948,0.14698749780654907
1750561124310331000,9.486330810546875,0.0387750007212162,-0.06228749826550484,0.15441249310970306
1750561124319935500,9.495935546875,-0.018562499433755875,-0.037812501192092896,0.09088750183582306
1750561124329540000,9.5055400390625,-0.07851249724626541,0.02447500079870224,-0.0008249999955296516
1750561124339145000,9.51514501953125,-0.09679999947547913,0.06971249729394913,-0.06558749824762344
1750561124348749300,9.524749267578125,-0.07975000143051147,0.07823749631643295,-0.07411249727010727
1750561124358354200,9.534354248046874,-0.04922499880194664,0.05871250107884407,-0.0411125011742115
1750561124367959000,9.543958984375,-0.025987500324845314,0.032999999821186066,-0.009349999949336052
1750561124377563600,9.553563720703124,-0.007562499959021807,0.04647500067949295,0.0028874999843537807
1750561124387168300,9.563168212890625,0.0009624999947845936,0.09047500044107437,-0.010587500408291817
1750561124396773000,9.572773193359374,-0.0015124999918043613,0.1307625025510788,-0.04592499881982803
1750561124406377700,9.582377685546875,-0.011274999938905239,0.14300000667572021,-0.08758749812841415
1750561124415982600,9.591982666015625,-0.033275000751018524,0.11247500032186508,-0.12911249697208405
1750561124425587200,9.601587158203126,-0.047987498342990875,0.06599999964237213,-0.14368750154972076
1750561124435192000,9.611192138671875,-0.057750001549720764,0.00494999997317791,-0.12168750166893005
1750561124444796700,9.620796630859376,-0.060224998742341995,-0.04028749838471413,-0.07768750190734863
1750561124454401300,9.6304013671875,-0.055275000631809235,-0.01952499896287918,-0.03863750025629997
1750561124464006000,9.640005859375,-0.05403750017285347,0.020762499421834946,-0.022824998944997787
1750561124473610800,9.64961083984375,-0.047987498342990875,0.04895000159740448,-0.03739999979734421
1750561124483215400,9.65921533203125,-0.03203750029206276,0.0672374963760376,-0.06063750013709068
1750561124492820200,9.6688203125,-0.011274999938905239,0.08304999768733978,-0.06916250288486481
1750561124502424800,9.6784248046875,0.002199999988079071,0.07204999774694443,-0.05582499876618385
1750561124512029700,9.68802978515625,0.014299999922513962,0.01718750037252903,-0.019112499430775642
1750561124521634300,9.69763427734375,0.013199999928474426,-0.05623750016093254,0.02241249941289425
1750561124531239000,9.707239013671876,0.004537499975413084,-0.09157499670982361,0.052937500178813934
1750561124540843800,9.71684375,0.002199999988079071,-0.07081250101327896,0.055412501096725464
1750561124550448400,9.726448486328126,-0.0002749999985098839,-0.0170499999076128,0.02736249938607216
1750561124560053200,9.73605322265625,0.0057749999687075615,0.045237500220537186,-0.010587500408291817
1750561124569657600,9.74565771484375,0.022962499409914017,0.08552499860525131,-0.03863750025629997
1750561124579262500,9.755262451171875,0.04001250118017197,0.09652499854564667,-0.04235000163316727
1750561124588867000,9.7648671875,0.04001250118017197,0.07947500050067902,-0.025162499397993088
1750561124598471700,9.7744716796875,0.02419999986886978,0.02694999985396862,0.0028874999843537807
1750561124608076500,9.78407666015625,-0.005224999971687794,-0.030524998903274536,0.02241249941289425
1750561124617681200,9.79368115234375,-0.035750001668930054,-0.08676250278949738,0.013887500390410423
1750561124627286000,9.8032861328125,-0.056512501090765,-0.11357499659061432,-0.010587500408291817
1750561124636891000,9.812890869140626,-0.056512501090765,-0.08181250095367432,-0.03739999979734421
1750561124646495500,9.82249560546875,-0.03451250120997429,-0.03657500073313713,-0.05816249921917915
1750561124656100000,9.83210009765625,-0.005224999971687794,0.02694999985396862,-0.05335000157356262
1750561124665704700,9.84170458984375,0.018012499436736107,0.09281250089406967,-0.022824998944997787
1750561124675309600,9.8513095703125,0.03396249935030937,0.1050499975681305,0.015124999918043613
1750561124684914200,9.8609140625,0.03506249934434891,0.0672374963760376,0.048124998807907104
1750561124694518800,9.870518798828124,0.021724998950958252,0.0085249999538064,0.06517499685287476
1750561124704123600,9.88012353515625,0.0032999999821186066,-0.06833750009536743,0.057887498289346695
1750561124713728500,9.889728515625,-0.02722499892115593,-0.11852499842643738,0.026124998927116394
1750561124723333000,9.8993330078125,-0.0625625029206276,-0.12828749418258667,-0.013062499463558197
1750561124732938000,9.90893798828125,-0.07727500051259995,-0.10257499665021896,-0.030112499371170998
1750561124742542600,9.91854248046875,-0.06627500057220459,-0.045237500220537186,-0.017875000834465027
1750561124752147200,9.928147216796875,-0.028462499380111694,0.03671250119805336,0.005362499970942736
1750561124761752000,9.937751953125,0.018012499436736107,0.10381250083446503,0.012649999931454659
1750561124771356400,9.9473564453125,0.05706249922513962,0.12828749418258667,0.004124999977648258
1750561124780961300,9.956961181640626,0.07906249910593033,0.1050499975681305,-0.006874999962747097
1750561124790566000,9.96656591796875,0.07177499681711197,0.059812501072883606,-0.010587500408291817
1750561124800170500,9.97617041015625,0.0387750007212162,0,-0.008112499490380287
1750561124809775400,9.985775390625,0.004537499975413084,-0.08181250095367432,-0.0056374999694526196
1750561124819380200,9.995380126953124,-0.018562499433755875,-0.14409999549388885,-0.0008249999955296516
1750561124828984800,10.00498486328125,-0.02474999986588955,-0.13805000483989716,0.013887500390410423
1750561124838589700,10.014589599609375,-0.014987500384449959,-0.05376249924302101,0.018699999898672104
1750561124848194300,10.0241943359375,0.007012499962002039,0.05252499878406525,0.0028874999843537807
1750561124857799000,10.033798828125,0.0387750007212162,0.11976250261068344,-0.027637500315904617
1750561124867403800,10.04340380859375,0.06324999779462814,0.13433749973773956,-0.05939999967813492
1750561124877008400,10.05300830078125,0.0742499977350235,0.11247500032186508,-0.07039999961853027
1750561124886613000,10.062613037109376,0.07301250100135803,0.06104999780654907,-0.06187500059604645
1750561124896217900,10.0722177734375,0.06077500060200691,-0.015812499448657036,-0.03739999979734421
1750561124905822500,10.081822509765624,0.04001250118017197,-0.07576250284910202,-0.0056374999694526196
1750561124915427000,10.091427001953125,0.013199999928474426,-0.10009999573230743,0.015124999918043613
1750561124925032000,10.101031982421874,-0.013749999925494194,-0.06833750009536743,0.012649999931454659
1750561124934636800,10.11063671875,-0.02227500081062317,-0.0012374999932944775,-0.019112499430775642
1750561124944241400,10.120241455078125,-0.01746249943971634,0.05376249924302101,-0.07163749635219574
1750561124953846300,10.12984619140625,0.0009624999947845936,0.09171249717473984,-0.11811249703168869
1750561124963451000,10.139450927734375,0.011962499469518661,0.0989999994635582,-0.1461624950170517
1750561124973055500,10.149055419921876,0.011962499469518661,0.059812501072883606,-0.1424500048160553
1750561124982660000,10.15866015625,0.002199999988079071,0.0085249999538064,-0.09116250276565552
1750561124992264700,10.1682646484375,-0.013749999925494194,-0.047575000673532486,-0.016637500375509262
1750561125001869600,10.17786962890625,-0.02474999986588955,-0.0695749968290329,0.043175000697374344
1750561125011474200,10.18747412109375,-0.02956249937415123,-0.07699999958276749,0.05912499874830246
1750561125021079000,10.1970791015625,-0.028462499380111694,-0.06228749826550484,0.021175000816583633
1750561125030683600,10.20668359375,-0.028462499380111694,-0.032999999821186066,-0.0448249988257885
1750561125040288500,10.21628857421875,-0.02722499892115593,-0.01223750039935112,-0.09611249715089798
1750561125049893000,10.22589306640625,-0.01746249943971634,-0.0085249999538064,-0.1106875017285347
1750561125059498000,10.235498046875,-0.005224999971687794,-0.02199999988079071,-0.09239999949932098
1750561125069102300,10.245102294921875,-0.008799999952316284,-0.0317624993622303,-0.04839999973773956
1750561125078707200,10.254707275390626,-0.02722499892115593,-0.0012374999932944775,-0.016637500375509262
1750561125088311800,10.264311767578125,-0.033275000751018524,0.032999999821186066,-0.020349999889731407
1750561125097916400,10.27391650390625,-0.02474999986588955,0.0672374963760376,-0.0471624992787838
1750561125107521300,10.283521240234375,-0.013749999925494194,0.08676250278949738,-0.0765874981880188
1750561125117126000,10.2931259765625,-0.007562499959021807,0.07452499866485596,-0.09116250276565552
1750561125126730500,10.30273046875,-0.002749999985098839,0.05376249924302101,-0.0826374962925911
1750561125136335400,10.31233544921875,-0.010037500411272049,0.02928750030696392,-0.06792499870061874
1750561125145940200,10.321940185546875,-0.03203750029206276,-0.006049999967217445,-0.06187500059604645
1750561125155544800,10.331544921875,-0.052799999713897705,-0.02928750030696392,-0.0448249988257885
1750561125165149700,10.341149658203125,-0.0625625029206276,-0.032999999821186066,-0.022824998944997787
1750561125174754300,10.35075439453125,-0.060224998742341995,-0.035475000739097595,-0.0056374999694526196
1750561125184359000,10.36035888671875,-0.04179999977350235,-0.0085249999538064,-0.015399999916553497
1750561125193963500,10.369963623046875,-0.028462499380111694,0.030524998903274536,-0.06792499870061874
1750561125203568400,10.379568359375,-0.023512499406933784,0.05871250107884407,-0.1303499937057495
1750561125213173000,10.389173095703125,-0.02956249937415123,0.05376249924302101,-0.1742125004529953
1750561125222777600,10.398777587890624,-0.038224998861551285,0.01952499896287918,-0.1839749962091446
1750561125232382500,10.408382568359375,-0.03698749840259552,-0.037812501192092896,-0.15716250240802765
1750561125241987000,10.417987060546874,-0.025987500324845314,-0.09281250089406967,-0.12911249697208405
1750561125251591700,10.427591796875,-0.008799999952316284,-0.09776250272989273,-0.13887499272823334
1750561125261196500,10.437196533203124,0.004537499975413084,-0.03904999792575836,-0.19868749380111694
1750561125270801400,10.446801513671875,-0.002749999985098839,0.025712499395012856,-0.30744999647140503
1750561125280406000,10.456406005859375,-0.010037500411272049,0.0989999994635582,-0.4259749948978424
1750561125290011000,10.466010986328126,-0.014987500384449959,0.11123749613761902,-0.5493124723434448
1750561125299615500,10.475615478515625,-0.02227500081062317,0.09652499854564667,-0.6507874727249146
1750561125309220000,10.48522021484375,-0.04922499880194664,0.05004999786615372,-0.7033125162124634
1750561125318824700,10.49482470703125,-0.1297999918460846,-0.05252499878406525,-0.6861249804496765
1750561125328429300,10.50442919921875,-0.24213749170303345,-0.2003374993801117,-0.5908374786376953
1750561125338034200,10.5140341796875,-0.3436124920845032,-0.40191251039505005,-0.4577375054359436
1750561125347639000,10.52363916015625,-0.4694249927997589,-0.5607249736785889,-0.30373749136924744
1750561125357244000,10.533243896484375,-0.6062374711036682,-0.6450124979019165,-0.1046374961733818
1750561125366848300,10.54284814453125,-0.7039999961853027,-0.734250009059906,0.12622499465942383
1750561125376453000,10.552453125,-0.7675250172615051,-0.8282999992370605,0.37798750400543213
1750561125386057700,10.5620576171875,-0.8029999732971191,-0.8551124930381775,0.6430875062942505
1750561125395662600,10.57166259765625,-0.8212875127792358,-0.7965375185012817,0.911899983882904
1750561125405267200,10.58126708984375,-0.8188124895095825,-0.6621999740600586,1.1990000009536743
1750561125414871800,10.590871826171876,-0.7552874684333801,-0.5814874768257141,1.5189625024795532
1750561125424476400,10.600476318359375,-0.6245250105857849,-0.5143874883651733,1.9160624742507935
1750561125434081300,10.610081298828124,-0.45237499475479126,-0.3726249933242798,2.353450059890747
1750561125443686000,10.619685791015625,-0.2763749957084656,-0.26881250739097595,2.720025062561035
1750561125453290500,10.62929052734375,-0.10051249712705612,-0.20762500166893005,2.9667000770568848
1750561125462895400,10.638895263671875,0.04124999791383743,-0.23457500338554382,3.107224941253662
1750561125472500000,10.6485,0.09129999577999115,-0.31267499923706055,3.2416999340057373
1750561125482104600,10.6581044921875,0.1120624989271164,-0.2858625054359436,3.484799861907959
1750561125491709400,10.66770947265625,0.14135000109672546,-0.3078624904155731,3.7669498920440674
1750561125501314300,10.677314208984376,0.23787499964237213,-0.29686251282691956,4.010049819946289
1750561125510919000,10.6869189453125,0.37482500076293945,-0.14409999549388885,4.074812412261963
1750561125520523500,10.6965234375,0.5348749756813049,0.14423750340938568,3.8805248737335205
1750561125530128100,10.706128173828125,0.7474499940872192,0.5827249884605408,3.4212749004364014
1750561125539733000,10.71573291015625,0.9770749807357788,1.036062479019165,2.7505500316619873
1750561125549337600,10.725337646484375,1.1811250448226929,1.459975004196167,2.000349998474121
1750561125558942500,10.7349423828125,1.3349875211715698,1.892412543296814,1.2648625373840332
1750561125568546800,10.744546875,1.411987543106079,2.201512575149536,0.527037501335144
1750561125578151700,10.754151611328124,1.45722496509552,2.296799898147583,-0.1326874941587448
1750561125587756500,10.763756591796875,1.543987512588501,2.3175625801086426,-0.6153125166893005
1750561125597361200,10.773361083984375,1.7186124324798584,2.295562505722046,-0.9499874711036682
1750561125606966000,10.782966064453126,1.9507124423980713,2.2442750930786133,-1.2297999858856201
1750561125616570600,10.792570556640625,2.1157124042510986,2.118462562561035,-1.5866124629974365
1750561125626175500,10.802175537109376,2.094949960708618,1.8911750316619873,-2.017812490463257
1750561125635780000,10.811780029296875,1.9299499988555908,1.6505500078201294,-2.419724941253662
1750561125645384700,10.821384765625,1.7479000091552734,1.3719749450683594,-2.7398250102996826
1750561125654989300,10.8309892578125,1.6208499670028687,1.0458250045776367,-2.9671125411987305
1750561125664594200,10.84059423828125,1.561037540435791,0.7159624695777893,-3.168687582015991
1750561125674198800,10.85019873046875,1.4632749557495117,0.3689124882221222,-3.483837366104126
1750561125683803400,10.859803466796874,1.2006499767303467,0.015949999913573265,-3.956700086593628
1750561125693408300,10.869408203125,0.8023124933242798,-0.2798124849796295,-4.50285005569458
1750561125703012900,10.879012939453125,0.4138749837875366,-0.5631999969482422,-4.94504976272583
1750561125712617700,10.88861767578125,0.11082500219345093,-0.7880125045776367,-5.153912544250488
1750561125722222300,10.898222412109375,-0.13474999368190765,-0.9516375064849854,-5.119812488555908
1750561125731827000,10.907826904296876,-0.3166624903678894,-1.1886874437332153,-4.833812236785889
1750561125741431800,10.917431884765625,-0.48042500019073486,-1.4819749593734741,-4.214512348175049
1750561125751036400,10.927036376953126,-0.6319500207901001,-1.660312533378601,-3.233449935913086
1750561125760641300,10.936641357421875,-0.8762875199317932,-1.6333625316619873,-2.115575075149536
1750561125770246000,10.946245849609374,-1.167099952697754,-1.5247374773025513,-1.2273249626159668
1750561125779850500,10.9558505859375,-1.3624874353408813,-1.4195499420166016,-0.8266500234603882
1750561125789455400,10.965455322265624,-1.538487434387207,-1.302262544631958,-0.8401250243186951
1750561125799060200,10.975060302734375,-1.6557749509811401,-1.1031625270843506,-0.9121749997138977
1750561125808664800,10.984664794921875,-1.7533999681472778,-0.8270624876022339,-0.7460749745368958
1750561125818269400,10.99426953125,-1.80840003490448,-0.345674991607666,-0.259737491607666
1750561125827874300,11.003874267578125,-1.7571125030517578,-0.025575000792741776,0.33646249771118164
1750561125837479000,11.01347900390625,-1.6935875415802002,0.20281249284744263,0.9362375140190125
1750561125847083500,11.02308349609375,-1.6557749509811401,0.35791251063346863,1.4151500463485718
1750561125856688000,11.032688232421876,-1.6068249940872192,0.5179625153541565,1.7047250270843506
1750561125866292700,11.042292724609375,-1.5775375366210938,0.7709624767303467,1.8525375127792358
1750561125875897600,11.051897705078124,-1.5225374698638916,1.022587537765503,1.945349931716919
1750561125885502200,11.061502197265625,-1.4174875020980835,1.0800625085830688,1.9893499612808228
1750561125895107300,11.071107421875,-1.25496244430542,0.9102500081062317,1.9588249921798706
1750561125904712000,11.0807119140625,-1.038812518119812,0.5791500210762024,1.8378249406814575
1750561125914316500,11.090316650390625,-0.8127624988555908,0.2626250088214874,1.6277250051498413
1750561125923921200,11.099921142578125,-0.650237500667572,0.09776250272989273,1.362625002861023
1750561125933526000,11.109526123046875,-0.5867124795913696,0.26028749346733093,1.1402875185012817
1750561125943130600,11.119130615234376,-0.6575250029563904,0.5669124722480774,0.9900000095367432
1750561125952735200,11.1287353515625,-0.7675250172615051,0.9725375175476074,0.9839500188827515
1750561125962339800,11.13833984375,-0.7504749894142151,1.2083499431610107,1.1330000162124634
1750561125971944700,11.14794482421875,-0.5402374863624573,1.0372999906539917,1.3601499795913696
1750561125981549300,11.15754931640625,-0.19827499985694885,0.5094375014305115,1.5056250095367432
1750561125991154000,11.16715380859375,0.09501250088214874,-0.09652499854564667,1.4103374481201172
1750561126000758800,11.1767587890625,0.2525874972343445,-0.42996248602867126,1.0828125476837158
1750561126010363600,11.18636376953125,0.2903999984264374,-0.4166249930858612,0.6345624923706055
1750561126019968300,11.19596826171875,0.21353749930858612,-0.24433749914169312,0.17998750507831573
1750561126029572900,11.20557275390625,0.05348749831318855,0.05252499878406525,-0.1326874941587448
1750561126039177700,11.215177734375,-0.11275000125169754,0.3811500072479248,-0.2512125074863434
1750561126048782300,11.2247822265625,-0.1480875015258789,0.6047250032424927,-0.22673749923706055
1750561126058387000,11.234386962890625,-0.04922499880194664,0.6499624848365784,-0.1621125042438507
1750561126067991800,11.24399169921875,0.09253749996423721,0.5814874768257141,-0.11316250264644623
1750561126077596200,11.25359619140625,0.20858749747276306,0.45938751101493835,-0.1083500012755394
1750561126087201000,11.263200927734376,0.267300009727478,0.32133749127388,-0.14492499828338623
1750561126096806000,11.272805908203125,0.2708750069141388,0.15028749406337738,-0.20487499237060547
1750561126106410500,11.282410400390624,0.23553749918937683,-0.06833750009536743,-0.24639999866485596
1750561126116015000,11.29201513671875,0.14630000293254852,-0.21381250023841858,-0.23897500336170197
1750561126125620000,11.301619873046874,0.030249999836087227,-0.14176249504089355,-0.18892499804496765
1750561126135224800,11.311224853515625,-0.04675000160932541,0.047712501138448715,-0.13516250252723694
1750561126144829400,11.320829345703125,-0.055275000631809235,0.1905750036239624,-0.10216250270605087
1750561126154434000,11.33043408203125,-0.003987499978393316,0.23457500338554382,-0.09363749623298645
1750561126164038700,11.34003857421875,0.08401250094175339,0.18081249296665192,-0.11316250264644623
1750561126173643500,11.3496435546875,0.16830000281333923,0.10628750175237656,-0.1326874941587448
1750561126183248100,11.359248046875,0.22206249833106995,0.05004999786615372,-0.1303499937057495
1750561126192852700,11.368852783203126,0.23058749735355377,0.018287500366568565,-0.11935000121593475
1750561126202457300,11.378457275390625,0.18906250596046448,0.01223750039935112,-0.1326874941587448
1750561126212062200,11.388062255859374,0.11701250076293945,0.07081250101327896,-0.18287499248981476
1750561126221667000,11.3976669921875,0.02419999986886978,0.15633749961853027,-0.2451625019311905
1750561126231271700,11.407271728515624,-0.043037500232458115,0.19552500545978546,-0.28792500495910645
1750561126240876300,11.416876220703125,-0.06379999965429306,0.1405249983072281,-0.27445000410079956
1750561126250481200,11.426481201171875,-0.045512501150369644,0.057475000619888306,-0.17668749392032623
1750561126260085800,11.436085693359376,-0.011274999938905239,-0.02199999988079071,-0.030112499371170998
1750561126269690600,11.445690673828125,0.022962499409914017,-0.047575000673532486,0.09941250085830688
1750561126279295200,11.455295166015626,0.05101250112056732,-0.004812499973922968,0.13598750531673431
1750561126288899800,11.46489990234375,0.07301250100135803,0.057475000619888306,0.06764999777078629
1750561126298504400,11.47450439453125,0.07782500237226486,0.09652499854564667,-0.05458749830722809
1750561126308109000,11.484109130859375,0.05706249922513962,0.12099999934434891,-0.16087499260902405
1750561126317714000,11.4937138671875,0.021724998950958252,0.12581250071525574,-0.19868749380111694
1750561126327318500,11.503318603515625,-0.0002749999985098839,0.07699999958276749,-0.1522125005722046
1750561126336923100,11.512923095703124,-0.01251249946653843,-0.023237500339746475,-0.03382499888539314
1750561126346528000,11.522528076171875,-0.010037500411272049,-0.10381250083446503,0.10546249896287918
1750561126356132600,11.532132568359375,0.002199999988079071,-0.13805000483989716,0.2032250016927719
1750561126365737500,11.541737548828126,0.020487500354647636,-0.10999999940395355,0.2069374918937683
1750561126375342300,11.55134228515625,0.03148749843239784,-0.05252499878406525,0.12264999747276306
1750561126384947000,11.560947021484376,0.030249999836087227,0.00494999997317791,-0.0008249999955296516
1750561126394551600,11.570551513671875,0.022962499409914017,0.05252499878406525,-0.12416250258684158
1750561126404156200,11.58015625,0.021724998950958252,0.059812501072883606,-0.21092499792575836
1750561126413761000,11.589760986328125,0.030249999836087227,0.04399999976158142,-0.23045000433921814
1750561126423365600,11.59936572265625,0.05472499877214432,0.03671250119805336,-0.19868749380111694
1750561126432970200,11.60897021484375,0.08524999767541885,0.0317624993622303,-0.1522125005722046
1750561126442574800,11.618574951171874,0.12182500213384628,0.0037124999798834324,-0.10216250270605087
1750561126452179700,11.6281796875,0.15482500195503235,-0.05376249924302101,-0.04358749836683273
1750561126461784300,11.637784423828125,0.14877499639987946,-0.07933750003576279,0.021175000816583633
1750561126471389200,11.64738916015625,0.09377499669790268,-0.02681249938905239,0.06888750195503235
1750561126480993800,11.656993896484375,0.022962499409914017,0.047712501138448715,0.06888750195503235
1750561126490598700,11.6665986328125,-0.040562499314546585,0.08428750187158585,0.018699999898672104
1750561126500203300,11.676203369140625,-0.07356250286102295,0.08799999952316284,-0.06311249732971191
1750561126509808000,11.68580810546875,-0.06627500057220459,0.06971249729394913,-0.14121249318122864
1750561126519412700,11.695412841796875,-0.028462499380111694,0.032999999821186066,-0.18287499248981476
1750561126529017300,11.705017333984374,0.009487500414252281,0.01223750039935112,-0.1779250055551529
1750561126538622200,11.714622314453125,0.03506249934434891,0.002474999986588955,-0.13887499272823334
1750561126548226800,11.724226806640624,0.03753750026226044,0.018287500366568565,-0.08016250282526016
1750561126557831400,11.73383154296875,0.02419999986886978,0.030524998903274536,-0.017875000834465027
1750561126567436000,11.74343603515625,0.0032999999821186066,0.020762499421834946,0.02488750033080578
1750561126577040600,11.75304052734375,-0.01979999989271164,0.02199999988079071,0.016362499445676804
1750561126586645500,11.7626455078125,-0.03203750029206276,0.02199999988079071,-0.030112499371170998
