time,seconds_elapsed,z,y,x
1750560167641446700,0.09444677734375,7.15500020980835,5.781000137329102,-0.9250500202178955
1750560167651051300,0.10405126953125,6.961050510406494,6.085050106048584,-1.927950143814087
1750560167660655900,0.11365576171875,7.488000392913818,6.468000411987305,-2.0500500202178955
1750560167670260000,0.123260009765625,7.267950534820557,6.178950309753418,-1.1740500926971436
1750560167679864600,0.132864501953125,6.493950366973877,6.207000255584717,-0.736050009727478
1750560167689469200,0.14246923828125,5.998950481414795,6.207000255584717,-0.5320500135421753
1750560167699073500,0.152073486328125,6.094050407409668,6.295950412750244,-0.9900000691413879
1750560167708678100,0.16167822265625,7.567050457000732,5.982000350952148,-0.9270000457763672
1750560167718282500,0.171282470703125,9.127950668334961,5.74500036239624,-0.33105000853538513
1750560167727887000,0.18088720703125,10.23705005645752,5.590050220489502,-0.2070000171661377
1750560167737491500,0.190491455078125,10.119000434875488,5.797950267791748,-0.5320500135421753
1750560167747096000,0.200095947265625,8.826000213623047,5.848050117492676,-0.6640500426292419
1750560167756700400,0.209700439453125,7.636050224304199,5.980050086975098,-0.7770000100135803
1750560167766305000,0.219304931640625,6.906000137329102,6.133050441741943,-1.2750000953674316
1750560167775909600,0.22890966796875,7.215000152587891,5.854950428009033,-1.533000111579895
1750560167785514000,0.238513916015625,7.987950325012207,5.259000301361084,-1.4490001201629639
1750560167795118300,0.248118408203125,8.722949981689453,5.724000453948975,-1.864050030708313
1750560167804723000,0.257722900390625,8.509950637817383,5.740050315856934,-0.9679500460624695
1750560167814327600,0.26732763671875,7.593000411987305,5.463000297546387,0.62295001745224
1750560167823932000,0.276931884765625,6.889050483703613,5.463000297546387,1.4850000143051147
1750560167833536300,0.286536376953125,6.5400004386901855,5.47005033493042,1.1119500398635864
1750560167843140600,0.296140625,7.837050437927246,5.749950408935547,-0.5629500150680542
1750560167852745200,0.3057451171875,8.94105052947998,5.970000267028809,-1.8060001134872437
1750560167862349800,0.315349853515625,9.625950813293457,5.764050483703613,-2.1750001907348633
1750560167871954200,0.3249541015625,9.42495059967041,5.82705020904541,-2.1559500694274902
1750560167881558800,0.334558837890625,8.268000602722168,5.8120503425598145,-1.4130001068115234
1750560167891163100,0.3441630859375,7.147950172424316,5.7210001945495605,-0.40800002217292786
1750560167900767700,0.353767822265625,6.408000469207764,5.6569504737854,0.04605000093579292
1750560167910372400,0.363372314453125,6.529950141906738,5.647050380706787,-0.2880000174045563
1750560167919976400,0.3729765625,6.898950099945068,5.8030500411987305,-0.9130500555038452
1750560167929581000,0.3825810546875,7.474050521850586,5.874000072479248,-1.2940500974655151
1750560167939185700,0.392185546875,7.513950347900391,5.8909502029418945,-1.1500500440597534
1750560167948790000,0.4017900390625,7.252950191497803,5.970000267028809,-0.4510500133037567
1750560167958394400,0.411394287109375,7.737000465393066,5.946000099182129,-0.15195000171661377
1750560167967999000,0.4209990234375,8.296950340270996,5.908050060272217,-0.2740500271320343
1750560167977603300,0.430603271484375,9.23805046081543,5.902950286865234,-0.7240500450134277
1750560167987208000,0.4402080078125,9.415050506591797,6.103950500488281,-1.1860500574111938
1750560167996812300,0.449812255859375,9.087000846862793,6.150000095367432,-0.9820500612258911
1750560168006417000,0.4594169921875,8.151000022888184,5.90595006942749,-0.5059500336647034
1750560168016021200,0.469021240234375,7.45395040512085,5.877000331878662,-0.30300000309944153
1750560168025625900,0.4786259765625,7.207950115203857,5.937000274658203,-0.3550500273704529
1750560168035230200,0.488230224609375,7.231950283050537,5.83905029296875,-0.5779500007629395
1750560168044834600,0.49783447265625,6.705000400543213,6.2910003662109375,-0.62295001745224
1750560168054439200,0.507439208984375,7.191000461578369,6.565950393676758,-0.46095001697540283
1750560168064043500,0.51704345703125,7.105050563812256,6.0420002937316895,-0.003000000026077032
1750560168073648000,0.526648193359375,7.360950469970703,6.195000171661377,0.3240000009536743
1750560168083252500,0.53625244140625,7.966950416564941,6.29295015335083,-0.015000000596046448
1750560168092857000,0.545857177734375,7.939950466156006,6.1120500564575195,-0.5560500025749207
1750560168102461400,0.55546142578125,7.762950420379639,6.1120500564575195,-0.89205002784729
1750560168112066000,0.565066162109375,7.521000385284424,6.199950218200684,-1.0260000228881836
1750560168121670700,0.574670654296875,7.248000144958496,6.085050106048584,-0.5179499983787537
1750560168131275000,0.58427490234375,7.189050197601318,6.034950256347656,0.039000000804662704
1750560168140879400,0.59387939453125,7.399050235748291,6.009000301361084,0.33105000853538513
1750560168150484200,0.603484130859375,7.729950428009033,6.016050338745117,0.3720000088214874
1750560168160088600,0.613088623046875,7.91895055770874,6.163950443267822,-0.00795000046491623
1750560168169692700,0.622692626953125,8.146050453186035,6.274050235748291,-0.35295000672340393
1750560168179297300,0.63229736328125,8.067000389099121,6.384000301361084,-0.5989500284194946
1750560168188902000,0.64190185546875,7.552950382232666,6.279000282287598,-0.6739500164985657
1750560168198506200,0.65150634765625,7.225050449371338,6.079950332641602,-0.7410000562667847
1750560168208110600,0.661110595703125,7.299000263214111,6.097050189971924,-0.9030000567436218
1750560168217715200,0.670715087890625,7.591050148010254,6.090000152587891,-1.0470000505447388
1750560168227319800,0.68031982421875,7.7149505615234375,6.150000095367432,-1.0830000638961792
1750560168236924200,0.689924072265625,7.7470502853393555,6.058950424194336,-0.89205002784729
1750560168246528800,0.69952880859375,7.794000148773193,6.037050247192383,-0.6160500049591064
1750560168256133400,0.70913330078125,7.758000373840332,6.034950256347656,-0.3930000066757202
1750560168265737700,0.71873779296875,7.591050148010254,6.03000020980835,-0.19005000591278076
1750560168275342300,0.72834228515625,7.509000301361084,6.043950080871582,-0.019950000569224358
1750560168284946700,0.73794677734375,7.5450005531311035,6.055950164794922,0.019950000569224358
1750560168294551300,0.74755126953125,7.495050430297852,6.103950500488281,-0.15900000929832458
1750560168304155600,0.75715576171875,7.576950550079346,6.097050189971924,-0.43695002794265747
1750560168313760300,0.76676025390625,7.624050140380859,6.106950283050537,-0.5800500512123108
1750560168323364600,0.776364501953125,7.737000465393066,6.03000020980835,-0.6859500408172607
1750560168332969200,0.78596923828125,7.870950222015381,6.010950088500977,-0.6379500031471252
1750560168342573800,0.79557373046875,7.951950550079346,5.989050388336182,-0.6210000514984131
1750560168352178200,0.80517822265625,7.806000232696533,6.028050422668457,-0.8700000643730164
1750560168361782800,0.81478271484375,7.609950542449951,6.03000020980835,-0.973050057888031
1750560168371387100,0.82438720703125,7.663050174713135,5.982000350952148,-0.7260000109672546
1750560168380991700,0.83399169921875,7.738950252532959,5.961000442504883,-0.34800001978874207
1750560168390596400,0.843596435546875,7.926000595092773,5.902950286865234,0.08895000070333481
1750560168400200700,0.85320068359375,7.998000144958496,5.886000156402588,0.11805000901222229
1750560168409805000,0.86280517578125,7.998000144958496,5.985000133514404,-0.23100000619888306
1750560168419409700,0.87240966796875,7.804050445556641,6.151950359344482,-0.5920500159263611
1750560168429014000,0.882013916015625,7.528950214385986,6.11400032043457,-0.6310500502586365
1750560168438618600,0.89161865234375,7.395000457763672,5.970000267028809,-0.4440000355243683
1750560168448223000,0.901222900390625,7.4760003089904785,5.8909502029418945,-0.4819500148296356
1750560168457827600,0.91082763671875,7.591050148010254,5.881950378417969,-0.609000027179718
1750560168467432000,0.920431884765625,7.741950511932373,5.90595006942749,-0.7380000352859497
1750560168477036300,0.930036376953125,7.864050388336182,5.977050304412842,-0.6880500316619873
1750560168486640600,0.939640625,7.786950588226318,5.9920501708984375,-0.45600003004074097
1750560168496245200,0.949245361328125,7.584000587463379,5.989050388336182,-0.05100000277161598
1750560168505849900,0.958849853515625,7.399050235748291,5.986950397491455,0.2179500162601471
1750560168515454200,0.9684541015625,7.426050186157227,5.9920501708984375,0.325950026512146
1750560168525058600,0.97805859375,7.591050148010254,6.064050197601318,0.12000000476837158
1750560168534663200,0.9876630859375,7.914000511169434,6.094950199127197,-0.2760000228881836
1750560168544267800,0.997267822265625,8.13705062866211,6.151950359344482,-0.48705002665519714
1750560168553872100,1.0068720703125,8.08905029296875,6.22605037689209,-0.5710500478744507
1750560168563476700,1.016476806640625,7.9860005378723145,6.195000171661377,-0.5059500336647034
1750560168573081300,1.026081298828125,7.780050277709961,6.118950366973877,-0.3139500021934509
1750560168582685700,1.035685791015625,7.758000373840332,6.123000144958496,-0.1969500035047531
1750560168592290000,1.0452900390625,7.773000240325928,6.115950107574463,-0.3049500286579132
1750560168601894400,1.054894287109375,7.914000511169434,6.013050079345703,-0.40995001792907715
1750560168611499000,1.0644990234375,8.023950576782227,6.037050247192383,-0.7189500331878662
1750560168621103600,1.074103515625,8.194050788879395,6.0319504737854,-0.7720500230789185
1750560168630708200,1.083708251953125,8.223000526428223,5.997000217437744,-0.5520000457763672
1750560168640312600,1.0933125,8.058000564575195,5.91795015335083,-0.3379500210285187
1750560168649917000,1.1029169921875,7.878000259399414,5.9509501457214355,-0.26205000281333923
1750560168659521500,1.112521484375,7.7659502029418945,5.989050388336182,-0.2350500077009201
1750560168669126000,1.1221259765625,7.660050392150879,6.046950340270996,-0.19500000774860382
1750560168678730500,1.13173046875,7.7149505615234375,6.106950283050537,-0.3910500109195709
1750560168688334800,1.1413349609375,7.969050407409668,6.103950500488281,-0.609000027179718
1750560168697939500,1.150939453125,7.969050407409668,6.147000312805176,-0.8290500640869141
1750560168707544000,1.1605439453125,7.794000148773193,6.088050365447998,-1.0039499998092651
1750560168717148400,1.1701484375,7.609950542449951,6.078000068664551,-1.054050087928772
1750560168726753000,1.1797529296875,7.452000141143799,6.085050106048584,-0.8719500303268433
1750560168736357400,1.189357421875,7.3750505447387695,6.174000263214111,-0.7170000076293945
1750560168745962000,1.1989619140625,7.45395040512085,6.195000171661377,-0.6880500316619873
1750560168755566300,1.20856640625,7.627050399780273,6.1020002365112305,-0.6310500502586365
1750560168765171000,1.2181708984375,7.813950538635254,6.159000396728516,-0.6070500016212463
1750560168774775600,1.227775634765625,7.750950336456299,6.127950191497803,-0.5130000114440918
1750560168784380000,1.2373798828125,7.531050205230713,6.0319504737854,-0.364950031042099
1750560168793984300,1.246984375,7.063950538635254,6.025050163269043,-0.21405000984668732
1750560168803588900,1.2565888671875,6.874950408935547,6.01800012588501,-0.1969500035047531
1750560168813193200,1.266193115234375,7.087950229644775,6.049050331115723,-0.3430500030517578
1750560168822797800,1.2757978515625,7.591050148010254,6.090000152587891,-0.5629500150680542
1750560168832402200,1.285402099609375,8.163000106811523,6.082950115203857,-0.9130500555038452
1750560168842006800,1.2950068359375,8.51294994354248,5.9730000495910645,-1.0180500745773315
1750560168851611100,1.304611083984375,8.494050025939941,5.848050117492676,-0.8479500412940979
1750560168861215700,1.3142158203125,8.256000518798828,5.806950092315674,-0.4630500078201294
1750560168870820400,1.3238203125,8.043000221252441,5.781000137329102,-0.34095001220703125
1750560168880424700,1.3334248046875,7.830000400543213,5.854950428009033,-0.34995001554489136
1750560168890029300,1.343029296875,7.573950290679932,5.937000274658203,-0.35295000672340393
1750560168899633700,1.352633544921875,7.408950328826904,5.956050395965576,-0.27105000615119934
1750560168909238300,1.36223828125,7.440000534057617,5.985000133514404,-0.2550000250339508
1750560168918842600,1.371842529296875,7.450050354003906,5.908050060272217,-0.3430500030517578
1750560168928447200,1.381447265625,7.521000385284424,5.842950344085693,-0.5400000214576721
1750560168938051800,1.3910517578125,7.573950290679932,6.055950164794922,-0.8100000619888306
1750560168947656200,1.40065625,7.584000587463379,6.079950332641602,-0.8890500664710999
1750560168957260500,1.410260498046875,7.846950531005859,6.03000020980835,-0.7570500373840332
1750560168966865200,1.419865234375,8.223000526428223,5.997000217437744,-0.609000027179718
1750560168976469800,1.4294697265625,8.541000366210938,5.94195032119751,-0.5560500025749207
1750560168986074000,1.43907421875,8.473950386047363,5.985000133514404,-0.5989500284194946
1750560168995678500,1.448678466796875,7.969050407409668,5.9730000495910645,-0.49605002999305725
1750560169005283000,1.458282958984375,7.507050514221191,5.962950229644775,-0.4440000355243683
1750560169014887400,1.467887451171875,7.291950225830078,6.078000068664551,-0.4939500093460083
1750560169024492000,1.477491943359375,7.225050449371338,6.159000396728516,-0.5059500336647034
1750560169034096600,1.4870966796875,7.420950412750244,6.193050384521484,-0.4630500078201294
1750560169043701000,1.496700927734375,7.717950344085693,6.190950393676758,-0.520050048828125
1750560169053305600,1.5063056640625,7.90500020980835,6.135000228881836,-0.527999997138977
1750560169062910200,1.51591015625,7.966950416564941,6.135000228881836,-0.5230500102043152
1750560169072514600,1.5255146484375,7.837050437927246,6.133050441741943,-0.4510500133037567
1750560169082119000,1.535118896484375,7.809000492095947,6.090000152587891,-0.4050000309944153
1750560169091723500,1.5447236328125,7.962000370025635,6.067950248718262,-0.4050000309944153
1750560169101328100,1.554328125,8.031000137329102,6.097050189971924,-0.5520000457763672
1750560169110932500,1.563932373046875,8.022000312805176,5.953050136566162,-0.6019500494003296
1750560169120537000,1.573537109375,7.813950538635254,5.896050453186035,-0.595050036907196
1750560169130141200,1.58314111328125,7.528950214385986,6.0319504737854,-0.48405003547668457
1750560169139745800,1.592745849609375,7.323000431060791,6.073050498962402,-0.23805001378059387
1750560169149350400,1.602350341796875,7.2870001792907715,6.01800012588501,-0.15405000746250153
1750560169158955000,1.611955078125,7.552950382232666,6.022950172424316,-0.1969500035047531
1750560169168559400,1.621559326171875,7.8160505294799805,6.058950424194336,-0.29295000433921814
1750560169178164000,1.6311640625,7.870950222015381,6.0319504737854,-0.3930000066757202
1750560169187768300,1.640768310546875,7.7749505043029785,6.034950256347656,-0.45795002579689026
1750560169197373000,1.650373046875,7.513950347900391,6.076050281524658,-0.5230500102043152
1750560169206977300,1.659977294921875,7.2870001792907715,6.1020002365112305,-0.5230500102043152
1750560169216582000,1.669581787109375,7.255950450897217,6.142950057983398,-0.4050000309944153
1750560169226186500,1.6791865234375,7.464000225067139,6.103950500488281,-0.322050005197525
1750560169235790800,1.688790771484375,7.789950370788574,6.088050365447998,-0.2880000174045563
1750560169245395500,1.6983955078125,7.962000370025635,6.0010504722595215,-0.30300000309944153
1750560169254999800,1.707999755859375,7.885050296783447,5.9730000495910645,-0.3820500075817108
1750560169264604400,1.7176044921875,7.675050258636475,5.986950397491455,-0.42000001668930054
1750560169274209000,1.727208984375,7.531050205230713,6.055950164794922,-0.5010000467300415
1750560169283813400,1.7368134765625,7.5450005531311035,6.054000377655029,-0.45600003004074097
1750560169293417700,1.746417724609375,7.666950225830078,6.076050281524658,-0.36705002188682556
1750560169303022300,1.756022216796875,7.909050464630127,6.1020002365112305,-0.36195001006126404
1750560169312626700,1.765626708984375,8.050950050354004,6.073050498962402,-0.4129500091075897
1750560169322231300,1.775231201171875,7.948050498962402,6.028050422668457,-0.5010000467300415
1750560169331835600,1.784835693359375,7.717950344085693,6.049050331115723,-0.527999997138977
1750560169341440300,1.794440185546875,7.486050128936768,6.043950080871582,-0.4459500312805176
1750560169351044900,1.804044921875,7.402050495147705,6.064050197601318,-0.30300000309944153
1750560169360649200,1.813649169921875,7.552950382232666,6.103950500488281,-0.2639999985694885
1750560169370253600,1.823253662109375,7.849050521850586,6.11400032043457,-0.2950500249862671
1750560169379858200,1.832858154296875,8.187000274658203,6.109050273895264,-0.46800002455711365
1750560169389462800,1.842462890625,8.485950469970703,6.090000152587891,-0.7120500206947327
1750560169399067100,1.852067138671875,8.577000617980957,6.037050247192383,-0.931950032711029
1750560169408671700,1.861671630859375,8.407050132751465,6.009000301361084,-0.9180000424385071
1750560169418276400,1.8712763671875,8.187000274658203,5.974950313568115,-0.7810500264167786
1750560169427880700,1.880880615234375,8.043000221252441,5.946000099182129,-0.5010000467300415
1750560169437485300,1.8904853515625,7.9360504150390625,5.91795015335083,-0.35295000672340393
1750560169447089700,1.900089599609375,8.017050743103027,5.908050060272217,-0.4030500054359436
1750560169456694300,1.9096943359375,8.142000198364258,5.9509501457214355,-0.583050012588501
1750560169466299000,1.919298828125,8.155950546264648,5.913000106811523,-0.690000057220459
1750560169475903200,1.9289033203125,8.070000648498535,5.910000324249268,-0.7140000462532043
1750560169485507800,1.9385078125,7.804050445556641,5.962950229644775,-0.595050036907196
1750560169495112400,1.948112548828125,7.609950542449951,5.937000274658203,-0.48000001907348633
1750560169504716800,1.957716796875,7.557000160217285,5.914950370788574,-0.42195001244544983
1750560169514321200,1.967321044921875,7.758000373840332,6.0010504722595215,-0.5779500007629395
1750560169523925800,1.97692578125,7.840050220489502,6.037050247192383,-0.6420000195503235
1750560169533530000,1.986530029296875,7.73205041885376,6.004050254821777,-0.45795002579689026
1750560169543134700,1.996134765625,7.4160003662109375,6.025050163269043,-0.3169500231742859
1750560169552739000,2.005739013671875,7.237050533294678,6.0420002937316895,-0.325950026512146
1750560169562343700,2.01534375,7.219950199127197,6.040050506591797,-0.3769500255584717
1750560169571948300,2.0249482421875,7.480950355529785,6.076050281524658,-0.4650000333786011
1750560169581552600,2.034552734375,7.794000148773193,6.0420002937316895,-0.4510500133037567
1750560169591157200,2.0441572265625,8.082000732421875,6.0319504737854,-0.3960000276565552
1750560169600761900,2.053761962890625,8.206049919128418,6.0420002937316895,-0.41700002551078796
1750560169610366200,2.0633662109375,8.11500072479248,6.0319504737854,-0.44895002245903015
1750560169619970800,2.072970703125,7.882950305938721,6.009000301361084,-0.3379500210285187
1750560169629575400,2.082575439453125,7.612050533294678,5.9920501708984375,-0.3169500231742859
1750560169639179800,2.0921796875,7.495050430297852,6.025050163269043,-0.42705002427101135
1750560169648784400,2.101784423828125,7.3969502449035645,6.079950332641602,-0.5920500159263611
1750560169658388700,2.111388671875,7.348950386047363,6.1020002365112305,-0.5800500512123108
1750560169667993300,2.120993408203125,7.464000225067139,6.13800048828125,-0.5059500336647034
1750560169677597700,2.13059765625,7.617000579833984,6.109050273895264,-0.41505002975463867
1750560169687202300,2.140202392578125,7.72005033493042,6.0420002937316895,-0.36195001006126404
1750560169696807000,2.149806884765625,7.753950595855713,6.004050254821777,-0.36195001006126404
1750560169706411500,2.15941162109375,7.653000354766846,5.962950229644775,-0.38895002007484436
1750560169716015900,2.169015869140625,7.567050457000732,5.989050388336182,-0.46095001697540283
1750560169725620500,2.178620361328125,7.581000328063965,5.997000217437744,-0.6690000295639038
1750560169735224600,2.188224609375,7.657950401306152,6.049050331115723,-0.7860000133514404
1750560169744829200,2.1978291015625,7.7749505043029785,5.998950481414795,-0.8800500631332397
1750560169754433800,2.207433837890625,7.713000297546387,5.980050086975098,-0.8050500154495239
1750560169764038100,2.2170380859375,7.581000328063965,5.985000133514404,-0.6160500049591064
1750560169773642800,2.226642822265625,7.543050289154053,5.965050220489502,-0.40800002217292786
1750560169783247400,2.236247314453125,7.591050148010254,5.94195032119751,-0.2689500153064728
1750560169792851700,2.245851806640625,7.870950222015381,5.997000217437744,-0.41700002551078796
1750560169802456300,2.255456298828125,8.105999946594238,6.054000377655029,-0.6690000295639038
1750560169812060700,2.265060791015625,8.151000022888184,6.013050079345703,-0.7099500298500061
1750560169821665300,2.274665283203125,7.900050163269043,6.058950424194336,-0.7600500583648682
1750560169831269600,2.28426953125,7.540950298309326,6.0610504150390625,-0.6540000438690186
1750560169840874500,2.29387451171875,7.2960004806518555,6.090000152587891,-0.5010000467300415
1750560169850478800,2.303478759765625,7.258050441741943,6.067950248718262,-0.46995002031326294
1750560169860083200,2.313083251953125,7.395000457763672,6.078000068664551,-0.5059500336647034
1750560169869687800,2.322687744140625,7.627050399780273,6.088050365447998,-0.595050036907196
1750560169879292400,2.33229248046875,7.840050220489502,6.070950508117676,-0.5800500512123108
1750560169888897000,2.34189697265625,7.881000518798828,5.989050388336182,-0.4630500078201294
1750560169898501400,2.35150146484375,7.837050437927246,5.989050388336182,-0.42000001668930054
1750560169908105700,2.361105712890625,7.723050594329834,6.0010504722595215,-0.5080500245094299
1750560169917710000,2.3707099609375,7.648050308227539,6.070950508117676,-0.5920500159263611
1750560169927314700,2.380314697265625,7.6650004386901855,6.034950256347656,-0.6760500073432922
1750560169936919300,2.389919189453125,7.797000408172607,6.034950256347656,-0.6660000085830688
1750560169946524000,2.39952392578125,7.842000484466553,6.043950080871582,-0.6349500417709351
1750560169956128000,2.4091279296875,7.786950588226318,6.049050331115723,-0.5869500041007996
1750560169965732900,2.41873291015625,7.648050308227539,6.078000068664551,-0.5080500245094299
1750560169975337200,2.428337158203125,7.495050430297852,6.079950332641602,-0.49605002999305725
1750560169984941800,2.43794189453125,7.407000541687012,6.13800048828125,-0.5610000491142273
1750560169994546200,2.447546142578125,7.500000476837158,6.150000095367432,-0.5850000381469727
1750560170004150800,2.45715087890625,7.656000137329102,6.1120500564575195,-0.527999997138977
1750560170013755100,2.466755126953125,7.878000259399414,6.03000020980835,-0.4990500211715698
1750560170023359700,2.47635986328125,8.13705062866211,6.046950340270996,-0.6040500402450562
1750560170032964400,2.48596435546875,8.185050010681152,6.013050079345703,-0.690000057220459
1750560170042568700,2.495568603515625,8.11500072479248,6.040050506591797,-0.7240500450134277
1750560170052173300,2.50517333984375,8.038949966430664,6.025050163269043,-0.690000057220459
1750560170061778000,2.51477783203125,7.950000286102295,6.0610504150390625,-0.6210000514984131
1750560170071382300,2.52438232421875,7.849050521850586,6.073050498962402,-0.4939500093460083
1750560170080987000,2.53398681640625,7.768050193786621,6.0520501136779785,-0.29295000433921814
1750560170090591500,2.543591552734375,7.780050277709961,6.1020002365112305,-0.21195000410079956
1750560170100195800,2.55319580078125,7.857000350952148,6.1120500564575195,-0.2670000195503235
1750560170109800400,2.562800537109375,7.893000602722168,6.207000255584717,-0.46800002455711365
1750560170119405000,2.572405029296875,7.572000503540039,6.267000198364258,-0.609000027179718
1750560170129009400,2.582009521484375,7.122000217437744,6.267000198364258,-0.5850000381469727
1750560170138613800,2.59161376953125,6.931950092315674,6.31695032119751,-0.4510500133037567
1750560170148218400,2.60121826171875,7.039950370788574,6.29295015335083,-0.3169500231742859
1750560170157823000,2.610822998046875,7.411050319671631,6.258000373840332,-0.28095000982284546
1750560170167427000,2.620427001953125,7.842000484466553,6.205050468444824,-0.31005001068115234
1750560170177031700,2.63003173828125,8.082000732421875,6.169050216674805,-0.4030500054359436
1750560170186636300,2.63963623046875,8.031000137329102,6.157050132751465,-0.36195001006126404
1750560170196241000,2.649240966796875,7.780050277709961,6.11400032043457,-0.28095000982284546
1750560170205845200,2.65884521484375,7.528950214385986,6.151950359344482,-0.2639999985694885
1750560170215449900,2.668449951171875,7.464000225067139,6.198000431060791,-0.32895001769065857
1750560170225054500,2.678054443359375,7.653000354766846,6.20205020904541,-0.5040000081062317
1750560170234658800,2.687658935546875,7.9069504737854,6.166950225830078,-0.5749500393867493
1750560170244263400,2.697263427734375,8.002950668334961,6.139950275421143,-0.520050048828125
1750560170253867800,2.70686767578125,7.873050212860107,6.091950416564941,-0.42705002427101135
1750560170263472400,2.716472412109375,7.5360002517700195,6.115950107574463,-0.32895001769065857
1750560170273077000,2.726076904296875,7.1860504150390625,6.127950191497803,-0.21900001168251038
1750560170282681300,2.735681396484375,7.069050312042236,6.135000228881836,-0.23100000619888306
1750560170292286000,2.745285888671875,7.315950393676758,6.130950450897217,-0.3430500030517578
1750560170301890300,2.754890380859375,7.7659502029418945,6.103950500488281,-0.5539500117301941
1750560170311495000,2.764494873046875,8.08905029296875,6.067950248718262,-0.6930000185966492
1750560170321099500,2.774099609375,8.185050010681152,6.054000377655029,-0.6589500308036804
1750560170330704000,2.783703857421875,8.04104995727539,6.034950256347656,-0.5130000114440918
1750560170340308500,2.79330859375,7.7659502029418945,6.046950340270996,-0.46095001697540283
1750560170349912800,2.802912841796875,7.459050178527832,6.109050273895264,-0.4129500091075897
1750560170359517400,2.812517333984375,7.2270002365112305,6.159000396728516,-0.40095001459121704
1750560170369122000,2.8221220703125,7.131000518798828,6.163950443267822,-0.3379500210285187
1750560170378726400,2.831726318359375,7.07895040512085,6.211950302124023,-0.2950500249862671
1750560170388331000,2.8413310546875,7.192950248718262,6.199950218200684,-0.34095001220703125
1750560170397935400,2.850935302734375,7.384950160980225,6.163950443267822,-0.4030500054359436
1750560170407540000,2.8605400390625,7.648050308227539,6.151950359344482,-0.5629500150680542
1750560170417144300,2.870144287109375,7.9360504150390625,6.151950359344482,-0.6400500535964966
1750560170426749000,2.8797490234375,8.07705020904541,6.163950443267822,-0.62295001745224
1750560170436353500,2.889353515625,8.043000221252441,6.151950359344482,-0.5590500235557556
1750560170445958000,2.8989580078125,7.866000175476074,6.199950218200684,-0.45795002579689026
1750560170455562500,2.9085625,7.548000335693359,6.178950309753418,-0.27900001406669617
1750560170465167000,2.9181669921875,7.324950218200684,6.2220001220703125,-0.12300000339746475
1750560170474771500,2.927771484375,7.320000171661377,6.243000507354736,-0.15600000321865082
1750560170484376000,2.9373759765625,7.4160003662109375,6.223950386047363,-0.22095000743865967
1750560170493980700,2.946980712890625,7.507050514221191,6.2410502433776855,-0.34800001978874207
1750560170503585000,2.9565849609375,7.612050533294678,6.246000289916992,-0.3430500030517578
1750560170513189600,2.966189697265625,7.593000411987305,6.246000289916992,-0.32895001769065857
1750560170522794000,2.9757939453125,7.519050121307373,6.2410502433776855,-0.3240000009536743
1750560170532398600,2.985398681640625,7.408950328826904,6.235950469970703,-0.3139500021934509
1750560170542003200,2.995003173828125,7.414050579071045,6.217050075531006,-0.3430500030517578
1750560170551607800,3.00460791015625,7.498050212860107,6.1810503005981445,-0.4129500091075897
1750560170561212200,3.014212158203125,7.603050231933594,6.12600040435791,-0.5059500336647034
1750560170570816800,3.023816650390625,7.70805025100708,6.106950283050537,-0.6469500064849854
1750560170580421400,3.03342138671875,7.690950393676758,6.147000312805176,-0.6829500198364258
1750560170590025700,3.043025634765625,7.548000335693359,6.145050525665283,-0.5440500378608704
1750560170599630300,3.05263037109375,7.4160003662109375,6.127950191497803,-0.453000009059906
1750560170609235000,3.06223486328125,7.42995023727417,6.133050441741943,-0.4630500078201294
1750560170618839300,3.07183935546875,7.53795051574707,6.1120500564575195,-0.5470499992370605
1750560170628443600,3.081443603515625,7.612050533294678,6.097050189971924,-0.6109500527381897
1750560170638048300,3.09104833984375,7.560000419616699,6.118950366973877,-0.5230500102043152
1750560170647652900,3.10065283203125,7.507050514221191,6.169050216674805,-0.44895002245903015
1750560170657257200,3.11025732421875,7.581000328063965,6.1620001792907715,-0.4410000145435333
1750560170666861600,3.119861572265625,7.726950168609619,6.211950302124023,-0.43905001878738403
1750560170676466200,3.129466064453125,7.90500020980835,6.187950134277344,-0.45600003004074097
1750560170686070800,3.13907080078125,7.984050273895264,6.190950393676758,-0.35805001854896545
1750560170695675100,3.148675048828125,7.999950408935547,6.123000144958496,-0.34800001978874207
1750560170705279700,3.15827978515625,7.942950248718262,6.118950366973877,-0.3720000088214874
1750560170714884400,3.16788427734375,7.837050437927246,6.091950416564941,-0.37005001306533813
1750560170724488700,3.17748876953125,7.6870503425598145,6.118950366973877,-0.36705002188682556
1750560170734093300,3.18709326171875,7.629000186920166,6.13800048828125,-0.35805001854896545
1750560170743698000,3.196697998046875,7.440000534057617,6.150000095367432,-0.36705002188682556
1750560170753302300,3.20630224609375,7.354050159454346,6.205050468444824,-0.4129500091075897
1750560170762907000,3.215906982421875,7.3470001220703125,6.223950386047363,-0.4249500334262848
1750560170772511500,3.225511474609375,7.486050128936768,6.159000396728516,-0.41505002975463867
1750560170782115800,3.23511572265625,7.726950168609619,6.109050273895264,-0.37005001306533813
1750560170791720400,3.244720458984375,7.957050323486328,6.043950080871582,-0.3769500255584717
1750560170801325000,3.254324951171875,8.08905029296875,6.055950164794922,-0.3859500288963318
1750560170810929700,3.2639296875,8.07194995880127,6.070950508117676,-0.42000001668930054
1750560170820534000,3.273533935546875,7.927950382232666,6.090000152587891,-0.48000001907348633
1750560170830138400,3.283138427734375,7.713000297546387,6.127950191497803,-0.44895002245903015
1750560170839743000,3.292742919921875,7.564950466156006,6.135000228881836,-0.3720000088214874
1750560170849347600,3.30234765625,7.4659504890441895,6.130950450897217,-0.27105000615119934
1750560170858952000,3.311951904296875,7.368000507354736,6.139950275421143,-0.16095000505447388
1750560170868556500,3.321556640625,7.390050411224365,6.187950134277344,-0.19005000591278076
1750560170878161000,3.331160888671875,7.540950298309326,6.147000312805176,-0.25905001163482666
1750560170887765500,3.340765625,7.869000434875488,6.159000396728516,-0.34095001220703125
1750560170897370000,3.3503701171875,8.118000030517578,6.13800048828125,-0.46800002455711365
1750560170906974500,3.359974365234375,8.230050086975098,6.1210503578186035,-0.5520000457763672
1750560170916578800,3.369578857421875,8.167950630187988,6.151950359344482,-0.5730000138282776
1750560170926183400,3.379183349609375,7.927950382232666,6.133050441741943,-0.453000009059906
1750560170935788000,3.3887880859375,7.699050426483154,6.139950275421143,-0.3049500286579132
1750560170945392600,3.398392578125,7.5259504318237305,6.174000263214111,-0.2689500153064728
1750560170954997000,3.4079970703125,7.399050235748291,6.198000431060791,-0.25905001163482666
1750560170964601600,3.4176015625,7.3750505447387695,6.2220001220703125,-0.3049500286579132
1750560170974206000,3.4272060546875,7.452000141143799,6.250050067901611,-0.37005001306533813
1750560170983810600,3.436810546875,7.6080002784729,6.207000255584717,-0.42900002002716064
1750560170993415200,3.446415283203125,7.737000465393066,6.198000431060791,-0.48000001907348633
1750560171003019500,3.45601953125,7.8160505294799805,6.243000507354736,-0.48405003547668457
1750560171012624100,3.4656240234375,7.81095027923584,6.23805046081543,-0.3820500075817108
1750560171022228700,3.475228759765625,7.761000156402588,6.193050384521484,-0.31905001401901245
1750560171031833300,3.484833251953125,7.653000354766846,6.166950225830078,-0.31005001068115234
1750560171041437700,3.494437744140625,7.624050140380859,6.1620001792907715,-0.30705001950263977
1750560171051042300,3.504042236328125,7.69605016708374,6.183000087738037,-0.31905001401901245
1750560171060647000,3.51364697265625,7.713000297546387,6.157050132751465,-0.33105000853538513
1750560171070251300,3.523251220703125,7.591050148010254,6.178950309753418,-0.34800001978874207
1750560171079855600,3.532855712890625,7.492950439453125,6.198000431060791,-0.4440000355243683
1750560171089460200,3.542460205078125,7.471050262451172,6.21405029296875,-0.4459500312805176
1750560171099064800,3.55206494140625,7.615050315856934,6.219000339508057,-0.40800002217292786
1750560171108669200,3.561669189453125,7.804050445556641,6.147000312805176,-0.44895002245903015
1750560171118273800,3.571273681640625,7.981050491333008,6.100050449371338,-0.45600003004074097
1750560171127878100,3.580878173828125,7.999950408935547,6.085050106048584,-0.45600003004074097
1750560171137482800,3.590482666015625,7.845000267028809,6.088050365447998,-0.46800002455711365
1750560171147087000,3.600087158203125,7.609950542449951,6.090000152587891,-0.42705002427101135
1750560171156691700,3.609691650390625,7.4160003662109375,6.135000228881836,-0.48000001907348633
1750560171166296300,3.61929638671875,7.320000171661377,6.1810503005981445,-0.5520000457763672
1750560171175901000,3.62890087890625,7.3750505447387695,6.2220001220703125,-0.5299500226974487
1750560171185505300,3.63850537109375,7.507050514221191,6.187950134277344,-0.364950031042099
1750560171195110000,3.64810986328125,7.6080002784729,6.118950366973877,-0.2350500077009201
1750560171204714200,3.65771435546875,7.73205041885376,6.1620001792907715,-0.25905001163482666
1750560171214318800,3.66731884765625,7.758000373840332,6.175950527191162,-0.33105000853538513
1750560171223923500,3.67692333984375,7.699050426483154,6.150000095367432,-0.2880000174045563
1750560171233527800,3.68652783203125,7.64400053024292,6.183000087738037,-0.30300000309944153
1750560171243132400,3.69613232421875,7.564950466156006,6.1620001792907715,-0.286050021648407
1750560171252737000,3.705737060546875,7.6080002784729,6.154950141906738,-0.283050000667572
1750560171262341400,3.71534130859375,7.639050483703613,6.150000095367432,-0.37005001306533813
1750560171271946000,3.724946044921875,7.5960001945495605,6.166950225830078,-0.41700002551078796
1750560171281550300,3.73455029296875,7.483050346374512,6.23805046081543,-0.48405003547668457
1750560171291155200,3.7441552734375,7.342050552368164,6.247950077056885,-0.4459500312805176
1750560171300759600,3.753759521484375,7.270050525665283,6.243000507354736,-0.3739500045776367
1750560171310364000,3.763364013671875,7.324950218200684,6.286050319671631,-0.3769500255584717
1750560171319968300,3.77296826171875,7.521000385284424,6.258000373840332,-0.3859500288963318
1750560171329573000,3.782572998046875,7.735050201416016,6.198000431060791,-0.42900002002716064
1750560171339177700,3.792177734375,7.927950382232666,6.1810503005981445,-0.42000001668930054
1750560171348781800,3.80178173828125,7.9170002937316895,6.166950225830078,-0.40095001459121704
1750560171358386700,3.81138671875,7.768050193786621,6.219000339508057,-0.25005000829696655
1750560171367991000,3.820990966796875,7.660050392150879,6.2310004234313965,-0.208950012922287
1750560171377595600,3.830595703125,7.584000587463379,6.21405029296875,-0.24495001137256622
1750560171387200000,3.840199951171875,7.509000301361084,6.2310004234313965,-0.36705002188682556
1750560171396804600,3.8498046875,7.560000419616699,6.217050075531006,-0.41505002975463867
1750560171406409200,3.8594091796875,7.593000411987305,6.178950309753418,-0.4510500133037567
1750560171416013600,3.869013671875,7.621950149536133,6.174000263214111,-0.4339500069618225
1750560171425618200,3.8786181640625,7.569000244140625,6.195000171661377,-0.41505002975463867
1750560171435222800,3.888222900390625,7.5259504318237305,6.21405029296875,-0.4030500054359436
1750560171444827100,3.8978271484375,7.45395040512085,6.250050067901611,-0.3820500075817108
1750560171454431700,3.907431640625,7.426050186157227,6.2719502449035645,-0.2880000174045563
1750560171464036400,3.917036376953125,7.603050231933594,6.211950302124023,-0.22305001318454742
1750560171473640700,3.926640625,7.741950511932373,6.193050384521484,-0.27900001406669617
1750560171483245300,3.936245361328125,7.813950538635254,6.190950393676758,-0.2950500249862671
1750560171492850000,3.945849853515625,7.693950176239014,6.1710004806518555,-0.364950031042099
1750560171502454300,3.955454345703125,7.488000392913818,6.187950134277344,-0.39795002341270447
1750560171512059000,3.965058837890625,7.2870001792907715,6.2310004234313965,-0.46095001697540283
1750560171521663500,3.97466357421875,7.2460503578186035,6.190950393676758,-0.4410000145435333
1750560171531267800,3.984267822265625,7.492950439453125,6.195000171661377,-0.4440000355243683
1750560171540872400,3.99387255859375,7.837050437927246,6.178950309753418,-0.4990500211715698
1750560171550477000,4.00347705078125,8.119950294494629,6.154950141906738,-0.48405003547668457
1750560171560081700,4.01308154296875,8.163000106811523,6.135000228881836,-0.5080500245094299
1750560171569686000,4.02268603515625,7.90500020980835,6.166950225830078,-0.41505002975463867
1750560171579290600,4.03229052734375,7.41795015335083,6.20205020904541,-0.2760000228881836
1750560171588895000,4.04189501953125,7.165050506591797,6.217050075531006,-0.1469999998807907
1750560171598499600,4.05149951171875,7.260000228881836,6.250050067901611,-0.13305000960826874
1750560171608104000,4.06110400390625,7.488000392913818,6.247950077056885,-0.24000000953674316
1750560171617708300,4.070708251953125,7.73205041885376,6.279000282287598,-0.41700002551078796
1750560171627313000,4.08031298828125,7.7470502853393555,6.274050235748291,-0.48000001907348633
1750560171636917500,4.08991748046875,7.5960001945495605,6.23805046081543,-0.40800002217292786
1750560171646522000,4.099522216796875,7.464000225067139,6.21405029296875,-0.3360000252723694
1750560171656126500,4.10912646484375,7.480950355529785,6.223950386047363,-0.24705001711845398
1750560171665731000,4.11873095703125,7.7059502601623535,6.205050468444824,-0.29295000433921814
1750560171675335700,4.128335693359375,7.8259501457214355,6.207000255584717,-0.4320000112056732
1750560171684940000,4.13793994140625,7.7749505043029785,6.183000087738037,-0.5320500135421753
1750560171694544600,4.147544677734375,7.53795051574707,6.2310004234313965,-0.5560500025749207
1750560171704149200,4.157149169921875,7.368000507354736,6.21405029296875,-0.35295000672340393
1750560171713753600,4.166753662109375,7.380000114440918,6.205050468444824,-0.19500000774860382
1750560171723358200,4.176358154296875,7.4760003089904785,6.183000087738037,-0.22800001502037048
1750560171732962800,4.185962890625,7.7989501953125,6.246000289916992,-0.364950031042099
1750560171742567200,4.195567138671875,8.022000312805176,6.255000114440918,-0.47505003213882446
1750560171752171800,4.205171875,8.118000030517578,6.21405029296875,-0.46800002455711365
1750560171761776400,4.2147763671875,7.9069504737854,6.22605037689209,-0.5419500470161438
1750560171771380700,4.224380615234375,7.609950542449951,6.259950160980225,-0.5899500250816345
1750560171780985300,4.2339853515625,7.4569501876831055,6.247950077056885,-0.48405003547668457
1750560171790590000,4.24358984375,7.384950160980225,6.23805046081543,-0.38895002007484436
1750560171800194600,4.253194580078125,7.383000373840332,6.28095006942749,-0.2740500271320343
1750560171809799200,4.262799072265625,7.513950347900391,6.325050354003906,-0.22800001502037048
1750560171819403500,4.272403564453125,7.477950572967529,6.334050178527832,-0.21195000410079956
1750560171829008000,4.2820078125,7.402050495147705,6.343950271606445,-0.22305001318454742
1750560171838612700,4.29161279296875,7.378050327301025,6.379950523376465,-0.40995001792907715
1750560171848217000,4.301217041015625,7.53795051574707,6.363000392913818,-0.4990500211715698
1750560171857821700,4.31082177734375,7.735050201416016,6.295950412750244,-0.5059500336647034
1750560171867426000,4.320426025390625,8.017050743103027,6.258000373840332,-0.47700002789497375
1750560171877030700,4.33003076171875,8.266050338745117,6.259950160980225,-0.43695002794265747
1750560171886635300,4.33963525390625,8.320950508117676,6.193050384521484,-0.31905001401901245
1750560171896239600,4.349239501953125,8.392950057983398,6.157050132751465,-0.24300001561641693
1750560171905844200,4.35884423828125,8.308950424194336,6.1620001792907715,-0.22605000436306
1750560171915448800,4.36844873046875,8.36205005645752,6.154950141906738,-0.10905000567436218
1750560171925053200,4.37805322265625,8.248950004577637,6.20205020904541,-0.12105000764131546
1750560171934657800,4.38765771484375,8.319000244140625,6.3409504890441895,-0.21900001168251038
1750560171944262100,4.39726220703125,8.506050109863281,6.439950466156006,-0.15405000746250153
1750560171953866800,4.40686669921875,8.88900089263916,6.4110002517700195,-0.10605000704526901
1750560171963471400,4.416471435546875,9.478050231933594,6.451050281524658,-0.08700000494718552
1750560171973075700,4.42607568359375,9.669000625610352,6.279000282287598,0.05100000277161598
1750560171982680300,4.435680419921875,9.874950408935547,6.21405029296875,0.15105000138282776
1750560171992284700,4.44528466796875,9.22095012664795,6.370050430297852,0.11295000463724136
1750560172001889300,4.45488916015625,7.924050331115723,6.4609503746032715,-0.018000001087784767
1750560172011494000,4.464493896484375,6.741000175476074,6.69795036315918,-0.15900000929832458
1750560172021098500,4.474098388671875,5.448000431060791,6.96405029296875,-0.11100000888109207
1750560172030702800,4.483702880859375,4.296000003814697,7.108050346374512,-0.1680000126361847
1750560172040307500,4.493307373046875,2.7139501571655273,7.402050495147705,-0.04200000315904617
1750560172049911800,4.502911865234375,1.201050043106079,7.696950435638428,0.1660500019788742
1750560172059516400,4.512516357421875,0.27195000648498535,7.7560505867004395,0.12000000476837158
1750560172069121000,4.52212109375,0.43905001878738403,7.573950290679932,-0.06300000101327896
1750560172078725400,4.531725341796875,1.0999500751495361,7.3660502433776855,-0.30000001192092896
1750560172088330000,4.541330078125,0.7579500079154968,6.838950157165527,-0.11805000901222229
1750560172097934600,4.5509345703125,-1.2480000257492065,6.2910003662109375,0.42900002002716064
1750560172107539000,4.5605390625,-4.237950325012207,5.926950454711914,-0.11295000463724136
1750560172117143600,4.5701435546875,-6.763950347900391,4.833000183105469,-1.2600001096725464
1750560172126748000,4.579747802734375,-7.210050106048584,2.7139501571655273,-2.095950126647949
1750560172136352800,4.589352783203125,-5.119050025939941,-0.6250500082969666,-2.7370500564575195
1750560172145957000,4.59895703125,-3.7039501667022705,-3.388050079345703,-2.893050193786621
1750560172155561500,4.6085615234375,0.33105000853538513,-5.854050159454346,-2.8980002403259277
1750560172165166000,4.618166015625,8.635050773620605,-6.778050422668457,-3.693000078201294
1750560172174770400,4.6277705078125,18.34095001220703,-5.032950401306152,-4.701000213623047
1750560172184375000,4.637375,27.241050720214844,-3.6060001850128174,-2.9820001125335693
1750560172193979600,4.646979736328125,33.672000885009766,-1.055999994277954,0.609000027179718
1750560172203584300,4.656584228515625,34.74705123901367,0.7770000100135803,2.6509501934051514
1750560172213188600,4.666188720703125,30.829952239990234,-0.08400000631809235,4.345950126647949
1750560172222793200,4.675793212890625,24.307950973510742,-0.20805001258850098,4.236000061035156
1750560172232397600,4.6853974609375,17.05994987487793,-0.6970500349998474,3.7669501304626465
1750560172242002200,4.695002197265625,10.572000503540039,-0.27105000615119934,2.6290500164031982
1750560172251606800,4.704606689453125,5.884050369262695,1.29705011844635,1.3099501132965088
1750560172261211400,4.71421142578125,3.8580002784729004,2.665950059890747,1.0110000371932983
1750560172270815700,4.723815673828125,4.561950206756592,3.2410502433776855,1.1860500574111938
1750560172280420400,4.73342041015625,8.355000495910645,3.4390501976013184,1.6930500268936157
1750560172290025000,4.74302490234375,12.348000526428223,3.6570000648498535,1.4419500827789307
1750560172299629300,4.75262939453125,15.046950340270996,3.3510000705718994,1.1620500087738037
1750560172309234000,4.76223388671875,15.640050888061523,2.91795015335083,1.2310500144958496
1750560172318838500,4.771838623046875,14.518051147460938,2.3430001735687256,1.6530001163482666
1750560172328443000,4.78144287109375,13.110000610351562,2.0560500621795654,2.467050075531006
1750560172338047500,4.791047607421875,11.460000991821289,2.0869500637054443,2.811000108718872
1750560172347652000,4.800652099609375,10.833000183105469,2.319000005722046,3.0700502395629883
1750560172357256700,4.810256591796875,10.354050636291504,2.9770500659942627,2.644050121307373
1750560172366861000,4.819861083984375,9.613950729370117,3.20205020904541,1.7509500980377197
1750560172376465700,4.829465576171875,9.211950302124023,3.394050121307373,0.7429500222206116
1750560172386070300,4.8390703125,8.872050285339355,3.7080001831054688,-0.38895002007484436
1750560172395674600,4.848674560546875,8.874000549316406,4.012050151824951,-1.002000093460083
1750560172405279000,4.858279052734375,8.517000198364258,4.165050029754639,-0.9510000348091125
1750560172414883600,4.867883544921875,8.050950050354004,3.7890002727508545,-0.9420000314712524
1750560172424488200,4.87748828125,7.264950275421143,3.0990002155303955,-0.8290500640869141
1750560172434092500,4.887092529296875,5.746950149536133,2.896050214767456,-0.5680500268936157
1750560172443697200,4.896697265625,3.9660000801086426,3.315000057220459,-0.031950000673532486
1750560172453301500,4.906301513671875,3.564000129699707,3.9970502853393555,0.4720500111579895
1750560172462906000,4.915906005859375,5.5410003662109375,4.4569501876831055,0.48900002241134644
1750560172472510700,4.9255107421875,9.20895004272461,4.756050109863281,0.3739500045776367
1750560172482115300,4.935115234375,11.974950790405273,4.735050201416016,-0.5400000214576721
1750560172491719700,4.9447197265625,11.539050102233887,4.629000186920166,-1.4110500812530518
1750560172501324300,4.95432421875,9.049050331115723,4.52400016784668,-1.9069501161575317
1750560172510929000,4.963928955078125,5.652000427246094,4.1579999923706055,-0.7840500473976135
1750560172520533500,4.973533447265625,3.6160502433776855,4.723050117492676,0.9490500688552856
1750560172530137900,4.983137939453125,3.1879501342773438,5.500950336456299,1.9690500497817993
1750560172539742500,4.992742431640625,3.892050266265869,5.554050445556641,1.9519500732421875
1750560172549347000,5.00234716796875,5.991000175476074,5.613000392913818,1.2049500942230225
1750560172558951400,5.011951416015625,7.861050605773926,5.986950397491455,0.13199999928474426
1750560172568556000,5.02155615234375,8.605950355529785,5.788050174713135,-0.9799500703811646
1750560172578160400,5.031160400390625,8.166000366210938,5.7430500984191895,-1.665000081062317
1750560172587765000,5.040764892578125,7.158000469207764,5.704050064086914,-1.6390501260757446
1750560172597369600,5.05036962890625,5.902950286865234,5.689950466156006,-0.5059500336647034
1750560172606974200,5.05997412109375,5.316000461578369,5.965050220489502,0.4440000355243683
1750560172616578600,5.06957861328125,5.968050479888916,6.043950080871582,0.736050009727478
1750560172626183200,5.07918310546875,7.327950477600098,5.958000183105469,0.3930000066757202
1750560172635787800,5.088787841796875,8.781000137329102,5.9509501457214355,-0.04905000329017639
1750560172645392100,5.09839208984375,9.175950050354004,5.9730000495910645,-0.31005001068115234
1750560172654996700,5.107996826171875,8.367000579833984,6.1120500564575195,-0.4129500091075897
1750560172664601300,5.117601318359375,7.0570502281188965,6.205050468444824,-0.06795000284910202
1750560172674205700,5.127205810546875,5.986950397491455,6.205050468444824,0.6400500535964966
1750560172683810300,5.136810302734375,5.7109503746032715,6.127950191497803,1.1640000343322754
1750560172693415000,5.146414794921875,6.532950401306152,6.064050197601318,0.9300000667572021
1750560172703019300,5.156019287109375,7.702950477600098,6.046950340270996,0.43605002760887146
1750560172712623900,5.165623779296875,8.733000755310059,6.040050506591797,-0.07500000298023224
1750560172722228500,5.175228515625,9.004050254821777,6.03000020980835,-0.25005000829696655
1750560172731833000,5.1848330078125,8.64900016784668,5.9730000495910645,-0.06495000422000885
1750560172741437400,5.1944375,8.163000106811523,6.0319504737854,0.2350500077009201
1750560172751042000,5.2040419921875,7.881000518798828,6.006000518798828,0.45795002579689026
1750560172760646700,5.213646728515625,7.699050426483154,5.958000183105469,0.8530500531196594
1750560172770251000,5.2232509765625,7.753950595855713,5.949000358581543,1.1590501070022583
1750560172779855400,5.23285546875,7.945050239562988,5.94195032119751,1.1880000829696655
1750560172789460000,5.2424599609375,8.019000053405762,5.9320502281188965,0.8719500303268433
1750560172799064300,5.252064208984375,7.974000453948975,6.040050506591797,0.3139500021934509
1750560172808669000,5.2616689453125,7.762950420379639,6.1020002365112305,0.043950002640485764
1750560172818273500,5.2712734375,7.531050205230713,6.078000068664551,-0.043950002640485764
1750560172827878000,5.2808779296875,7.3750505447387695,6.0420002937316895,0.031950000673532486
1750560172837482500,5.290482421875,7.440000534057617,6.034950256347656,0.1969500035047531
1750560172847087000,5.300087158203125,7.621950149536133,5.980050086975098,0.23295001685619354
1750560172856691700,5.309691650390625,7.926000595092773,5.958000183105469,0.25905001163482666
1750560172866296000,5.319296142578125,8.271000862121582,5.962950229644775,0.12495000660419464
1750560172875900700,5.328900634765625,8.245050430297852,5.841000080108643,0.12495000660419464
1750560172885505300,5.33850537109375,7.975950241088867,5.833950042724609,0.17295001447200775
1750560172895109600,5.348109619140625,7.869000434875488,5.817000389099121,0.0580500029027462
1750560172904714200,5.35771435546875,7.882950305938721,5.817000389099121,-0.13305000960826874
1750560172914318800,5.36731884765625,7.978950500488281,5.809950351715088,-0.25005000829696655
1750560172923923500,5.37692333984375,8.256000518798828,5.773950099945068,-0.28095000982284546
1750560172933527800,5.38652783203125,8.671050071716309,5.761950492858887,-0.24495001137256622
1750560172943132200,5.396132080078125,8.721000671386719,5.713950157165527,-0.13005000352859497
1750560172952736800,5.40573681640625,8.29995059967041,5.7210001945495605,0.04800000041723251
1750560172962341400,5.41534130859375,7.629000186920166,5.731050491333008,0.2160000056028366
1750560172971946000,5.424946044921875,7.35105037689209,5.740050315856934,0.2950500249862671
1750560172981550300,5.43455029296875,7.500000476837158,5.794950485229492,0.36705002188682556
1750560172991154700,5.44415478515625,7.885050296783447,5.8030500411987305,0.31200000643730164
1750560173000759300,5.45375927734375,8.197050094604492,5.83905029296875,0.17805001139640808
1750560173010364000,5.463364013671875,8.221050262451172,5.881950378417969,0.031950000673532486
1750560173019968500,5.472968505859375,8.006999969482422,5.853000164031982,-0.06795000284910202
1750560173029572900,5.48257275390625,7.828050136566162,5.865000247955322,-0.09405000507831573
1750560173039177500,5.492177490234375,7.672050476074219,5.886000156402588,-0.018000001087784767
1750560173048782000,5.501781982421875,7.663050174713135,5.85105037689209,0.036000002175569534
1750560173058386400,5.511386474609375,7.738950252532959,5.8120503425598145,0.05100000277161598
1750560173067991000,5.520990966796875,7.909050464630127,5.8030500411987305,-0.003000000026077032
1750560173077595600,5.530595703125,7.998000144958496,5.854950428009033,0.06495000422000885
1750560173087200300,5.5402001953125,7.960050582885742,5.85105037689209,0.08895000070333481
1750560173096804600,5.5498046875,7.998000144958496,5.817000389099121,0.022050000727176666
1750560173106409200,5.5594091796875,7.866000175476074,5.877000331878662,-0.05400000140070915
1750560173116013800,5.569013916015625,7.753950595855713,5.866950511932373,-0.04605000093579292
1750560173125618400,5.578618408203125,7.789950370788574,5.90595006942749,-0.13005000352859497
1750560173135222800,5.588222900390625,7.804050445556641,5.898000240325928,-0.11100000888109207
1750560173144827400,5.597827392578125,7.8949503898620605,5.866950511932373,-0.015000000596046448
1750560173154431700,5.607431640625,7.672050476074219,5.874000072479248,0.07695000618696213
1750560173164036400,5.617036376953125,7.42995023727417,5.884050369262695,0.25200000405311584
1750560173173641000,5.626640869140625,7.498050212860107,5.908050060272217,0.36900001764297485
1750560173183245300,5.636245361328125,7.873050212860107,5.869950294494629,0.3930000066757202
1750560173192850000,5.645849853515625,8.422050476074219,5.886000156402588,0.13695000112056732
1750560173202454500,5.65545458984375,8.63700008392334,5.869950294494629,-0.018000001087784767
1750560173212059000,5.665058837890625,8.403000831604004,5.862000465393066,-0.11595000326633453
1750560173221663500,5.67466357421875,7.813950538635254,5.874000072479248,-0.034050002694129944
1750560173231268000,5.68426806640625,7.14300012588501,5.845950126647949,0.15600000321865082
1750560173240872700,5.693872802734375,7.006950378417969,5.922000408172607,0.22095000743865967
1750560173250477300,5.703477294921875,7.3470001220703125,5.866950511932373,0.15900000929832458
1750560173260081700,5.71308154296875,7.870950222015381,5.833950042724609,0.11805000901222229
1750560173269686300,5.722686279296875,8.271000862121582,5.836050510406494,0.06795000284910202
1750560173279291000,5.732290771484375,8.36205005645752,5.785950183868408,0.07005000114440918
1750560173288895200,5.741895263671875,8.197050094604492,5.793000221252441,0.0990000069141388
1750560173298499800,5.751499755859375,7.873050212860107,5.853000164031982,-0.013050000183284283
1750560173308104200,5.761104248046875,7.660050392150879,5.913000106811523,-0.2070000171661377
1750560173317708800,5.770708740234375,7.629000186920166,5.920050144195557,-0.2569500207901001
1750560173327313200,5.780313232421875,7.639050483703613,5.841000080108643,-0.16095000505447388
1750560173336917800,5.789917724609375,7.657950401306152,5.884050369262695,0.013050000183284283
1750560173346522400,5.7995224609375,7.699050426483154,5.869950294494629,0.1489500105381012
1750560173356127000,5.809126953125,7.809000492095947,5.886000156402588,0.19005000591278076
1750560173365731300,5.8187314453125,7.9360504150390625,5.889000415802002,0.17295001447200775
1750560173375335700,5.828335693359375,8.006999969482422,5.829000473022461,0.05295000225305557
1750560173384940300,5.837940185546875,7.846950531005859,5.860050201416016,0.025050001218914986
1750560173394545000,5.847544921875,7.768050193786621,5.878950119018555,0.11295000463724136
1750560173404149500,5.8571494140625,7.885050296783447,5.896050453186035,0.20595000684261322
1750560173413753900,5.86675390625,8.10105037689209,5.8909502029418945,0.1080000028014183
1750560173423358500,5.8763583984375,8.314050674438477,5.893950462341309,-0.10905000567436218
1750560173432963000,5.885963134765625,8.32395076751709,5.865000247955322,-0.22305001318454742
1750560173442567400,5.8955673828125,8.082000732421875,5.781000137329102,-0.05400000140070915
1750560173452172000,5.905172119140625,7.6650004386901855,5.74500036239624,0.13005000352859497
1750560173461776600,5.914776611328125,7.303950309753418,5.736000061035156,0.36000001430511475
1750560173471381000,5.924381103515625,7.216950416564941,5.793000221252441,0.4440000355243683
1750560173480985900,5.93398583984375,7.528950214385986,5.85105037689209,0.21105000376701355
1750560173490590200,5.943590087890625,8.067000389099121,5.889000415802002,-0.027000000700354576
1750560173500194600,5.953194580078125,8.593950271606445,5.8909502029418945,-0.26205000281333923
1750560173509799200,5.962799072265625,8.745000839233398,5.860050201416016,-0.3169500231742859
1750560173519403800,5.97240380859375,8.43600082397461,5.821950435638428,-0.2880000174045563
1750560173529008400,5.98200830078125,7.938000202178955,5.806950092315674,-0.12105000764131546
1750560173538613000,5.991613037109375,7.512000560760498,5.833950042724609,0.06795000284910202
1750560173548217300,6.00121728515625,7.420950412750244,5.8120503425598145,0.09600000083446503
1750560173557822000,6.010822021484375,7.53795051574707,5.8720502853393555,0.05100000277161598
1750560173567426600,6.020426513671875,7.840050220489502,5.914950370788574,0.10605000704526901
1750560173577031000,6.030031005859375,8.017050743103027,5.889000415802002,0.0990000069141388
1750560173586635300,6.03963525390625,7.897050380706787,5.9320502281188965,0.13695000112056732
1750560173596240000,6.049239990234375,7.621950149536133,5.9509501457214355,0.22095000743865967
1750560173605844500,6.058844482421875,7.407000541687012,5.926950454711914,0.19905000925064087
1750560173615449000,6.068448974609375,7.557000160217285,5.958000183105469,0.08895000070333481
1750560173625053400,6.078053466796875,7.987950325012207,5.920050144195557,-0.07500000298023224
1750560173634658000,6.087657958984375,8.407050132751465,5.896050453186035,-0.13305000960826874
1750560173644262700,6.0972626953125,8.580000877380371,5.829000473022461,-0.2350500077009201
1750560173653867000,6.106866943359375,8.368950843811035,5.848050117492676,-0.08700000494718552
1750560173663471600,6.1164716796875,7.902000427246094,5.85105037689209,0.07005000114440918
1750560173673076000,6.126075927734375,7.488000392913818,5.800050258636475,0.14205001294612885
1750560173682680600,6.1356806640625,7.284000396728516,5.854950428009033,0.15900000929832458
1750560173692285200,6.14528515625,7.399050235748291,5.841000080108643,0.07695000618696213
1750560173701889500,6.1548896484375,7.701000213623047,5.761950492858887,-0.039000000804662704
1750560173711494100,6.164494140625,7.926000595092773,5.800050258636475,-0.2670000195503235
1750560173721099000,6.17409912109375,7.981050491333008,5.800050258636475,-0.3720000088214874
1750560173730703400,6.183703369140625,8.038949966430664,5.800050258636475,-0.3769500255584717
1750560173740307700,6.1933076171875,7.990950584411621,5.809950351715088,-0.1969500035047531
1750560173749912600,6.20291259765625,7.927950382232666,5.752050399780273,0.039000000804662704
1750560173759517000,6.212516845703125,8.010000228881836,5.764050483703613,0.06795000284910202
1750560173769121500,6.22212158203125,8.046000480651855,5.767050266265869,0.027000000700354576
1750560173778726000,6.231725830078125,8.082000732421875,5.782950401306152,-0.04905000329017639
1750560173788330800,6.241330810546875,8.059950828552246,5.82705020904541,-0.0580500029027462
1750560173797934800,6.250934814453125,8.105999946594238,5.8909502029418945,-0.043950002640485764
1750560173807539500,6.26053955078125,8.082000732421875,5.937000274658203,-0.05400000140070915
1750560173817144000,6.27014404296875,8.10300064086914,5.94195032119751,-0.17295001447200775
1750560173826748400,6.27974853515625,8.098050117492676,5.9730000495910645,-0.36000001430511475
1750560173836353000,6.28935302734375,8.023950576782227,6.006000518798828,-0.40095001459121704
1750560173845958000,6.2989580078125,7.90500020980835,5.944050312042236,-0.17595000565052032
1750560173855562200,6.308562255859375,7.693950176239014,5.869950294494629,0.18000000715255737
1750560173865166600,6.31816650390625,7.689000129699707,5.908050060272217,0.33105000853538513
1750560173874771200,6.327771240234375,7.842000484466553,5.9509501457214355,0.21105000376701355
1750560173884375800,6.337375732421875,8.119950294494629,5.956050395965576,0.1870500147342682
1750560173893980400,6.34698046875,8.206049919128418,5.956050395965576,0.11805000901222229
1750560173913189400,6.366189453125,8.69895076751709,5.9509501457214355,-0.29295000433921814
1750560173922794000,6.3757939453125,8.956050872802734,5.866950511932373,-0.31005001068115234
1750560173932398300,6.3853984375,8.743050575256348,5.845950126647949,0.06495000422000885
1750560173942003000,6.3950029296875,8.332950592041016,5.8720502853393555,0.5560500025749207
1750560173951607600,6.404607666015625,7.881000518798828,5.986950397491455,0.6810000538825989
1750560173961212200,6.414212158203125,7.651050567626953,6.0420002937316895,0.5539500117301941
1750560173970816500,6.42381640625,7.414050579071045,6.109050273895264,0.31200000643730164
1750560173980421000,6.433421142578125,7.270050525665283,6.166950225830078,0.0010500000789761543
1750560173990025700,6.443025634765625,6.909000396728516,6.217050075531006,-0.27105000615119934
1750560173999630000,6.452630126953125,6.208950519561768,6.217050075531006,-0.42195001244544983
1750560174009234700,6.462234619140625,5.460000038146973,6.186000347137451,-0.2689500153064728
1750560174018839000,6.471839111328125,4.569000244140625,6.166950225830078,-0.037050001323223114
1750560174028443400,6.481443359375,4.0759501457214355,6.159000396728516,0.04605000093579292
1750560174038048000,6.491048095703125,3.7360501289367676,6.145050525665283,0.031950000673532486
1750560174047652600,6.500652587890625,2.7880501747131348,5.9320502281188965,0.09195000678300858
1750560174057257000,6.510257080078125,1.2769500017166138,5.6449503898620605,0.6250500082969666
1750560174066861600,6.519861572265625,-0.5650500059127808,5.379000186920166,1.0879501104354858
1750560174076466200,6.529466064453125,-1.6360501050949097,4.692000389099121,0.8190000653266907
1750560174086070500,6.539070556640625,-1.9900500774383545,3.6120002269744873,-0.44895002245903015
1750560174095675100,6.548675048828125,-1.3120501041412354,2.1060001850128174,-1.5690001249313354
1750560174105279700,6.55827978515625,0.1570500135421753,0.4900500178337097,-1.9519500732421875
1750560174114884400,6.56788427734375,1.1069999933242798,-0.7900500297546387,-1.1209501028060913
1750560174124489000,6.577489013671875,3.037050247192383,-2.3800501823425293,0.0990000069141388
1750560174134093300,6.58709326171875,7.021050453186035,-3.2560501098632812,-0.013050000183284283
1750560174143698000,6.596697998046875,14.055000305175781,-3.328050136566162,-1.7080501317977905
1750560174153302500,6.606302490234375,22.275001525878906,-1.5559500455856323,-3.6640501022338867
1750560174162907000,6.615906982421875,28.432950973510742,-0.2370000183582306,-2.9290502071380615
1750560174172511500,6.625511474609375,30.48000144958496,0.38895002007484436,-1.9470001459121704
1750560174182115800,6.63511572265625,27.54705047607422,0.5179499983787537,-1.8400501012802124
1750560174191720400,6.644720458984375,22.07400131225586,0.15900000929832458,-1.1380500793457031
1750560174201325000,6.654324951171875,17.07900047302246,-0.6510000228881836,-0.22095000743865967
1750560174210929700,6.6639296875,12.223950386047363,-0.742050051689148,-0.3139500021934509
1750560174220534000,6.673533935546875,7.555050373077393,-0.20595000684261322,0.019950000569224358
1750560174230138400,6.683138427734375,4.219950199127197,0.7459500432014465,0.7380000352859497
1750560174239743200,6.6927431640625,2.9770500659942627,1.5859500169754028,1.3440001010894775
1750560174249347800,6.702347900390625,5.187000274658203,1.8979500532150269,1.7200500965118408
1750560174258952200,6.7119521484375,9.97605037689209,2.089050054550171,1.7440500259399414
1750560174268556500,6.721556640625,15.616950988769531,2.386050224304199,1.4869500398635864
1750560174278161200,6.7311611328125,19.31100082397461,2.6610000133514404,1.2139500379562378
1750560174287765800,6.740765869140625,19.83795166015625,2.4340500831604004,1.5810000896453857
1750560174297370400,6.750370361328125,17.677949905395508,2.4340500831604004,1.7080501317977905
1750560174306974700,6.759974609375,14.473950386047363,2.707050085067749,1.072950005531311
1750560174316579300,6.769579345703125,11.805000305175781,2.8600502014160156,0.6780000329017639
1750560174326184000,6.779183837890625,9.994950294494629,2.886000156402588,0.3240000009536743
1750560174335788500,6.78878857421875,9.07800006866455,3.0229501724243164,0.0990000069141388
1750560174345393000,6.798392822265625,8.56095027923584,3.375000238418579,0.22800001502037048
1750560174354997500,6.80799755859375,9.217050552368164,3.463050127029419,1.0420500040054321
1750560174364601900,6.817601806640625,10.219950675964355,3.6600000858306885,0.9439500570297241
1750560174374206500,6.82720654296875,11.553000450134277,3.5299501419067383,0.18300001323223114
1750560174383810800,6.836810791015625,10.930950164794922,3.20205020904541,-0.09195000678300858
1750560174393415400,6.84641552734375,6.973050117492676,2.5440001487731934,0.6330000162124634
1750560174403020000,6.85602001953125,3.3000001907348633,2.2829999923706055,0.9940500259399414
1750560174412624400,6.865624267578125,1.300950050354004,2.956050157546997,0.5440500378608704
1750560174422229000,6.87522900390625,1.3609501123428345,3.885000228881836,-0.13305000960826874
1750560174431833600,6.88483349609375,2.086050033569336,4.447050094604492,0.1489500105381012
1750560174441438200,6.894438232421875,2.746950149536133,4.5859503746032715,0.3430500030517578
1750560174460647200,6.913647216796875,5.865000247955322,4.990950107574463,-0.3859500288963318
1750560174470251800,6.923251708984375,7.762950420379639,4.869000434875488,-1.0470000505447388
1750560174479856000,6.932856201171875,8.395050048828125,4.930950164794922,-1.4659500122070312
1750560174489460700,6.942460693359375,7.780050277709961,4.77495002746582,-1.2340500354766846
1750560174499065300,6.9520654296875,6.778950214385986,4.809000015258789,-0.5250000357627869
1750560174508669700,6.961669677734375,6.12600040435791,4.918950080871582,-0.17100000381469727
1750560174518274300,6.9712744140625,6.027000427246094,5.032050132751465,-0.17805001139640808
1750560174527879000,6.98087890625,6.60705041885376,5.068050384521484,-0.4459500312805176
1750560174537483500,6.9904833984375,8.235000610351562,5.020050048828125,-0.7720500230789185
1750560174547088000,7.000087890625,10.023000717163086,5.151000022888184,-0.9199500679969788
1750560174556692500,7.0096923828125,10.926000595092773,5.017050266265869,-0.8719500303268433
1750560174566297000,7.019297119140625,10.2610502243042,5.017050266265869,-0.76500004529953
1750560174575901700,7.028901611328125,8.733000755310059,5.154000282287598,-0.5920500159263611
1750560174585506000,7.038506103515625,7.4760003089904785,5.170950412750244,-0.3360000252723694
1750560174595110700,7.048110595703125,6.958950519561768,5.175000190734863,-0.1279500126838684
1750560174604715000,7.057715087890625,7.387050151824951,5.308950424194336,-0.19995000958442688
1750560174614319600,7.067319580078125,8.292000770568848,5.353050231933594,-0.3379500210285187
1750560174623924000,7.076924072265625,8.866950035095215,5.367000102996826,-0.25200000405311584
1750560174633528600,7.086528564453125,8.745000839233398,5.500950336456299,-0.19500000774860382
1750560174643133000,7.0961328125,8.331000328063965,5.566050052642822,-0.23805001378059387
1750560174652737500,7.105737548828125,7.773000240325928,5.625000476837158,-0.22305001318454742
1750560174662342100,7.115342041015625,7.501950263977051,5.604000091552734,-0.031950000673532486
1750560174671946500,7.124946533203125,7.7989501953125,5.613000392913818,0.04800000041723251
1750560174681551000,7.134551025390625,8.292000770568848,5.623050212860107,-0.09195000678300858
1750560174691155700,7.14415576171875,8.782950401306152,5.575050354003906,-0.2160000056028366
1750560174700760300,7.15376025390625,8.890950202941895,5.551050186157227,-0.29295000433921814
1750560174710365000,7.163364990234375,8.616000175476074,5.557950496673584,-0.15405000746250153
1750560174719969300,7.17296923828125,8.338050842285156,5.5489501953125,0.13005000352859497
1750560174729574000,7.182573974609375,8.173049926757812,5.515050411224365,0.36000001430511475
1750560174739178500,7.192178466796875,8.05305004119873,5.452950477600098,0.5149500370025635
1750560174748782800,7.201782958984375,8.230050086975098,5.451000213623047,0.2950500249862671
1750560174758387500,7.211387451171875,8.533950805664062,5.503050327301025,0.07005000114440918
1750560174767992000,7.220991943359375,8.862000465393066,5.496000289916992,-0.010050000622868538
1750560174777596700,7.2305966796875,8.826000213623047,5.44605016708374,0.043950002640485764
1750560174787201300,7.240201171875,8.541000366210938,5.428950309753418,0.08895000070333481
1750560174796805600,7.2498056640625,8.151000022888184,5.439000129699707,-0.0010500000789761543
1750560174806410000,7.259409912109375,7.701000213623047,5.484000205993652,-0.010050000622868538
1750560174816014600,7.2690146484375,7.552950382232666,5.484000205993652,0.039000000804662704
1750560174825619000,7.278618896484375,7.666950225830078,5.52495002746582,0.04800000041723251
1750560174835223600,7.2882236328125,8.082000732421875,5.436000347137451,-0.034050002694129944
1750560174844828000,7.297827880859375,8.40000057220459,5.427000045776367,-0.1489500105381012
1750560174854432500,7.3074326171875,8.635050773620605,5.407950401306152,-0.13500000536441803
1750560174864037000,7.317037109375,8.472000122070312,5.487000465393066,-0.0799500048160553
1750560174873641700,7.326641845703125,8.200950622558594,5.476950168609619,-0.018000001087784767
1750560174883246000,7.33624609375,8.094000816345215,5.52495002746582,-0.09195000678300858
1750560174892850700,7.3458505859375,8.12505054473877,5.518050193786621,-0.17805001139640808
1750560174902455300,7.355455322265625,8.182050704956055,5.4720001220703125,-0.06795000284910202
1750560174912059600,7.3650595703125,8.233050346374512,5.479050159454346,-0.08700000494718552
1750560174921664300,7.374664306640625,8.143950462341309,5.398050308227539,-0.07500000298023224
1750560174931268900,7.384268798828125,8.002950668334961,5.410050392150879,-0.022050000727176666
1750560174940873500,7.39387353515625,7.869000434875488,5.386050224304199,0.07200000435113907
1750560174950478000,7.40347802734375,8.07194995880127,5.436000347137451,0.031950000673532486
1750560174960082400,7.41308251953125,8.443050384521484,5.464950084686279,-0.022050000727176666
1750560174969686800,7.422686767578125,8.769000053405762,5.431950092315674,-0.12105000764131546
1750560174979291600,7.432291748046875,8.995950698852539,5.448000431060791,-0.2350500077009201
1750560174988896000,7.44189599609375,8.719050407409668,5.4910502433776855,-0.17595000565052032
1750560174998500600,7.45150048828125,8.13705062866211,5.407950401306152,-0.039000000804662704
1750560175008105200,7.461105224609375,7.641000270843506,5.451000213623047,0.20400001108646393
1750560175017709600,7.47070947265625,7.4160003662109375,5.464950084686279,0.31200000643730164
1750560175027314200,7.480314208984375,7.483050346374512,5.487000465393066,0.2639999985694885
1750560175036918800,7.489918701171875,7.758000373840332,5.500950336456299,0.09405000507831573
1750560175046523100,7.499523193359375,8.142000198364258,5.500950336456299,-0.1660500019788742
1750560175056127700,7.509127685546875,8.447999954223633,5.427000045776367,-0.4050000309944153
1750560175065732400,7.518732421875,8.479050636291504,5.374050140380859,-0.583050012588501
1750560175075336700,7.528336669921875,8.356950759887695,5.404950141906738,-0.583050012588501
1750560175084941300,7.53794140625,8.161050796508789,5.436000347137451,-0.31005001068115234
1750560175094546000,7.5475458984375,8.019000053405762,5.37600040435791,0.05100000277161598
1750560175104150300,7.557150390625,8.005050659179688,5.400000095367432,0.1969500035047531
1750560175113755000,7.5667548828125,8.010000228881836,5.407950401306152,0.13005000352859497
1750560175123359500,7.576359375,8.031000137329102,5.422050476074219,0.019950000569224358
1750560175132964000,7.585964111328125,8.07194995880127,5.464950084686279,-0.0970500037074089
1750560175142568400,7.595568359375,8.022000312805176,5.503050327301025,-0.20400001108646393
1750560175152173000,7.605173095703125,8.10300064086914,5.518050193786621,-0.25905001163482666
1750560175161777700,7.614777587890625,8.11500072479248,5.542050361633301,-0.24495001137256622
1750560175171382000,7.624382080078125,8.170050621032715,5.53695011138916,-0.3049500286579132
1750560175180986400,7.633986328125,8.242050170898438,5.592000484466553,-0.31005001068115234
1750560175190591200,7.64359130859375,8.344950675964355,5.599050045013428,-0.30000001192092896
1750560175200195600,7.653195556640625,8.239950180053711,5.476950168609619,-0.18300001323223114
1750560175209800000,7.662800048828125,7.990950584411621,5.484000205993652,-0.039000000804662704
1750560175219404500,7.672404541015625,7.641000270843506,5.496000289916992,0.07695000618696213
1750560175229009200,7.682009033203125,7.444950580596924,5.52495002746582,0.24000000953674316
1750560175238613800,7.69161376953125,7.549950122833252,5.569950103759766,0.3430500030517578
1750560175248218000,7.701218017578125,7.804050445556641,5.575050354003906,0.364950031042099
1750560175257822700,7.71082275390625,8.143950462341309,5.551050186157227,0.17100000381469727
1750560175267427300,7.72042724609375,8.447999954223633,5.57295036315918,-0.19200000166893005
1750560175277031700,7.73003173828125,8.551050186157227,5.578050136566162,-0.47505003213882446
1750560175286636300,7.73963623046875,8.517000198364258,5.557950496673584,-0.5899500250816345
1750560175296241000,7.749240966796875,8.36205005645752,5.569950103759766,-0.4630500078201294
1750560175305845500,7.758845458984375,8.094000816345215,5.554050445556641,-0.20205001533031464
1750560175315449900,7.768449951171875,7.809000492095947,5.602050304412842,-0.034050002694129944
1750560175325054500,7.778054443359375,7.636050224304199,5.6610002517700195,0.10395000129938126
1750560175334658800,7.787658935546875,7.6459503173828125,5.680950164794922,0.18000000715255737
1750560175344263400,7.797263427734375,7.6459503173828125,5.688000202178955,0.15105000138282776
1750560175353868000,7.806867919921875,7.73205041885376,5.725950241088867,-0.10395000129938126
1750560175363472600,7.81647265625,7.8259501457214355,5.7210001945495605,-0.283050000667572
1750560175373077000,7.826076904296875,8.006999969482422,5.659050464630127,-0.2689500153064728
1750560175382681600,7.835681640625,8.266050338745117,5.629950046539307,-0.15900000929832458
1750560175392286200,7.8452861328125,8.467050552368164,5.604000091552734,0.003000000026077032
1750560175401890800,7.854890869140625,8.508000373840332,5.592000484466553,0.08400000631809235
1750560175411495200,7.8644951171875,8.446050643920898,5.556000232696533,0.09405000507831573
1750560175421099800,7.874099853515625,8.187000274658203,5.503050327301025,0.025050001218914986
1750560175430704400,7.883704345703125,7.797000408172607,5.487000465393066,0.05295000225305557
1750560175440309000,7.89330908203125,7.495050430297852,5.533950328826904,-0.10905000567436218
1750560175449913300,7.902913330078125,7.402050495147705,5.544000148773193,-0.2950500249862671
1750560175459518000,7.91251806640625,7.603050231933594,5.527050495147705,-0.34800001978874207
1750560175469122600,7.92212255859375,8.055000305175781,5.523000240325928,-0.31200000643730164
1750560175478727000,7.931726806640625,8.51294994354248,5.496000289916992,-0.22305001318454742
1750560175488331500,7.94133154296875,8.68005084991455,5.392950057983398,-0.11100000888109207
1750560175497936100,7.95093603515625,8.476950645446777,5.427000045776367,-0.06495000422000885
1750560175507540500,7.96054052734375,8.200950622558594,5.44605016708374,-0.013050000183284283
1750560175517145000,7.97014501953125,7.8949503898620605,5.476950168609619,0.010050000622868538
1750560175526749700,7.979749755859375,7.7749505043029785,5.568000316619873,-0.22605000436306
1750560175536354000,7.98935400390625,7.684050559997559,5.632950305938721,-0.40995001792907715
1750560175545958700,7.998958740234375,7.621950149536133,5.664000034332275,-0.4729500114917755
1750560175555563000,8.00856298828125,7.651050567626953,5.673000335693359,-0.37005001306533813
1750560175565167600,8.018167724609375,7.782000541687012,5.6449503898620605,-0.2070000171661377
1750560175574772200,8.027772216796874,8.185050010681152,5.620950222015381,-0.13695000112056732
1750560175584376800,8.037376953125,8.617950439453125,5.628000259399414,-0.08700000494718552
1750560175593981200,8.046981201171874,8.842950820922852,5.629950046539307,-0.05400000140070915
1750560175603585500,8.05658544921875,8.781000137329102,5.611050128936768,-0.04200000315904617
1750560175613190100,8.066190185546875,8.403000831604004,5.632950305938721,-0.018000001087784767
1750560175622794800,8.075794677734375,7.927950382232666,5.640000343322754,0.034050002694129944
1750560175632399400,8.0853994140625,7.567050457000732,5.632950305938721,0.09600000083446503
1750560175642003700,8.095003662109375,7.603050231933594,5.668950080871582,0.016950000077486038
1750560175651608300,8.1046083984375,7.981050491333008,5.64900016784668,-0.11595000326633453
1750560175661213000,8.114212890625,8.452950477600098,5.653950214385986,-0.1969500035047531
1750560175670817500,8.123817626953125,8.701950073242188,5.6449503898620605,-0.2689500153064728
1750560175680422000,8.133421875,8.604000091552734,5.592000484466553,-0.2569500207901001
1750560175690026500,8.143026611328125,8.35004997253418,5.569950103759766,-0.25005000829696655
1750560175699630800,8.152630859375,8.130000114440918,5.551050186157227,-0.15600000321865082
1750560175709235700,8.162235595703125,8.019000053405762,5.544000148773193,0.010050000622868538
1750560175718840000,8.171840087890626,8.119950294494629,5.523000240325928,0.19005000591278076
1750560175728444700,8.181444580078125,8.223000526428223,5.512950420379639,0.17505000531673431
1750560175738049300,8.19104931640625,8.200950622558594,5.551050186157227,-0.10095000267028809
1750560175747653600,8.200653564453125,8.151000022888184,5.593950271606445,-0.42705002427101135
1750560175757258200,8.21025830078125,8.074950218200684,5.604000091552734,-0.5560500025749207
1750560175766862600,8.219862548828125,7.951950550079346,5.569950103759766,-0.5110500454902649
1750560175776467200,8.22946728515625,7.924050331115723,5.590050220489502,-0.44895002245903015
1750560175786071800,8.23907177734375,7.8259501457214355,5.596950054168701,-0.29295000433921814
1750560175795676400,8.248676513671874,7.792050361633301,5.57295036315918,-0.04905000329017639
1750560175805280800,8.25828076171875,7.8160505294799805,5.539050102233887,0.25005000829696655
1750560175814885400,8.267885498046875,8.019000053405762,5.56095027923584,0.1870500147342682
1750560175824490000,8.277489990234375,8.218050003051758,5.599050045013428,-0.08700000494718552
1750560175834094300,8.28709423828125,8.284950256347656,5.605950355529785,-0.286050021648407
1750560175843699000,8.296698974609376,8.223000526428223,5.635050296783447,-0.31905001401901245
1750560175853303600,8.306303466796875,8.187000274658203,5.599050045013428,-0.27900001406669617
1750560175862908200,8.315908203125,8.338050842285156,5.635050296783447,-0.32895001769065857
1750560175872512800,8.3255126953125,8.491050720214844,5.578050136566162,-0.25005000829696655
1750560175882117000,8.3351171875,8.446050643920898,5.496000289916992,0.015000000596046448
1750560175891721700,8.3447216796875,8.284950256347656,5.475000381469727,0.12495000660419464
1750560175901326300,8.354326416015626,8.038949966430664,5.443050384521484,0.1489500105381012
1750560175910930700,8.3639306640625,7.978950500488281,5.527050495147705,0.11295000463724136
1750560175920535300,8.373535400390624,8.248950004577637,5.57295036315918,-0.039000000804662704
1750560175930139600,8.3831396484375,8.625,5.635050296783447,-0.15900000929832458
1750560175939744300,8.392744140625,9.055950164794922,5.707050323486328,-0.23805001378059387
1750560175949348900,8.402348876953125,9.147000312805176,5.676000118255615,-0.15600000321865082
1750560175958953200,8.411953125,8.64900016784668,5.731050491333008,-0.043950002640485764
1750560175968557600,8.4215576171875,7.656000137329102,5.82705020904541,-0.06795000284910202
1750560175978162400,8.431162353515624,6.433950424194336,5.913000106811523,-0.15195000171661377
1750560175987766800,8.440766845703125,5.47005033493042,5.922000408172607,-0.17805001139640808
1750560175997371400,8.450371337890624,4.6080002784729,5.925000190734863,0.028950002044439316
1750560176006975700,8.459975830078125,3.4009501934051514,5.806950092315674,0.30195000767707825
1750560176016580400,8.469580322265625,1.7850000858306885,5.671050071716309,0.5080500245094299
1750560176026185000,8.47918505859375,1.3900500535964966,5.683050155639648,0.3859500288963318
1750560176035789300,8.488789306640625,1.5169501304626465,5.527050495147705,0.17505000531673431
1750560176045394000,8.498393798828126,0.778950035572052,4.846950054168701,0.4030500054359436
1750560176054998500,8.50799853515625,-1.284000039100647,3.8680500984191895,0.6349500417709351
1750560176064603000,8.517602783203126,-2.943000078201294,2.2330501079559326,1.1190000772476196
1750560176074207500,8.52720751953125,-2.932950258255005,0.5400000214576721,0.13695000112056732
1750560176083812000,8.53681201171875,-0.6420000195503235,-0.7260000109672546,-1.3030500411987305
1750560176093416700,8.546416748046875,2.776050090789795,-2.104950189590454,-1.915950059890747
1750560176103021000,8.55602099609375,7.050000190734863,-2.9260501861572266,-2.5699501037597656
1750560176112625700,8.565625732421875,11.350050926208496,-2.871000051498413,-2.4720001220703125
1750560176122230300,8.575230224609374,14.755050659179688,-2.098050117492676,-1.4800500869750977
1750560176131834600,8.584834716796875,18.3960018157959,-1.3819500207901,-0.7099500298500061
1750560176141439200,8.594439208984374,22.878000259399414,-0.1770000010728836,-0.6570000052452087
1750560176151043800,8.6040439453125,27.094951629638672,0.8850000500679016,-1.8370500802993774
1750560176160648400,8.6136484375,28.04505157470703,0.44895002245903015,-1.324950098991394
1750560176170252800,8.623252685546875,24.78900146484375,-0.09795000404119492,-0.16395001113414764
1750560176179857400,8.632857421875,18.885000228881836,-0.12000000476837158,0.6540000438690186
1750560176189462000,8.6424619140625,13.873050689697266,-0.22800001502037048,0.9199500679969788
1750560176199066400,8.65206640625,10.894950866699219,0.19995000958442688,0.9460500478744507
1750560176208671000,8.6616708984375,9.564000129699707,0.5929500460624695,1.1710500717163086
1750560176218275300,8.671275390625,10.480950355529785,0.7630500197410583,1.6380001306533813
1750560176227880000,8.6808798828125,11.809950828552246,1.2990000247955322,1.8079501390457153
1750560176237484500,8.690484619140625,13.82295036315918,1.7539501190185547,1.7530500888824463
1750560176247089000,8.7000888671875,15.043951034545898,1.9960501194000244,1.7290500402450562
1750560176256693500,8.709693603515625,15.79800033569336,1.8619500398635864,2.39205002784729
1750560176266298000,8.719298095703126,15.894001007080078,1.9930500984191895,2.8470001220703125
1750560176275902500,8.72890234375,14.488950729370117,2.0910000801086426,2.806950092315674
1750560176285507000,8.738507080078126,12.516000747680664,2.266050100326538,2.385000228881836
1750560176295111400,8.748111328125,10.426050186157227,2.436000108718872,1.8490500450134277
1750560176304716000,8.757716064453126,9.407999992370605,2.428950071334839,1.1209501028060913
1750560176314320600,8.767320556640625,9.468000411987305,2.5009500980377197,0.3450000286102295
1750560176323925200,8.77692529296875,9.133049964904785,2.209050178527832,-0.14400000870227814
1750560176333529600,8.786529541015625,6.657000541687012,1.9789501428604126,-0.21900001168251038
1750560176343134200,8.79613427734375,3.7360501289367676,2.110949993133545,0.016950000077486038
1750560176352738800,8.80573876953125,1.746000051498413,2.805000066757202,-0.14400000870227814
1750560176362343200,8.81534326171875,2.335050106048584,3.616950273513794,-0.33105000853538513
1750560176381552400,8.834552490234374,8.161050796508789,4.195950031280518,-0.9370500445365906
1750560176391157000,8.844156982421875,8.794950485229492,4.114950180053711,-0.8650500178337097
1750560176400761600,8.85376171875,6.57105016708374,4.384950160980225,-1.215000033378601
1750560176410366000,8.863365966796875,4.183950424194336,4.717950344085693,-1.5480000972747803
1750560176419970600,8.872970458984375,2.8570501804351807,4.870950222015381,-1.2820500135421753
1750560176429575000,8.882574951171875,3.375000238418579,4.978950023651123,-0.8839500546455383
1750560176439179500,8.892179443359375,5.10105037689209,4.984050273895264,-0.5610000491142273
1750560176448784100,8.9017841796875,6.94005012512207,5.082000255584717,-0.7480500340461731
1750560176458388700,8.911388671875,8.611050605773926,5.06505012512207,-0.7890000343322754
1750560176467993000,8.9209931640625,9.589950561523438,5.119950294494629,-0.7120500206947327
1750560176477597700,8.93059765625,9.38700008392334,5.026950359344482,-0.6810000538825989
1750560176487202000,8.9402021484375,8.58495044708252,5.125050067901611,-0.5230500102043152
1750560176496806700,8.949806640625,7.597950458526611,5.307000160217285,-0.5040000081062317
1750560176506411300,8.959411376953126,7.090050220489502,5.427000045776367,-0.697950005531311
1750560176516015600,8.969015625,6.576000213623047,5.518050193786621,-0.7620000243186951
1750560176525620200,8.9786201171875,5.980050086975098,5.590050220489502,-0.36000001430511475
1750560176535224600,8.988224609375,5.956050395965576,5.668950080871582,-0.08505000174045563
1750560176544829200,8.9978291015625,6.841050148010254,5.764050483703613,-0.2070000171661377
1750560176554433800,9.007433837890625,8.122050285339355,5.731050491333008,-0.5920500159263611
1750560176564038100,9.0170380859375,9.034950256347656,5.6610002517700195,-0.9420000314712524
1750560176573642800,9.026642822265625,9.219000816345215,5.700000286102295,-0.8560500144958496
1750560176583247400,9.036247314453124,8.829000473022461,5.761950492858887,-0.5370000004768372
1750560176592852000,9.04585205078125,8.25195026397705,5.7330002784729,-0.030000001192092896
1750560176602456300,9.055456298828124,7.5259504318237305,5.740050315856934,0.39795002341270447
1750560176612061000,9.06506103515625,7.086000442504883,5.878950119018555,0.5059500336647034
1750560176621665500,9.07466552734375,7.027950286865234,5.958000183105469,0.5509500503540039
1750560176631270100,9.084270263671876,7.288950443267822,5.9320502281188965,0.36705002188682556
1750560176640874500,9.09387451171875,7.690950393676758,5.965050220489502,0.09195000678300858
1750560176650479000,9.10347900390625,7.945050239562988,6.049050331115723,-0.13695000112056732
1750560176660083700,9.113083740234375,8.08395004272461,6.013050079345703,-0.2740500271320343
1750560176669688000,9.12268798828125,8.07705020904541,6.009000301361084,-0.30705001950263977
1750560176679292700,9.132292724609375,8.105999946594238,5.953050136566162,-0.10605000704526901
1750560176688897300,9.141897216796876,8.200950622558594,5.902950286865234,0.21105000376701355
1750560176698501600,9.151501708984375,8.280000686645508,5.794950485229492,0.42000001668930054
1750560176708106200,9.161106201171876,8.344950675964355,5.818950176239014,0.4320000112056732
1750560176717710800,9.1707109375,8.166000366210938,5.809950351715088,0.3859500288963318
1750560176727315500,9.1803154296875,7.912050247192383,5.853000164031982,0.3910500109195709
1750560176736919800,9.189919921875,7.723050594329834,5.956050395965576,0.39795002341270447
1750560176746524400,9.1995244140625,7.7659502029418945,5.898000240325928,0.42900002002716064
1750560176756129000,9.20912890625,8.08905029296875,5.886000156402588,0.3379500210285187
1750560176765733400,9.2187333984375,8.398050308227539,5.845950126647949,0.043950002640485764
1750560176775338000,9.228337890625,8.725950241088867,5.752050399780273,-0.286050021648407
1750560176784942600,9.237942626953124,8.541000366210938,5.737950325012207,-0.4410000145435333
1750560176794547200,9.247547119140625,8.197050094604492,5.752050399780273,-0.5080500245094299
1750560176804151300,9.2571513671875,7.91895055770874,5.704050064086914,-0.2950500249862671
1750560176813756000,9.266755859375,7.639050483703613,5.671050071716309,0.09405000507831573
1750560176823360800,9.27636083984375,7.4569501876831055,5.707050323486328,0.4030500054359436
1750560176832965000,9.285965087890625,7.35105037689209,5.7210001945495605,0.43605002760887146
1750560176842569700,9.29556982421875,7.519050121307373,5.81505012512207,0.31200000643730164
1750560176852174000,9.305174072265626,7.684050559997559,5.857950210571289,0.24000000953674316
1750560176861778700,9.31477880859375,7.603050231933594,5.874000072479248,0.04605000093579292
1750560176871383300,9.32438330078125,7.513950347900391,5.9730000495910645,-0.23805001378059387
1750560176880988000,9.33398779296875,7.681950569152832,5.922000408172607,-0.29295000433921814
1750560176890592300,9.34359228515625,8.10300064086914,5.860050201416016,-0.32895001769065857
1750560176900196600,9.353196533203125,8.773950576782227,5.842950344085693,-0.5059500336647034
1750560176909801500,9.362801513671876,9.159000396728516,5.731050491333008,-0.37905001640319824
1750560176919406000,9.372406005859375,8.94105052947998,5.587050437927246,0.019950000569224358
1750560176929010200,9.38201025390625,8.36205005645752,5.623050212860107,0.25394999980926514
1750560176938614800,9.39161474609375,7.636050224304199,5.673000335693359,0.34095001220703125
1750560176948219400,9.401219482421874,7.131000518798828,5.713950157165527,0.2880000174045563
1750560176957824000,9.410823974609375,7.047000408172607,5.781000137329102,0.24705001711845398
1750560176967428400,9.420428466796874,7.225050449371338,5.7330002784729,0.20400001108646393
1750560176977033000,9.430032958984375,7.690950393676758,5.752050399780273,-0.04200000315904617
1750560176986637600,9.439637451171874,7.969050407409668,5.724000453948975,-0.19200000166893005
1750560176996242200,9.4492421875,8.119950294494629,5.617950439453125,-0.2569500207901001
1750560177005846500,9.458846435546874,8.259000778198242,5.616000175476074,-0.322050005197525
1750560177015451100,9.468451171875,8.199000358581543,5.56095027923584,-0.29100000858306885
1750560177025055500,9.478055419921875,8.211000442504883,5.512950420379639,-0.13305000960826874
1750560177034660000,9.48766015625,8.131950378417969,5.515050411224365,0.09195000678300858
1750560177044264700,9.4972646484375,8.236949920654297,5.515050411224365,0.22095000743865967
1750560177053869300,9.506869384765626,8.179950714111328,5.563050270080566,0.2689500153064728
1750560177063473700,9.5164736328125,8.034000396728516,5.5320000648498535,0.19905000925064087
1750560177073078300,9.526078369140626,7.837050437927246,5.695050239562988,-0.018000001087784767
1750560177082683000,9.535682861328125,7.758000373840332,5.75700044631958,-0.24000000953674316
1750560177092287200,9.545287353515626,7.852050304412842,5.75700044631958,-0.25005000829696655
1750560177101891800,9.554891845703125,8.176950454711914,5.75700044631958,-0.24000000953674316
1750560177111496400,9.564496337890626,8.440950393676758,5.689950466156006,-0.23805001378059387
1750560177121101000,9.57410107421875,8.491050720214844,5.665950298309326,-0.22800001502037048
1750560177130705700,9.58370556640625,8.295000076293945,5.677950382232666,-0.08895000070333481
1750560177140310300,9.593310302734375,8.046000480651855,5.688000202178955,0.10395000129938126
1750560177149914400,9.602914306640624,7.735050201416016,5.725950241088867,0.30900001525878906
1750560177159519000,9.61251904296875,7.474050521850586,5.773950099945068,0.30195000767707825
1750560177169123600,9.62212353515625,7.342050552368164,5.8120503425598145,0.11100000888109207
1750560177178728000,9.63172802734375,7.315950393676758,5.81505012512207,-0.04905000329017639
1750560177188332800,9.641332763671874,7.636050224304199,5.821950435638428,-0.14205001294612885
1750560177197937000,9.65093701171875,8.13705062866211,5.806950092315674,-0.2569500207901001
1750560177207541500,9.66054150390625,8.545949935913086,5.74500036239624,-0.286050021648407
1750560177217146000,9.67014599609375,8.788050651550293,5.713950157165527,-0.2740500271320343
1750560177226750500,9.67975048828125,8.689949989318848,5.676000118255615,-0.2569500207901001
1750560177236355000,9.68935498046875,8.218050003051758,5.692950248718262,-0.25200000405311584
1750560177245959700,9.698959716796875,7.681950569152832,5.719050407409668,-0.2070000171661377
1750560177255564300,9.708564208984376,7.2870001792907715,5.748000144958496,-0.10905000567436218
1750560177265168600,9.718168701171875,7.107000350952148,5.772000312805176,0.034050002694129944
1750560177274773200,9.727773193359376,7.2870001792907715,5.805000305175781,0.015000000596046448
1750560177284377900,9.7373779296875,7.762950420379639,5.81505012512207,-0.12300000339746475
1750560177293982500,9.746982421875,8.215950012207031,5.761950492858887,-0.24300001561641693
1750560177303586800,9.7565869140625,8.491050720214844,5.737950325012207,-0.2350500077009201
1750560177313191400,9.76619140625,8.746950149536133,5.725950241088867,-0.208950012922287
1750560177322796000,9.775796142578125,8.829000473022461,5.680950164794922,-0.28095000982284546
1750560177332400600,9.785400634765624,8.613000869750977,5.673000335693359,-0.31200000643730164
1750560177342005000,9.7950048828125,8.074950218200684,5.7330002784729,-0.13005000352859497
1750560177351609600,9.804609619140624,7.603050231933594,5.683050155639648,0.13199999928474426
1750560177361214200,9.814214111328125,7.35105037689209,5.676000118255615,0.208950012922287
1750560177370818600,9.823818603515624,7.299000263214111,5.748000144958496,0.09195000678300858
1750560177380423200,9.833423095703125,7.41795015335083,5.800050258636475,-0.039000000804662704
1750560177390027800,9.84302783203125,7.7470502853393555,5.821950435638428,-0.10605000704526901
1750560177399632100,9.852632080078125,8.142000198364258,5.776050090789795,-0.13500000536441803
1750560177409236700,9.86223681640625,8.371050834655762,5.752050399780273,-0.286050021648407
1750560177418841300,9.87184130859375,8.391000747680664,5.75700044631958,-0.3769500255584717
1750560177428446000,9.881446044921875,8.119950294494629,5.7210001945495605,-0.30000001192092896
1750560177438050300,9.89105029296875,7.866000175476074,5.716050148010254,-0.1879500150680542
1750560177447654700,9.900654541015625,7.711050510406494,5.697000503540039,-0.04200000315904617
1750560177457259300,9.91025927734375,7.782000541687012,5.697000503540039,0.04800000041723251
1750560177466863900,9.91986376953125,7.882950305938721,5.689950466156006,0.034050002694129944
1750560177476468500,9.929468505859376,7.962000370025635,5.725950241088867,0.06000000238418579
1750560177486072800,9.93907275390625,7.881000518798828,5.782950401306152,0.06000000238418579
1750560177495677400,9.948677490234376,7.761000156402588,5.75700044631958,-0.06795000284910202
1750560177505281800,9.95828173828125,7.6870503425598145,5.805000305175781,-0.17805001139640808
1750560177514886700,9.96788671875,7.701000213623047,5.8030500411987305,-0.25200000405311584
1750560177524490800,9.97749072265625,7.897050380706787,5.782950401306152,-0.25905001163482666
1750560177534095600,9.987095703125,8.11305046081543,5.785950183868408,-0.1489500105381012
1750560177543700000,9.996699951171875,8.315999984741211,5.719050407409668,-0.10905000567436218
1750560177553304600,10.0063046875,8.347050666809082,5.620950222015381,0.003000000026077032
1750560177562909200,10.0159091796875,8.32800006866455,5.635050296783447,-0.039000000804662704
1750560177572513500,10.025513427734374,8.185050010681152,5.611050128936768,-0.031950000673532486
1750560177582118100,10.0351181640625,7.957050323486328,5.599050045013428,0.040950000286102295
1750560177591722500,10.044722412109374,7.717950344085693,5.676000118255615,0.040950000286102295
1750560177601327000,10.0543271484375,7.612050533294678,5.737950325012207,0.039000000804662704
1750560177610931700,10.063931640625,7.677000522613525,5.719050407409668,0.015000000596046448
1750560177620536300,10.073536376953125,7.984050273895264,5.7210001945495605,-0.16395001113414764
1750560177630140700,10.083140625,8.43600082397461,5.704050064086914,-0.35805001854896545
1750560177639745500,10.09274560546875,8.781000137329102,5.593950271606445,-0.5400000214576721
1750560177649350000,10.102349853515625,8.641950607299805,5.5489501953125,-0.4440000355243683
1750560177658954500,10.11195458984375,8.161050796508789,5.508000373840332,-0.22800001502037048
1750560177668558800,10.121558837890625,7.677000522613525,5.539050102233887,-0.043950002640485764
1750560177678163500,10.13116357421875,7.507050514221191,5.599050045013428,0.06000000238418579
1750560177687768000,10.14076806640625,7.552950382232666,5.63700008392334,0.010050000622868538
1750560177697372400,10.150372314453126,7.639050483703613,5.677950382232666,-0.1399500072002411
1750560177706977000,10.15997705078125,7.828050136566162,5.7430500984191895,-0.18000000715255737
1750560177716581600,10.16958154296875,7.842000484466553,5.7430500984191895,-0.16095000505447388
1750560177726186000,10.17918603515625,7.792050361633301,5.833950042724609,-0.15405000746250153
1750560177735790600,10.18879052734375,7.857000350952148,5.889000415802002,-0.3049500286579132
1750560177745395200,10.198395263671875,7.939950466156006,5.884050369262695,-0.40995001792907715
1750560177754999800,10.207999755859374,8.223000526428223,5.902950286865234,-0.3739500045776367
1750560177764604400,10.2176044921875,8.26395034790039,5.760000228881836,-0.0799500048160553
1750560177774208800,10.227208740234374,7.998000144958496,5.7019500732421875,0.17805001139640808
1750560177783813400,10.2368134765625,7.735050201416016,5.8030500411987305,0.1469999998807907
1750560177793417700,10.246417724609374,7.564950466156006,5.845950126647949,0.015000000596046448
1750560177803022300,10.256022216796875,7.603050231933594,5.878950119018555,-0.019950000569224358
1750560177812626700,10.265626708984374,7.729950428009033,5.9320502281188965,-0.12105000764131546
1750560177822231300,10.275231201171875,7.726950168609619,5.914950370788574,-0.0799500048160553
1750560177831836000,10.2848359375,7.723050594329834,5.958000183105469,-0.09195000678300858
1750560177841440500,10.2944404296875,7.846950531005859,5.889000415802002,-0.0970500037074089
1750560177851045000,10.304045166015625,8.14905071258545,5.848050117492676,-0.17595000565052032
1750560177860649500,10.3136494140625,8.3860502243042,5.83905029296875,-0.22605000436306
1750560177870253800,10.32325390625,8.308950424194336,5.779050350189209,-0.0970500037074089
1750560177879858400,10.3328583984375,8.086950302124023,5.8120503425598145,0.003000000026077032
1750560177889463000,10.342463134765625,7.7149505615234375,5.81505012512207,0.15600000321865082
1750560177899067400,10.3520673828125,7.444950580596924,5.821950435638428,0.15105000138282776
1750560177908672000,10.361672119140625,7.498050212860107,5.889000415802002,-0.13695000112056732
1750560177918276600,10.371276611328126,7.885050296783447,5.90595006942749,-0.36000001430511475
1750560177927881000,10.380880859375,8.485950469970703,5.889000415802002,-0.5539500117301941
1750560177937485600,10.390485595703124,8.836050033569336,5.898000240325928,-0.43905001878738403
1750560177947090200,10.400090087890625,8.781000137329102,5.9730000495910645,-0.17805001139640808
1750560177956694800,10.40969482421875,8.484000205993652,6.009000301361084,0.05595000088214874
1750560177966299100,10.419299072265625,8.704050064086914,6.016050338745117,0.11805000901222229
1750560177975903700,10.42890380859375,8.958000183105469,5.901000499725342,0.0010500000789761543
1750560177985508400,10.43850830078125,8.713950157165527,5.752050399780273,0.13500000536441803
1750560177995112700,10.44811279296875,8.134050369262695,5.809950351715088,0.1270500123500824
1750560178004717300,10.45771728515625,7.081050395965576,5.760000228881836,0.19905000925064087
1750560178014322000,10.467322021484375,6.103950500488281,5.75700044631958,0.18495000898838043
1750560178023926300,10.47692626953125,5.299950122833252,5.64900016784668,0.028950002044439316
1750560178033531000,10.48653076171875,4.33905029296875,5.695050239562988,0.004950000438839197
1750560178043135500,10.496135498046876,3.5329501628875732,5.475000381469727,0.15405000746250153
1750560178052740000,10.505739990234375,2.9100000858306885,5.251950263977051,0.4320000112056732
1750560178062344400,10.515344482421876,2.338050127029419,4.900050163269043,0.9150000214576721
1750560178071949000,10.524948974609375,0.817050039768219,4.390050411224365,1.5019500255584717
1750560178081553700,10.5345537109375,-2.155050039291382,3.763050079345703,1.3609501123428345
1750560178091158000,10.544157958984375,-3.811950206756592,2.848050117492676,0.7549500465393066
1750560178100762600,10.5537626953125,-2.8090500831604004,1.2199500799179077,-1.0609500408172607
1750560178110367000,10.563366943359375,-1.0609500408172607,-0.28005000948905945,-2.593950033187866
1750560178119971600,10.5729716796875,1.1530500650405884,-1.927950143814087,-2.8999500274658203
1750560178129576400,10.582576416015625,4.2270002365112305,-3.0960001945495605,-2.6539502143859863
1750560178139180800,10.592180908203124,8.338050842285156,-3.739950180053711,-2.2039501667022705
1750560178148785200,10.60178515625,13.414051055908203,-3.4480502605438232,-2.5360500812530518
1750560178158389800,10.6113896484375,19.51905059814453,-1.4730000495910645,-3.4699501991271973
1750560178167994000,10.620994140625,25.407001495361328,0.33900001645088196,-3.919950246810913
1750560178177598700,10.6305986328125,27.964052200317383,0.778950035572052,-3.315000057220459
1750560178187203300,10.640203369140625,26.647050857543945,0.544950008392334,-1.5640500783920288
1750560178196808000,10.649807861328124,22.371000289916992,-0.016950000077486038,0.13905000686645508
1750560178206412300,10.659412353515625,16.153051376342773,-0.7470000386238098,1.4629501104354858
1750560178216017000,10.669016845703124,10.528950691223145,-1.3669500350952148,2.2300500869750977
1750560178225621200,10.678621337890625,6.973050117492676,-1.054050087928772,2.0910000801086426
1750560178235225900,10.688225830078125,6.091950416564941,-0.3040500283241272,1.516050100326538
1750560178244830500,10.69783056640625,8.34000015258789,0.29805001616477966,1.1089500188827515
1750560178254434800,10.707434814453125,12.211950302124023,1.0740000009536743,0.6349500417709351
1750560178264039400,10.717039306640626,16.692001342773438,1.371000051498413,0.661050021648407
1750560178273644000,10.72664404296875,19.342050552368164,1.5460500717163086,1.0950000286102295
1750560178283248600,10.73624853515625,20.52195167541504,1.3090500831604004,1.6170001029968262
1750560178292853000,10.74585302734375,20.580001831054688,1.048050045967102,1.8300000429153442
1750560178302457600,10.75545751953125,18.892051696777344,0.8179500102996826,1.7800500392913818
1750560178312062200,10.765062255859375,16.905000686645508,0.28395000100135803,2.4810001850128174
1750560178321666600,10.77466650390625,14.422050476074219,0.7150500416755676,2.4760501384735107
1750560178331271200,10.784271240234375,12.535050392150879,1.3440001010894775,1.8730500936508179
1750560178340875800,10.793875732421874,12.073050498962402,2.137050151824951,1.068000078201294
1750560178350480400,10.80348046875,11.869050979614258,2.1010501384735107,0.4630500078201294
1750560178360085000,10.8130849609375,12.516000747680664,1.2580500841140747,-0.40995001792907715
1750560178369689300,10.822689453125,11.890950202941895,0.853950023651123,-1.0260000228881836
1750560178379294000,10.8322939453125,9.37695026397705,-0.07200000435113907,0.34995001554489136
1750560178388898600,10.841898681640625,6.007950305938721,-0.32805001735687256,1.602000117301941
1750560178398503000,10.8515029296875,2.407050132751465,0.8230500221252441,1.5280500650405884
1750560178408107500,10.861107421875,-0.07005000114440918,2.533950090408325,1.2820500135421753
1750560178417712000,10.870712158203125,-2.1720001697540283,4.311000347137451,0.7189500331878662
1750560178427316500,10.88031640625,-2.4280500411987305,5.134950160980225,0.1870500147342682
1750560178436921000,10.889921142578125,-0.26100000739097595,5.9730000495910645,-1.1380500793457031
1750560178446525700,10.899525634765626,2.11995005607605,6.1210503578186035,-1.998000144958496
1750560178456130000,10.909130126953125,3.403050184249878,5.740050315856934,-2.455050230026245
1750560178465734700,10.918734619140626,3.0580501556396484,5.689950466156006,-2.7690000534057617
1750560178475339300,10.92833935546875,3.1590001583099365,5.958000183105469,-2.4880502223968506
1750560178484943600,10.937943603515626,4.303950309753418,5.889000415802002,-1.4970000982284546
1750560178494548200,10.94754833984375,5.93595027923584,5.737950325012207,-0.13005000352859497
1750560178504152600,10.957152587890626,7.423050403594971,5.910000324249268,0.8580000400543213
1750560178513757200,10.966757080078125,8.011950492858887,6.235950469970703,0.8239500522613525
1750560178523361800,10.97636181640625,8.06505012512207,6.0610504150390625,-0.13005000352859497
1750560178532966100,10.985966064453125,8.233050346374512,5.989050388336182,-1.3699500560760498
1750560178542570800,10.99557080078125,7.717950344085693,6.135000228881836,-2.11995005607605
1750560178552175000,11.005175048828125,6.8460001945495605,6.016050338745117,-2.0020501613616943
1750560178561780000,11.014780029296874,5.802000045776367,6.174000263214111,-1.5480000972747803
1750560178571384300,11.02438427734375,5.467050075531006,6.229050159454346,-0.8869500160217285
1750560178580989000,11.033989013671874,5.632050037384033,6.163950443267822,-0.37005001306533813
1750560178590593500,11.043593505859375,6.207000255584717,6.118950366973877,-0.21900001168251038
1750560178600198000,11.053197998046874,7.021050453186035,6.352950096130371,-0.43695002794265747
1750560178609802500,11.062802490234375,7.474050521850586,6.436950206756592,-0.753000020980835
1750560178619407000,11.072406982421874,7.938000202178955,6.459000110626221,-0.8869500160217285
1750560178629011500,11.082011474609375,8.194050788879395,6.511050224304199,-0.7170000076293945
1750560178638616000,11.091615966796875,8.0149507522583,6.420000076293945,-0.23805001378059387
1750560178648220700,11.101220703125,7.603050231933594,6.346050262451172,0.21405000984668732
1750560178657825000,11.110824951171875,7.099950313568115,6.472950458526611,0.3430500030517578
1750560178667429600,11.1204296875,6.889050483703613,6.478050231933594,0.2569500207901001
1750560178677034200,11.1300341796875,6.982950210571289,6.492000102996826,0.04800000041723251
1750560178686638600,11.139638671875,7.0159502029418945,6.4800004959106445,-0.12105000764131546
1750560178696243200,11.1492431640625,7.07895040512085,6.50700044631958,-0.22305001318454742
1750560178705847800,11.158847900390626,6.946950435638428,6.484950542449951,-0.24000000953674316
1750560178715452200,11.1684521484375,7.408950328826904,6.456000328063965,-0.19200000166893005
1750560178725056800,11.178056884765626,8.34000015258789,6.415950298309326,-0.14400000870227814
1750560178734661400,11.187661376953125,8.956050872802734,6.250050067901611,-0.2689500153064728
1750560178744266000,11.197265869140624,8.96505069732666,6.346050262451172,-0.5710500478744507
1750560178753870300,11.206870361328125,8.458050727844238,6.3919501304626465,-0.7260000109672546
1750560178763475000,11.216474853515624,7.804050445556641,6.379950523376465,-0.4650000333786011
1750560178773079600,11.22607958984375,7.344000339508057,6.349050521850586,-0.006000000052154064
1750560178782684200,11.23568408203125,7.099950313568115,6.444000244140625,0.4030500054359436
1750560178792288500,11.24528857421875,7.138050556182861,6.454050540924072,0.6330000162124634
1750560178801893000,11.25489306640625,7.392000198364258,6.442050457000732,0.4720500111579895
1750560178811497700,11.264497802734375,7.7149505615234375,6.478050231933594,0.040950000286102295
1750560178821102300,11.274102294921875,8.035950660705566,6.444000244140625,-0.492000013589859
1750560178830706700,11.283706787109375,8.203949928283691,6.384000301361084,-0.6420000195503235
1750560178840311300,11.293311279296875,8.280000686645508,6.31695032119751,-0.5520000457763672
1750560178849915600,11.30291552734375,8.166000366210938,6.334050178527832,-0.36000001430511475
1750560178859520300,11.312520263671875,7.999950408935547,6.339000225067139,-0.07500000298023224
1750560178869124900,11.322124755859376,7.600050449371338,6.334050178527832,0.25905001163482666
1750560178878729000,11.33172900390625,7.210050106048584,6.41295051574707,0.36705002188682556
1750560178888333800,11.341333740234376,7.011000156402588,6.468000411987305,0.2740500271320343
1750560178897938200,11.350938232421875,7.011000156402588,6.504000186920166,0.05100000277161598
1750560178907542800,11.360542724609376,6.97605037689209,6.547050476074219,-0.25005000829696655
1750560178917147100,11.370147216796875,7.014000415802002,6.5209503173828125,-0.29100000858306885
1750560178926751700,11.379751708984376,7.099950313568115,6.451050281524658,-0.29295000433921814
1750560178936356400,11.3893564453125,7.390050411224365,6.364950180053711,-0.31200000643730164
1750560178945961000,11.3989609375,7.768050193786621,6.355950355529785,-0.3840000033378601
1750560178955565300,11.4085654296875,8.038949966430664,6.235950469970703,-0.322050005197525
1750560178965170000,11.418169921875,8.09595012664795,6.2410502433776855,-0.25005000829696655
1750560178974774500,11.4277744140625,7.924050331115723,6.262050151824951,-0.2880000174045563
1750560178984379000,11.43737890625,7.5960001945495605,6.267000198364258,-0.2670000195503235
1750560178993983500,11.4469833984375,7.189050197601318,6.246000289916992,-0.06795000284910202
1750560179003588000,11.456588134765624,6.750000476837158,6.246000289916992,-0.10095000267028809
1750560179013192400,11.4661923828125,6.679050445556641,6.262050151824951,-0.35805001854896545
1750560179022797000,11.475797119140625,6.906000137329102,6.2910003662109375,-0.5680500268936157
1750560179032401700,11.485401611328125,7.41795015335083,6.262050151824951,-0.6469500064849854
1750560179042006300,11.49500634765625,7.809000492095947,6.210000514984131,-0.597000002861023
1750560179051611000,11.50461083984375,7.938000202178955,6.151950359344482,-0.4410000145435333
1750560179061215200,11.51421533203125,7.938000202178955,6.145050525665283,-0.3430500030517578
1750560179070819800,11.52381982421875,7.806000232696533,6.127950191497803,-0.2950500249862671
1750560179080424400,11.533424560546875,7.593000411987305,6.130950450897217,-0.14400000870227814
1750560179090028800,11.54302880859375,7.359000205993652,6.142950057983398,-0.06105000153183937
1750560179099633400,11.55263330078125,7.213050365447998,6.135000228881836,0.031950000673532486
1750560179109238000,11.562238037109376,7.207950115203857,6.163950443267822,-0.11805000901222229
1750560179118842400,11.57184228515625,7.402050495147705,6.295950412750244,-0.3139500021934509
1750560179128446700,11.58144677734375,7.69605016708374,6.250050067901611,-0.3769500255584717
1750560179138051300,11.59105126953125,7.888050556182861,6.250050067901611,-0.46995002031326294
1750560179147655700,11.60065576171875,7.993050575256348,6.2410502433776855,-0.5470499992370605
1750560179157260500,11.610260498046875,7.7149505615234375,6.246000289916992,-0.3820500075817108
1750560179166865000,11.619864990234374,7.45395040512085,6.250050067901611,-0.1660500019788742
1750560179176469200,11.62946923828125,7.335000514984131,6.2410502433776855,-0.0970500037074089
1750560179186073900,11.639073974609374,7.414050579071045,6.262050151824951,-0.18495000898838043
1750560179195678500,11.648678466796875,7.507050514221191,6.301050186157227,-0.31905001401901245
1750560179205283000,11.658282958984374,7.653000354766846,6.277050495147705,-0.33105000853538513
1750560179214887400,11.667887451171875,7.669950485229492,6.247950077056885,-0.35805001854896545
1750560179224492000,11.677491943359374,7.53795051574707,6.23805046081543,-0.3840000033378601
1750560179234096600,11.6870966796875,7.44705057144165,6.250050067901611,-0.4939500093460083
1750560179243701000,11.696700927734375,7.521000385284424,6.319950103759766,-0.6040500402450562
1750560179253305600,11.7063056640625,7.627050399780273,6.337050437927246,-0.6040500402450562
1750560179262910200,11.71591015625,7.7560505867004395,6.315000534057617,-0.5179499983787537
1750560179272514800,11.725514892578126,7.801950454711914,6.30495023727417,-0.29295000433921814
1750560179282119200,11.735119140625,7.648050308227539,6.2310004234313965,-0.14205001294612885
1750560179291723800,11.744723876953126,7.4659504890441895,6.270000457763672,-0.12105000764131546
1750560179301328400,11.754328369140625,7.390050411224365,6.289050102233887,-0.19995000958442688
1750560179310932700,11.7639326171875,7.477950572967529,6.267000198364258,-0.3049500286579132
1750560179320537300,11.773537353515625,7.648050308227539,6.325050354003906,-0.3139500021934509
1750560179330142000,11.783141845703126,7.828050136566162,6.277050495147705,-0.3139500021934509
1750560179339746600,11.79274658203125,8.118000030517578,6.28095006942749,-0.42000001668930054
1750560179349351000,11.802350830078124,8.230050086975098,6.234000205993652,-0.5010000467300415
1750560179358955500,11.81195556640625,8.105999946594238,6.169050216674805,-0.4339500069618225
1750560179368560000,11.82156005859375,7.741950511932373,6.135000228881836,-0.3240000009536743
1750560179378164500,11.83116455078125,7.23900032043457,6.178950309753418,-0.2880000174045563
1750560179387768800,11.840768798828124,7.04295015335083,6.229050159454346,-0.29295000433921814
1750560179397373400,11.85037353515625,7.105050563812256,6.247950077056885,-0.1969500035047531
1750560179406978000,11.85997802734375,7.323000431060791,6.234000205993652,-0.1399500072002411
1750560179416582400,11.86958251953125,7.615050315856934,6.265050411224365,-0.23805001378059387
1750560179426187000,11.87918701171875,7.833000183105469,6.29295015335083,-0.31905001401901245
1750560179435791400,11.888791259765625,8.058000564575195,6.250050067901611,-0.3360000252723694
1750560179445396000,11.89839599609375,8.161050796508789,6.159000396728516,-0.43695002794265747
1750560179455000600,11.90800048828125,8.055000305175781,6.1810503005981445,-0.5610000491142273
1750560179464605000,11.91760498046875,7.648050308227539,6.199950218200684,-0.5800500512123108
1750560179474209500,11.92720947265625,7.203000545501709,6.186000347137451,-0.34800001978874207
1750560179483814100,11.936814208984375,6.808050155639648,6.21405029296875,-0.05100000277161598
1750560179493418800,11.946418701171876,6.826950550079346,6.23805046081543,-0.018000001087784767
1750560179503023400,11.9560234375,7.105050563812256,6.262050151824951,-0.25005000829696655
1750560179512627700,11.965627685546876,7.471050262451172,6.277050495147705,-0.4630500078201294
1750560179522232300,11.975232421875,7.768050193786621,6.265050411224365,-0.5110500454902649
1750560179531837000,11.9848369140625,7.91895055770874,6.253050327301025,-0.42705002427101135
1750560179541441300,11.994441162109375,7.852050304412842,6.2310004234313965,-0.25200000405311584
1750560179551046000,12.0040458984375,7.681950569152832,6.2310004234313965,-0.31200000643730164
1750560179560650500,12.013650390625,7.5859503746032715,6.2910003662109375,-0.33105000853538513
1750560179570254800,12.0232548828125,7.402050495147705,6.255000114440918,-0.3550500273704529
1750560179579859500,12.032859375,7.471050262451172,6.1710004806518555,-0.34800001978874207
1750560179589464000,12.042464111328124,7.4760003089904785,6.193050384521484,-0.34095001220703125
1750560179599068400,12.052068359375,7.414050579071045,6.1710004806518555,-0.24000000953674316
1750560179608673000,12.061673095703124,7.284000396728516,6.274050235748291,-0.17100000381469727
1750560179618277600,12.071277587890625,7.1670002937316895,6.325050354003906,-0.21900001168251038
1750560179627882200,12.08088232421875,7.327950477600098,6.352950096130371,-0.28095000982284546
1750560179637486600,12.090486572265625,7.5450005531311035,6.376950263977051,-0.4339500069618225
1750560179647091200,12.10009130859375,7.677000522613525,6.2910003662109375,-0.527999997138977
1750560179656695800,12.10969580078125,7.612050533294678,6.267000198364258,-0.492000013589859
1750560179666300400,12.119300537109375,7.471050262451172,6.195000171661377,-0.22800001502037048
1750560179675904800,12.12890478515625,7.330050468444824,6.198000431060791,-0.003000000026077032
1750560179685509400,12.13850927734375,7.2870001792907715,6.270000457763672,-0.06300000101327896
1750560179695114000,12.148114013671876,7.378050327301025,6.30495023727417,-0.31905001401901245
1750560179704718300,12.15771826171875,7.500000476837158,6.29295015335083,-0.5370000004768372
1750560179714323000,12.167322998046876,7.480950355529785,6.28095006942749,-0.62295001745224
1750560179723927600,12.176927490234375,7.411050319671631,6.253050327301025,-0.4410000145435333
1750560179733532200,12.1865322265625,7.4160003662109375,6.211950302124023,-0.3049500286579132
1750560179743136500,12.196136474609375,7.648050308227539,6.166950225830078,-0.3049500286579132
1750560179752741000,12.2057412109375,7.866000175476074,6.217050075531006,-0.453000009059906
1750560179762345200,12.21534521484375,8.119950294494629,6.174000263214111,-0.4819500148296356
1750560179771950000,12.2249501953125,8.218050003051758,6.091950416564941,-0.4030500054359436
1750560179781554400,12.234554443359375,8.233050346374512,6.1210503578186035,-0.325950026512146
1750560179791159000,12.244158935546874,8.08395004272461,6.094950199127197,-0.286050021648407
1750560179800763600,12.253763671875,7.845000267028809,6.150000095367432,-0.4030500054359436
1750560179810368000,12.263367919921874,7.806000232696533,6.159000396728516,-0.6280500292778015
1750560179819972600,12.27297265625,8.034000396728516,6.166950225830078,-0.7620000243186951
1750560179829577200,12.2825771484375,8.14905071258545,6.159000396728516,-0.6469500064849854
1750560179839181600,12.292181640625,8.034000396728516,6.064050197601318,-0.4410000145435333
1750560179848786200,12.3017861328125,7.927950382232666,6.066000461578369,-0.34800001978874207
1750560179858390800,12.311390869140626,7.939950466156006,6.088050365447998,-0.3960000276565552
1750560179867995100,12.3209951171875,8.155950546264648,6.11400032043457,-0.5520000457763672
1750560179877599700,12.330599853515626,8.185050010681152,6.145050525665283,-0.7189500331878662
1750560179887204000,12.3402041015625,8.221050262451172,6.193050384521484,-0.753000020980835
1750560179896809000,12.34980908203125,8.02695083618164,6.174000263214111,-0.5560500025749207
1750560179906413300,12.359413330078125,7.866000175476074,6.205050468444824,-0.4339500069618225
1750560179916018000,12.369017822265626,7.738950252532959,6.355950355529785,-0.3840000033378601
1750560179925622300,12.378622314453125,7.504950523376465,6.2910003662109375,-0.2740500271320343
1750560179935227100,12.38822705078125,7.3560004234313965,6.394050121307373,-0.21195000410079956
1750560179944831500,12.39783154296875,7.36305046081543,6.490050315856934,-0.0970500037074089
1750560179954436000,12.40743603515625,7.423050403594971,6.496950149536133,0.0799500048160553
1750560179964040700,12.417040771484375,7.44195032119751,6.511050224304199,0.2639999985694885
1750560179973645000,12.42664501953125,6.9370503425598145,6.532950401306152,0.325950026512146
1750560179983249400,12.43624951171875,6.058950424194336,6.475050449371338,0.35295000672340393
