time,seconds_elapsed,z,y,x
1750560167646249000,0.0992490234375,-0.5235990285873413,-0.22133800387382507,-2.3614718914031982
1750560167655853600,0.108853515625,-0.33513200283050537,0.1692570000886917,-2.917593002319336
1750560167665458000,0.1184580078125,-0.09120199829339981,0.15032799541950226,-2.1712100505828857
1750560167675062500,0.1280625,-0.7128180265426636,-0.023996999487280846,-1.362665057182312
1750560167684667000,0.1376669921875,-1.3516789674758911,0.006031999830156565,-0.9699389934539795
1750560167694271500,0.147271484375,-1.7159559726715088,0.06274999678134918,-1.0459920167922974
1750560167703876000,0.1568759765625,-0.7163289785385132,-0.01230200007557869,-1.3437349796295166
1750560167713480400,0.16648046875,0.650439977645874,-0.21650700271129608,-0.7868340015411377
1750560167723084800,0.176084716796875,2.0875980854034424,-0.4592989981174469,-0.2462339997291565
1750560167732689400,0.185689453125,2.666486978530884,-0.3689819872379303,-0.39122098684310913
1750560167742293800,0.195293701171875,1.8142139911651611,-0.20629499852657318,-0.6145610213279724
1750560167751898400,0.2048984375,0.5066850185394287,-0.13776400685310364,-0.6719030141830444
1750560167761502700,0.214502685546875,-0.5335829854011536,0.036256998777389526,-0.8816230297088623
1750560167771107300,0.224107421875,-0.7167180180549622,-0.09423600137233734,-1.2799619436264038
1750560167780711700,0.233711669921875,-0.17394399642944336,-0.44659000635147095,-1.3396919965744019
1750560167790316300,0.24331640625,0.7375490069389343,-0.6123510003089905,-1.3911329507827759
1750560167799920600,0.252920654296875,0.9920009970664978,-0.17044499516487122,-1.1793010234832764
1750560167809525200,0.262525146484375,0.29519200325012207,-0.4008769989013672,0.2921920120716095
1750560167819129600,0.272129638671875,-0.548632025718689,-0.5981199741363525,1.6023750305175781
1750560167828734200,0.281734130859375,-1.1900800466537476,-0.49886900186538696,1.730605959892273
1750560167838338600,0.291338623046875,-0.6495810151100159,-0.43418100476264954,0.6307979822158813
1750560167847943200,0.300943115234375,0.5949640274047852,-0.002848000032827258,-1.0625139474868774
1750560167857547500,0.310547607421875,1.5649440288543701,-0.07195500284433365,-1.8118489980697632
1750560167867152000,0.32015185546875,1.8734699487686157,-0.17309600114822388,-1.9579819440841675
1750560167876756200,0.329756103515625,1.0903960466384888,-0.07504100352525711,-1.686594009399414
1750560167886360800,0.33936083984375,-0.06120999902486801,-0.19312499463558197,-0.6572499871253967
1750560167895965400,0.34896533203125,-1.0483269691467285,-0.3006489872932434,0.10310100018978119
1750560167905569800,0.35856982421875,-1.4388829469680786,-0.3572089970111847,0.1707649976015091
1750560167915174400,0.36817431640625,-1.057878017425537,-0.28669801354408264,-0.40487998723983765
1750560167924778800,0.37777880859375,-0.5171769857406616,-0.1592549979686737,-0.8844000101089478
1750560167934383400,0.38738330078125,-0.12693700194358826,-0.14963899552822113,-0.9818750023841858
1750560167943987700,0.39698779296875,-0.36776599287986755,-0.08077000081539154,-0.4479680061340332
1750560167953592300,0.40659228515625,-0.38241198658943176,-0.0736050009727478,0.18102699518203735
1750560167963196700,0.41619677734375,0.1789889931678772,-0.03048899956047535,0.0941310003399849
1750560167972801000,0.425801025390625,1.06113600730896,-0.08353199809789658,-0.08142700046300888
1750560167982405600,0.435405517578125,1.6111680269241333,0.029621999710798264,-0.6642500162124634
1750560167992010200,0.44501025390625,1.582419991493225,0.2224770039319992,-0.7695860266685486
1750560168001614300,0.4546142578125,0.8881329894065857,0.036972999572753906,-0.363085001707077
1750560168011219200,0.46421923828125,0.03746199980378151,-0.16364499926567078,-0.04469199851155281
1750560168020823600,0.473823486328125,-0.5038130283355713,-0.10492800176143646,0.04627300053834915
1750560168030428200,0.48342822265625,-0.3710080087184906,-0.19176800549030304,-0.10079299658536911
1750560168040032500,0.493032470703125,-0.7606220245361328,-0.17956699430942535,-0.26785698533058167
1750560168049637000,0.50263720703125,-0.6592910289764404,0.4439620077610016,-0.2945519983768463
1750560168059241500,0.512241455078125,-0.4606409966945648,0.11202199757099152,-0.0029800001066178083
1750560168068845800,0.521845703125,-0.3811950087547302,-0.12881700694561005,0.4317460060119629
1750560168078450400,0.531450439453125,-0.011353000067174435,0.11975599825382233,0.289359986782074
1750560168088055000,0.541054931640625,0.46357598900794983,0.024995999410748482,-0.1697230041027069
1750560168097659400,0.550659423828125,0.1856359988451004,-0.07587800174951553,-0.6066480278968811
1750560168107263700,0.560263671875,0.065249003469944,0.019210999831557274,-0.7954319715499878
1750560168116868000,0.5698681640625,-0.25779399275779724,-0.02897699922323227,-0.6227239966392517
1750560168126472700,0.57947265625,-0.4172529876232147,-0.11976099759340286,0.05027899891138077
1750560168136077300,0.589077392578125,-0.32364699244499207,-0.13308200240135193,0.43320900201797485
1750560168145681700,0.598681640625,-0.032673999667167664,-0.15041199326515198,0.5925099849700928
1750560168155286300,0.608286376953125,0.19098100066184998,-0.09393800050020218,0.3707740008831024
1750560168164890600,0.617890625,0.395143985748291,0.07800299674272537,-0.06419999897480011
1750560168174495200,0.6274951171875,0.5057979822158813,0.19959600269794464,-0.3515990078449249
1750560168184099600,0.637099609375,0.15111400187015533,0.2644129991531372,-0.5241910219192505
1750560168193704200,0.6467041015625,-0.2442770004272461,-0.03879699856042862,-0.47334998846054077
1750560168203308500,0.65630859375,-0.4409500062465668,-0.0524200014770031,-0.6333270072937012
1750560168212913200,0.6659130859375,-0.20717599987983704,-0.08025100082159042,-0.7248650193214417
1750560168222517800,0.675517822265625,0.0709109976887703,-0.013744999654591084,-0.7874050140380859
1750560168232122000,0.6851220703125,0.11309000104665756,-0.022224999964237213,-0.6652979850769043
1750560168241726700,0.694726806640625,0.1300719976425171,-0.10853400081396103,-0.3869970142841339
1750560168251331300,0.704331298828125,0.17157000303268433,-0.10526400059461594,-0.13585300743579865
1750560168260935700,0.713935791015625,0.0139340003952384,-0.1173970028758049,0.058051999658346176
1750560168270540300,0.723540283203125,-0.10026700049638748,-0.08564399927854538,0.24499499797821045
1750560168280144600,0.73314453125,-0.1213809996843338,-0.08468800038099289,0.3044709861278534
1750560168289749200,0.742749267578125,-0.14803600311279297,-0.041652001440525055,0.23187699913978577
1750560168299353600,0.752353515625,-0.11951100081205368,-0.036166001111269,-0.039659999310970306
1750560168308958000,0.7619580078125,-0.03595399856567383,-0.012546000070869923,-0.20656900107860565
1750560168318562600,0.7715625,-0.022859999909996986,-0.018290000036358833,-0.36465901136398315
1750560168328167000,0.7811669921875,0.14122700691223145,-0.0874909982085228,-0.3108989894390106
1750560168337771300,0.790771240234375,0.25669100880622864,-0.09829100221395493,-0.266618013381958
1750560168347375900,0.8003759765625,0.17622600495815277,-0.059790998697280884,-0.35579198598861694
1750560168356980500,0.80998046875,-0.01102100033313036,-0.05405599996447563,-0.584201991558075
1750560168366584800,0.819584716796875,-0.06643100082874298,-0.044495999813079834,-0.42188599705696106
1750560168376189400,0.829189453125,0.005503000225871801,-0.09290900081396103,-0.13189899921417236
1750560168385793800,0.838793701171875,0.13339200615882874,-0.1309109926223755,0.31812700629234314
1750560168395398400,0.8483984375,0.26263898611068726,-0.1392280012369156,0.5649099946022034
1750560168405002800,0.858002685546875,0.27981799840927124,-0.10235100239515305,0.3476549983024597
1750560168414607400,0.867607421875,0.20448100566864014,0.052661001682281494,-0.051398999989032745
1750560168424211700,0.877211669921875,-0.045899998396635056,0.12706199288368225,-0.2665719985961914
1750560168433816300,0.88681640625,-0.29927200078964233,0.004683999810367823,-0.11253499984741211
1750560168443420700,0.896420654296875,-0.2734430134296417,-0.13015300035476685,-0.015714000910520554
1750560168453025300,0.906025390625,-0.18839600682258606,-0.17370100319385529,-0.137922003865242
1750560168462629600,0.915629638671875,-0.058827999979257584,-0.17632199823856354,-0.23565499484539032
1750560168472234000,0.92523388671875,0.10750400274991989,-0.06166600063443184,-0.28605398535728455
1750560168481838600,0.934838623046875,0.11578399688005447,-0.036281999200582504,-0.13389399647712708
1750560168491443200,0.944443115234375,-0.026616999879479408,-0.030052000656723976,0.1897670030593872
1750560168501047600,0.954047607421875,-0.25648200511932373,-0.03949499875307083,0.5415989756584167
1750560168510652200,0.963652099609375,-0.34371399879455566,-0.03660200163722038,0.7023079991340637
1750560168520256500,0.973256591796875,-0.23998300731182098,-0.0028329999186098576,0.641493022441864
1750560168529861000,0.982861083984375,0.020204000174999237,0.056735001504421234,0.27541500329971313
1750560168539465700,0.9924658203125,0.3234289884567261,0.11668100208044052,-0.025766000151634216
1750560168549069800,1.00206982421875,0.3977859914302826,0.18294499814510345,-0.1737920045852661
1750560168558674400,1.01167431640625,0.29395899176597595,0.24576500058174133,-0.16642199456691742
1750560168568279000,1.021279052734375,0.10260699689388275,0.17402200400829315,-0.01311499997973442
1750560168577883400,1.03088330078125,-0.0055959997698664665,0.09902700036764145,0.192671000957489
1750560168587487700,1.04048779296875,0.008688000030815601,0.12640899419784546,0.1382569968700409
1750560168597092400,1.05009228515625,0.0574599988758564,0.0628179982304573,0.0586559996008873
1750560168606696700,1.05969677734375,0.21467499434947968,0.03172999992966652,-0.16797499358654022
1750560168616301300,1.06930126953125,0.35747700929641724,0.06183600053191185,-0.3791170120239258
1750560168625905700,1.07890576171875,0.4870069921016693,0.05050100013613701,-0.19982999563217163
1750560168635510300,1.08851025390625,0.4072929918766022,-0.006606000009924173,0.03493199869990349
1750560168645115000,1.098114990234375,0.1803169995546341,-0.03566500172019005,0.1967809945344925
1750560168654719200,1.10771923828125,0.07406699657440186,-0.0073460000567138195,0.2044609934091568
1750560168664323800,1.11732373046875,-0.04192600026726723,0.04850799962878227,0.2604529857635498
1750560168673928200,1.12692822265625,-0.10915300250053406,0.07425399869680405,0.16902099549770355
1750560168683532500,1.136532470703125,0.0932760015130043,0.07636400312185287,-0.06235300004482269
1750560168693137400,1.146137451171875,0.2873690128326416,0.14134900271892548,-0.27531200647354126
1750560168702741800,1.15574169921875,0.1493529975414276,0.08343499898910522,-0.4299989938735962
1750560168712346000,1.16534619140625,-0.051169998943805695,0.06131099909543991,-0.5572190284729004
1750560168721950700,1.17495068359375,-0.16027399897575378,0.05482799932360649,-0.4549979865550995
1750560168731555300,1.184555419921875,-0.31009501218795776,0.09480799734592438,-0.2363719940185547
1750560168741159400,1.194159423828125,-0.29477399587631226,0.14880700409412384,-0.1577560007572174
1750560168750764000,1.203763916015625,-0.16763600707054138,0.09456299990415573,-0.08090700209140778
1750560168760368600,1.21336865234375,0.054416000843048096,0.059578001499176025,-0.06972599774599075
1750560168769973000,1.222972900390625,0.11407899856567383,0.08864399790763855,-0.01595200039446354
1750560168779577600,1.23257763671875,-0.0142639996483922,0.02452700026333332,0.10361400246620178
1750560168789182200,1.24218212890625,-0.3918040096759796,-0.048225000500679016,0.2372100055217743
1750560168798786600,1.25178662109375,-0.7536960244178772,-0.06917600333690643,0.32763800024986267
1750560168808391200,1.26139111328125,-0.7334830164909363,-0.05894799903035164,0.24015699326992035
1750560168817995500,1.27099560546875,-0.3656559884548187,-0.00455200020223856,0.065699003636837
1750560168827600100,1.28060009765625,0.21661800146102905,0.012512000277638435,-0.1969520002603531
1750560168837204500,1.29020458984375,0.6744899749755859,-0.012536000460386276,-0.40925899147987366
1750560168846809000,1.29980908203125,0.8154540061950684,-0.10599599778652191,-0.36771100759506226
1750560168856413700,1.30941357421875,0.6613680124282837,-0.16166499257087708,-0.025870999321341515
1750560168866018000,1.31901806640625,0.3792400062084198,-0.18004199862480164,0.20994900166988373
1750560168875622700,1.32862255859375,0.18551699817180634,-0.1670919954776764,0.21879400312900543
1750560168885227000,1.33822705078125,-0.047116998583078384,-0.06496000289916992,0.16710099577903748
1750560168894831400,1.347831298828125,-0.28245100378990173,-0.03143100067973137,0.1875859946012497
1750560168904435700,1.357435791015625,-0.3188999891281128,-0.021908000111579895,0.21487000584602356
1750560168914040300,1.367040283203125,-0.273483008146286,-0.07570599764585495,0.17789199948310852
1750560168923645000,1.37664501953125,-0.2640100121498108,-0.1843860000371933,0.014624999836087227
1750560168933249500,1.38624951171875,-0.15841799974441528,-0.05662599951028824,-0.218968003988266
1750560168942854000,1.39585400390625,-0.1548369973897934,0.058708999305963516,-0.4043790102005005
1750560168952458500,1.40545849609375,-0.06087300181388855,0.003100000089034438,-0.3331649899482727
1750560168962062800,1.415062744140625,0.31598201394081116,0.0177449993789196,-0.11877600103616714
1750560168971667200,1.424667236328125,0.6590149998664856,-0.045340001583099365,-0.013969999738037586
1750560168981272000,1.43427197265625,0.8053230047225952,-0.007710999809205532,-0.05803300067782402
1750560168990876400,1.44387646484375,0.478067010641098,0.03819900006055832,-0.008995000272989273
1750560169000481000,1.45348095703125,-0.06132199987769127,-0.011846999637782574,0.05762400105595589
1750560169010085400,1.46308544921875,-0.36034899950027466,0.01657800003886223,0.042142000049352646
1750560169019690000,1.47268994140625,-0.4807699918746948,0.11013499647378922,-0.0008619999862276018
1750560169029294600,1.482294677734375,-0.4290579855442047,0.11635500192642212,0.04364100098609924
1750560169038899000,1.49189892578125,-0.12288399785757065,0.16277000308036804,0.021292999386787415
1750560169048503000,1.5015029296875,0.12170200049877167,0.11771500110626221,-0.018890000879764557
1750560169058107600,1.511107666015625,0.2655940055847168,0.09299100190401077,0.013729999773204327
1750560169067712300,1.520712158203125,0.16944600641727448,0.11363500356674194,0.012249000370502472
1750560169077316600,1.530316650390625,0.08319400250911713,0.06338299810886383,0.07796700298786163
1750560169086921200,1.539921142578125,0.15207600593566895,0.06869400292634964,0.10831599682569504
1750560169096525800,1.54952587890625,0.2760320007801056,0.0654049962759018,0.017635999247431755
1750560169106130200,1.559130126953125,0.28618401288986206,0.01596199907362461,-0.10911700129508972
1750560169115734800,1.56873486328125,0.19471000134944916,-0.11816400289535522,-0.11458799988031387
1750560169125339100,1.578339111328125,-0.06544800102710724,-0.037682000547647476,-0.0651170015335083
1750560169134943700,1.58794384765625,-0.3267480134963989,0.04318999871611595,0.11914800107479095
1750560169144548000,1.597548095703125,-0.45467299222946167,0.027677999809384346,0.29929399490356445
1750560169154152700,1.607152587890625,-0.32430699467658997,-0.009840000420808792,0.27519500255584717
1750560169163757300,1.61675732421875,-0.003028000006452203,0.01102100033313036,0.19043900072574615
1750560169173362000,1.62636181640625,0.16167199611663818,0.031817998737096786,0.09965299814939499
1750560169182966300,1.63596630859375,0.11412200331687927,-0.00548599986359477,0.012285999953746796
1750560169192570600,1.645570556640625,-0.04777999967336655,0.039278000593185425,-0.05596499890089035
1750560169202175200,1.65517529296875,-0.31679999828338623,0.07432200014591217,-0.080035001039505
1750560169211779600,1.664779541015625,-0.44605201482772827,0.06673000007867813,-0.017837999388575554
1750560169221384200,1.67438427734375,-0.3602609932422638,0.05014500021934509,0.1072160005569458
1750560169230988800,1.68398876953125,-0.07227200269699097,0.020058000460267067,0.14369100332260132
1750560169240593200,1.69359326171875,0.19175399839878082,-0.01548600010573864,0.16008199751377106
1750560169250197500,1.703197509765625,0.25012901425361633,-0.05063600093126297,0.10513299703598022
1750560169259802000,1.712802001953125,0.057110998779535294,-0.05799800157546997,0.014411999844014645
1750560169269406700,1.72240673828125,-0.12514999508857727,-0.019985999912023544,-0.04804199934005737
1750560169279011000,1.732010986328125,-0.16550500690937042,0.016851000487804413,-0.0823730006814003
1750560169288615700,1.74161572265625,-0.12202999740839005,0.0036170000676065683,0.04751800000667572
1750560169298220000,1.751219970703125,0.07778099924325943,0.014506000094115734,0.05931900069117546
1750560169307824600,1.76082470703125,0.2902880012989044,0.035360999405384064,0.0399169996380806
1750560169317429000,1.770428955078125,0.30758699774742126,0.005361999850720167,-0.02954299934208393
1750560169327033600,1.78003369140625,0.13481000065803528,0.009190999902784824,-0.10940299928188324
1750560169336638200,1.78963818359375,-0.11568299680948257,0.03421600162982941,-0.07346799969673157
1750560169346242600,1.79924267578125,-0.29186999797821045,0.00813400000333786,0.05486899986863136
1750560169355847200,1.80884716796875,-0.2547599971294403,0.025333000347018242,0.17290200293064117
1750560169365451500,1.818451416015625,-0.03928999975323677,0.07665400207042694,0.165910005569458
1750560169375056100,1.82805615234375,0.2996639907360077,0.10043899714946747,0.08377499878406525
1750560169384660500,1.837660400390625,0.6249819993972778,0.09012600034475327,-0.11944600194692612
1750560169394265000,1.84726513671875,0.8043630123138428,0.0762920007109642,-0.3186880052089691
1750560169403869400,1.856869384765625,0.7379059791564941,0.0803460031747818,-0.4319019913673401
1750560169413473800,1.866473876953125,0.5104529857635498,0.058577001094818115,-0.3463920056819916
1750560169423078400,1.876078369140625,0.32576799392700195,0.017920000478625298,-0.09872499853372574
1750560169432683000,1.88568310546875,0.17468099296092987,0.006341000087559223,0.1428299993276596
1750560169442287400,1.895287353515625,0.16337700188159943,0.010297000408172607,0.17091000080108643
1750560169451892000,1.90489208984375,0.31947100162506104,-0.0007740000146441162,0.04889899864792824
1750560169461496600,1.91449658203125,0.3608289957046509,0.015034000389277935,-0.11946400254964828
1750560169471101000,1.924100830078125,0.3363650143146515,-0.0017229999648407102,-0.17376700043678284
1750560169480705500,1.93370556640625,0.15146200358867645,0.0370590016245842,-0.12030100077390671
1750560169490310000,1.943309814453125,-0.10152699798345566,0.007029999978840351,0.0218299999833107
1750560169499914500,1.95291455078125,-0.24000300467014313,-0.0189410001039505,0.12426699697971344
1750560169509519000,1.96251904296875,-0.13616199791431427,0.024822000414133072,0.04641399905085564
1750560169519123500,1.97212353515625,0.06051100045442581,0.08996099978685379,-0.10440000146627426
1750560169528728000,1.98172802734375,0.043292999267578125,0.021914999932050705,-0.036726001650094986
1750560169538332700,1.991332763671875,-0.16944600641727448,0.0326789990067482,0.1386449933052063
1750560169547937000,2.00093701171875,-0.4408470094203949,0.030942000448703766,0.18921099603176117
1750560169557541600,2.010541748046875,-0.5241490006446838,0.04019499942660332,0.149277001619339
1750560169567146000,2.02014599609375,-0.41367000341415405,0.013318000361323357,0.0799190029501915
1750560169576750600,2.02975048828125,-0.05366399884223938,0.04130399972200394,0.06742999702692032
1750560169586355000,2.03935498046875,0.22676600515842438,0.028593000024557114,0.07240799814462662
1750560169595959600,2.04895947265625,0.43138599395751953,0.018015999346971512,0.11081799864768982
1750560169605564200,2.058564208984375,0.43963199853897095,0.06423299759626389,0.02845899946987629
1750560169615168500,2.06816845703125,0.25708699226379395,0.028931999579072,0.09486900269985199
1750560169624772900,2.07777294921875,-0.011869999580085278,0.010831999592483044,0.15206700563430786
1750560169634377500,2.08737744140625,-0.18244099617004395,-0.010827000252902508,0.10272400081157684
1750560169643982000,2.096982177734375,-0.2618680000305176,0.022588999941945076,-0.026681000366806984
1750560169653586400,2.10658642578125,-0.3396739959716797,0.03793900087475777,-0.11611700057983398
1750560169663190800,2.116190673828125,-0.2875399887561798,0.0744670033454895,-0.06307099759578705
1750560169672795400,2.12579541015625,-0.14986500144004822,0.05739400163292885,0.026829000562429428
1750560169682400000,2.13539990234375,0.008297000080347061,0.02552499994635582,0.10125099867582321
1750560169692004400,2.14500439453125,0.03619600087404251,-0.04064000025391579,0.13398100435733795
1750560169701609000,2.15460888671875,0.003855000017210841,-0.0989060029387474,0.10956499725580215
1750560169711213600,2.164213623046875,-0.078684002161026,-0.09998500347137451,0.05766100063920021
1750560169720818200,2.173818115234375,-0.1488649994134903,-0.06072799861431122,-0.08487500250339508
1750560169730422500,2.183422607421875,-0.07405199855566025,-0.038277000188827515,-0.2414969950914383
1750560169740027100,2.193027099609375,0.018616000190377235,-0.016171999275684357,-0.31769099831581116
1750560169749631500,2.202631591796875,0.05079599842429161,-0.06923100352287292,-0.3040600121021271
1750560169759236000,2.212236083984375,-0.07757899910211563,-0.06369499862194061,-0.15139299631118774
1750560169768840400,2.22184033203125,-0.14900000393390656,-0.05931900069117546,0.058079998940229416
1750560169778445000,2.231445068359375,-0.15703000128269196,-0.08311700075864792,0.2394140064716339
1750560169788049700,2.241049560546875,0.0017079999670386314,-0.07667399942874908,0.23627200722694397
1750560169797654000,2.250654052734375,0.30281999707221985,0.012112000025808811,-0.021355999633669853
1750560169807258600,2.260258544921875,0.4355419874191284,-0.005104999989271164,-0.16581399738788605
1750560169816863200,2.26986328125,0.334989994764328,0.030285999178886414,-0.20315800607204437
1750560169826467600,2.279467529296875,-0.016371000558137894,0.055045001208782196,-0.17558500170707703
1750560169836072000,2.289072021484375,-0.3127090036869049,0.053311001509428024,-0.003894000081345439
1750560169845676500,2.298676513671875,-0.4515489935874939,0.02246199920773506,0.08603200316429138
1750560169855281000,2.308281005859375,-0.37364399433135986,0.022762000560760498,0.0446150004863739
1750560169864885500,2.317885498046875,-0.17742599546909332,0.00963599979877472,-0.005950999911874533
1750560169874490000,2.327489990234375,0.09099099785089493,0.005342999938875437,-0.07570300251245499
1750560169884094500,2.337094482421875,0.19011299312114716,-0.03258100152015686,0.0021359999664127827
1750560169893698800,2.34669873046875,0.18342800438404083,-0.046549998223781586,0.10922300070524216
1750560169903303400,2.356303466796875,0.07433299720287323,-0.05214500054717064,0.07390200346708298
1750560169912908000,2.365907958984375,-0.01873599924147129,-0.019147999584674835,-0.01861399970948696
1750560169922512600,2.3755126953125,-0.044516000896692276,0.0015160000184550881,-0.13521599769592285
1750560169932117000,2.385116943359375,0.03744899854063988,-0.02960200048983097,-0.13660499453544617
1750560169941721600,2.3947216796875,0.14818300306797028,-0.0028069999534636736,-0.11586599797010422
1750560169951326000,2.404325927734375,0.12740400433540344,-0.024410000070929527,-0.07212000340223312
1750560169960930600,2.4139306640625,0.023228000849485397,0.009890999644994736,-0.006411000154912472
1750560169970535200,2.42353515625,-0.13724899291992188,0.015312000177800655,0.05215299874544144
1750560169980139500,2.433139404296875,-0.24963800609111786,0.05107299983501434,-0.0031429999507963657
1750560169989744000,2.442744140625,-0.23514099419116974,0.08462099730968475,-0.04243500158190727
1750560169999348700,2.4523486328125,-0.11385799944400787,0.031929999589920044,-0.03783499822020531
1750560170008953000,2.461953125,0.07054100185632706,0.0060640000738203526,0.025340000167489052
1750560170018557400,2.471557373046875,0.34170299768447876,-0.025449000298976898,-0.022724000737071037
1750560170028162000,2.481162109375,0.47015199065208435,-0.020757000893354416,-0.12137799710035324
1750560170037766700,2.4907666015625,0.44308900833129883,-0.01870100013911724,-0.1807129979133606
1750560170047371000,2.50037109375,0.3542979955673218,0.04843499884009361,-0.15386000275611877
1750560170056975600,2.5099755859375,0.28673601150512695,0.012060999870300293,-0.1305209994316101
1750560170066580000,2.519580078125,0.1939529925584793,0.0614130012691021,-0.03419899940490723
1750560170076184300,2.529184326171875,0.069582998752594,0.0235190000385046,0.12539300322532654
1750560170085789000,2.538788818359375,0.050873998552560806,0.03457599878311157,0.2927359938621521
1750560170095393500,2.5483935546875,0.08337099850177765,0.08771300315856934,0.23578600585460663
1750560170104998100,2.557998046875,0.19446800649166107,0.12050899863243103,0.10034500062465668
1750560170114602500,2.5676025390625,0.051947999745607376,0.1718900054693222,-0.0995120033621788
1750560170124207000,2.57720703125,-0.35754600167274475,0.2055090069770813,-0.16899900138378143
1750560170133811500,2.5868115234375,-0.6646100282669067,0.1782979965209961,-0.07266400009393692
1750560170143416000,2.596416015625,-0.6976079940795898,0.17643800377845764,0.10626400262117386
1750560170153020700,2.606020751953125,-0.40398699045181274,0.12106899917125702,0.18576699495315552
1750560170162625000,2.615625,0.022467000409960747,0.09164199978113174,0.1857690066099167
1750560170172229600,2.625229736328125,0.36447399854660034,0.012760999612510204,0.08445300161838531
1750560170181834200,2.634834228515625,0.4617159962654114,0.05428300052881241,0.05926299840211868
1750560170191438600,2.6444384765625,0.26010799407958984,0.014649000018835068,0.12363699823617935
1750560170201043200,2.654043212890625,0.004953000228852034,-0.001986999996006489,0.16969799995422363
1750560170210647800,2.663647705078125,-0.17481400072574615,0.05082299932837486,0.1350809931755066
1750560170220252200,2.673252197265625,-0.07803100347518921,0.043540000915527344,-0.02159000001847744
1750560170229856800,2.682856689453125,0.16388000547885895,0.05114400014281273,-0.13835600018501282
1750560170239461400,2.69246142578125,0.348021000623703,0.029116999357938766,-0.11951799690723419
1750560170249065700,2.702065673828125,0.31212401390075684,-0.015216999687254429,-0.030858999118208885
1750560170258670000,2.711670166015625,0.09680899977684021,-0.03018300049006939,0.035433001816272736
1750560170268274700,2.721274658203125,-0.2908580005168915,-0.004796000197529793,0.14896300435066223
1750560170277879000,2.730879150390625,-0.5184730291366577,-0.04719899967312813,0.19589799642562866
1750560170287483600,2.740483642578125,-0.4496229887008667,-0.04488600045442581,0.12023600190877914
1750560170297088000,2.750087890625,-0.059153001755476,-0.07118699699640274,-0.04536899924278259
1750560170306692600,2.759692626953125,0.3703649938106537,-0.09975600242614746,-0.21574200689792633
1750560170316297200,2.769297119140625,0.5264859795570374,-0.07436300069093704,-0.2654229998588562
1750560170325901600,2.778901611328125,0.5030699968338013,-0.08357600122690201,-0.15548600256443024
1750560170335506200,2.788506103515625,0.25444701313972473,-0.1092899963259697,-0.05849500000476837
1750560170345110800,2.79811083984375,-0.014101999811828136,-0.05998000130057335,-0.00965800043195486
1750560170354715100,2.807715087890625,-0.3223380148410797,-0.020888999104499817,0.0002880000101868063
1750560170364319700,2.81731982421875,-0.43149998784065247,-0.025837000459432602,0.05063899978995323
1750560170373924000,2.826924072265625,-0.5029109716415405,0.008147000335156918,0.11059899628162384
1750560170383528700,2.83652880859375,-0.46950700879096985,-0.023538999259471893,0.10952199995517731
1750560170393133300,2.84613330078125,-0.3062100112438202,-0.013261999934911728,0.06111599877476692
1750560170402737700,2.855737548828125,-0.07214300334453583,-0.052267998456954956,-0.05881600081920624
1750560170412342300,2.86534228515625,0.22050000727176666,-0.009076000191271305,-0.1662980020046234
1750560170421947000,2.87494677734375,0.44679099321365356,-0.0038530000019818544,-0.19471199810504913
1750560170431551200,2.88455126953125,0.46156200766563416,0.006300000008195639,-0.13777099549770355
1750560170441155800,2.89415576171875,0.3447279930114746,0.017203999683260918,-0.0725959986448288
1750560170450760200,2.90376025390625,0.09452400356531143,0.024873999878764153,0.07251200079917908
1750560170460364800,2.91336474609375,-0.19177399575710297,0.02555200085043907,0.24095000326633453
1750560170469969400,2.922969482421875,-0.3072830140590668,0.04363900050520897,0.28070101141929626
1750560170479573800,2.93257373046875,-0.21991300582885742,0.03721800073981285,0.19949999451637268
1750560170489178400,2.942178466796875,-0.13439099490642548,0.02209700085222721,0.11993999779224396
1750560170498782700,2.95178271484375,-0.005894000176340342,0.048847999423742294,0.0501989983022213
1750560170508387000,2.961386962890625,0.016037000343203545,0.05081000179052353,0.0460049994289875
1750560170517991700,2.97099169921875,-0.035013001412153244,0.04643699899315834,0.07964999973773956
1750560170527596500,2.980596435546875,-0.10574200004339218,0.05659100040793419,0.0566600002348423
1750560170537201000,2.990200927734375,-0.17802900075912476,0.005793999880552292,0.07318300008773804
1750560170546805200,2.99980517578125,-0.12340699881315231,-0.018046999350190163,0.036187998950481415
1750560170556409900,3.009409912109375,-0.05286499857902527,-0.04966000095009804,-0.020822999998927116
1750560170566014500,3.019014404296875,0.07384300231933594,-0.10022599995136261,-0.1664379984140396
1750560170575618800,3.028618896484375,0.11141200363636017,-0.08034200221300125,-0.259768009185791
1750560170585223400,3.038223388671875,0.03473600000143051,-0.05494999885559082,-0.20000700652599335
1750560170594827800,3.047827880859375,-0.13172000646591187,-0.056299999356269836,-0.053240999579429626
1750560170604432400,3.057432373046875,-0.18718600273132324,-0.07341500371694565,0.007170000113546848
1750560170614037000,3.067037109375,-0.10807199776172638,-0.056908998638391495,-0.059300001710653305
1750560170623641300,3.076641357421875,-0.013748999685049057,-0.09272799640893936,-0.13106200098991394
1750560170633246000,3.086245849609375,-0.006037000101059675,-0.05363500118255615,-0.13342300057411194
1750560170642850600,3.0958505859375,-0.05851300060749054,-0.01256799977272749,-0.00571200018748641
1750560170652455200,3.105455078125,-0.06467700004577637,-0.015490000136196613,0.011092999950051308
1750560170662059500,3.1150595703125,0.055667001754045486,0.006696000229567289,0.015324000269174576
1750560170671664000,3.1246640625,0.209088996052742,0.027525000274181366,0.006512000225484371
1750560170681268500,3.1342685546875,0.328372985124588,0.02782999910414219,0.04827899858355522
1750560170690873000,3.143873046875,0.36886700987815857,0.03693300113081932,0.08495700359344482
1750560170700477700,3.153477783203125,0.31414198875427246,-0.014585000462830067,0.08399099856615067
1750560170710082300,3.163082275390625,0.25523900985717773,-0.021787000820040703,0.06097399815917015
1750560170719686700,3.172686767578125,0.12827199697494507,-0.009627999737858772,0.039413999766111374
1750560170729291300,3.182291259765625,0.017336999997496605,-0.00254400004632771,0.0823500007390976
1750560170738896000,3.191895751953125,-0.11279399693012238,0.01849300041794777,0.03848399966955185
1750560170748500000,3.2015,-0.23248399794101715,0.04053400084376335,0.01769999973475933
1750560170758104600,3.2111044921875,-0.2888210117816925,0.05444199964404106,-0.016256000846624374
1750560170767709200,3.220709228515625,-0.21161900460720062,0.052962999790906906,0.001598999951966107
1750560170777313800,3.230313720703125,-0.027466999366879463,-0.027302000671625137,0.03488200157880783
1750560170786918100,3.239918212890625,0.22333000600337982,-0.07207100093364716,0.047605000436306
1750560170796522500,3.2495224609375,0.38666200637817383,-0.062111999839544296,0.026706000789999962
1750560170806127000,3.259127197265625,0.4554069936275482,-0.04416000097990036,0.0007869999972172081
1750560170815731700,3.268731689453125,0.34470099210739136,-0.030000999569892883,-0.03345099836587906
1750560170825336000,3.278336181640625,0.15476199984550476,0.021017000079154968,-0.08754599839448929
1750560170834940700,3.287940673828125,-0.02677600085735321,0.04992799833416939,-0.015317999757826328
1750560170844545000,3.297544921875,-0.1372860074043274,0.0024369999300688505,0.07292299717664719
1750560170854149600,3.307149658203125,-0.23703500628471375,0.027583999559283257,0.15644299983978271
1750560170863754200,3.316754150390625,-0.27013498544692993,0.02691599912941456,0.18698899447917938
1750560170873358800,3.32635888671875,-0.1557459980249405,0.02361300028860569,0.13704800605773926
1750560170882963200,3.335963134765625,0.04806499928236008,0.021369999274611473,0.06891600042581558
1750560170892567800,3.34556787109375,0.36272498965263367,0.061000000685453415,-0.03520499914884567
1750560170902172400,3.35517236328125,0.532817006111145,0.016450999304652214,-0.13299499452114105
1750560170911776800,3.36477685546875,0.5610780119895935,0.043880999088287354,-0.17837899923324585
1750560170921381400,3.37438134765625,0.3825230002403259,0.06084199994802475,-0.16009899973869324
1750560170930986000,3.383986083984375,0.12203499674797058,0.052053000777959824,0.03263000026345253
1750560170940590300,3.39359033203125,-0.06662800163030624,0.0585779994726181,0.07296700030565262
1750560170950195000,3.40319482421875,-0.1804639995098114,0.08059900254011154,0.08549299836158752
1750560170959799600,3.412799560546875,-0.27421000599861145,0.08968599885702133,0.07894899696111679
1750560170969404200,3.422404052734375,-0.21740099787712097,0.08814799785614014,0.009267999790608883
1750560170979008300,3.43200830078125,-0.10465499758720398,0.09181399643421173,-0.03335599973797798
1750560170988612900,3.44161279296875,0.045191001147031784,0.04332000017166138,-0.10038699954748154
1750560170998217200,3.45121728515625,0.14725400507450104,0.0671750009059906,-0.13066799938678741
1750560171007821800,3.46082177734375,0.17576700448989868,0.09478499740362167,-0.07587900012731552
1750560171017426200,3.47042626953125,0.1312510073184967,0.07491300255060196,0.05677900090813637
1750560171027030800,3.48003076171875,0.09698499739170074,0.03247600048780441,0.06915300339460373
1750560171036635400,3.489635498046875,-0.030269000679254532,0.024862999096512794,0.05472800135612488
1750560171046239700,3.49923974609375,0.040453001856803894,0.03971400111913681,0.04955099895596504
1750560171055844400,3.50884423828125,0.10691399872303009,0.013887999579310417,0.024444999173283577
1750560171065449000,3.518448974609375,0.028164999559521675,-0.0033050000201910734,0.03216699883341789
1750560171075053300,3.52805322265625,-0.09232400357723236,0.027767999097704887,-0.02763799950480461
1750560171084658000,3.537657958984375,-0.1603109985589981,0.07560200244188309,-0.09822399914264679
1750560171094262500,3.547262451171875,-0.11751600354909897,0.04891100153326988,-0.03634599968791008
1750560171103867100,3.5568671875,0.09236700087785721,0.0359559990465641,-0.06803999841213226
1750560171113471500,3.566471435546875,0.2795740067958832,-0.029496999457478523,-0.06593000143766403
1750560171123076000,3.576076171875,0.3663559854030609,-0.049136001616716385,-0.05846099928021431
1750560171132680400,3.585680419921875,0.29575300216674805,-0.036674998700618744,-0.08321800082921982
1750560171142285000,3.59528515625,0.07328300178050995,-0.03680799901485443,-0.03120500035583973
1750560171151889700,3.6048896484375,-0.11737599968910217,-0.019895000383257866,-0.04504400119185448
1750560171161494000,3.614493896484375,-0.2772749960422516,0.008557000197470188,-0.11724700033664703
1750560171171098600,3.6240986328125,-0.2759920060634613,0.05786599963903427,-0.16958600282669067
1750560171180703200,3.633703125,-0.16630099713802338,0.03286899998784065,-0.031947001814842224
1750560171190307600,3.6433076171875,-0.047906000167131424,-0.021654000505805016,0.12771600484848022
1750560171199912000,3.652911865234375,0.057339999824762344,-0.028822999447584152,0.16046400368213654
1750560171209516800,3.662516845703125,0.16407300531864166,0.025234000757336617,0.09635700285434723
1750560171219121200,3.67212109375,0.09943900257349014,-0.017544999718666077,0.08069700002670288
1750560171228725500,3.6817255859375,0.06562399864196777,0.013612999580800533,0.106454998254776
1750560171238330000,3.691330078125,-0.03492100164294243,0.005661000031977892,0.06264500319957733
1750560171247934500,3.7009345703125,-0.01534700021147728,0.009097999893128872,0.10840000212192535
1750560171257539000,3.7105390625,0.016916999593377113,-0.018821999430656433,0.03836200013756752
1750560171267143700,3.720143798828125,0.020207999274134636,-0.036660999059677124,-0.021051999181509018
1750560171276748000,3.729748046875,-0.04554399847984314,0.02600100077688694,-0.10224200040102005
1750560171286352600,3.7393525390625,-0.17663000524044037,0.057378001511096954,-0.11498899757862091
1750560171295957200,3.748957275390625,-0.293599009513855,0.05961700156331062,-0.013732999563217163
1750560171305561900,3.758561767578125,-0.2850489914417267,0.04919400066137314,-0.0013640000252053142
1750560171315166200,3.768166259765625,-0.15543200075626373,0.0622359998524189,-0.004100999794900417
1750560171324770800,3.777770751953125,0.04140400141477585,0.014461000449955463,-0.03189399838447571
1750560171334375400,3.78737548828125,0.26323801279067993,-0.018567999824881554,-0.05611899867653847
1750560171343979800,3.796979736328125,0.3495140075683594,0.014727000147104263,-0.022995000705122948
1750560171353584400,3.80658447265625,0.2475779950618744,0.015056000091135502,0.05033399909734726
1750560171363189000,3.81618896484375,0.10312400013208389,0.017892999574542046,0.1757420003414154
1750560171372793300,3.82579345703125,0.013922000303864479,0.022324999794363976,0.15443000197410583
1750560171382398000,3.83539794921875,-0.0641070008277893,0.04174799844622612,0.0738620012998581
1750560171392002600,3.84500244140625,-0.05349300056695938,0.011219000443816185,-0.047993000596761703
1750560171401607000,3.85460693359375,-0.016186999157071114,0.00004099999932805076,-0.08216899633407593
1750560171411211500,3.86421142578125,0.012164000421762466,-0.035277001559734344,-0.05601099878549576
1750560171420816100,3.873816162109375,0.009943000040948391,0.0006249999860301614,-0.05983100086450577
1750560171430420700,3.883420654296875,-0.03573400154709816,0.012551999650895596,-0.02666899934411049
1750560171440025000,3.893025146484375,-0.07747700065374374,0.06095099821686745,-0.021570000797510147
1750560171449629700,3.902629638671875,-0.15390099585056305,0.07653400301933289,0.03787799924612045
1750560171459234000,3.912234130859375,-0.09385800361633301,0.027595000341534615,0.13107800483703613
1750560171468838700,3.921838623046875,0.09857899695634842,0.0007479999912902713,0.11364799737930298
1750560171478443300,3.931443359375,0.21210099756717682,-0.015960000455379486,0.08644100278615952
1750560171488047400,3.94104736328125,0.19280900061130524,-0.0053889998234808445,0.031888000667095184
1750560171497652000,3.95065185546875,0.0008120000129565597,-0.028751999139785767,-0.039524998515844345
1750560171507256600,3.960256591796875,-0.23066799342632294,0.002993999980390072,-0.07136200368404388
1750560171516861000,3.96986083984375,-0.33988499641418457,-0.006415000185370445,-0.08701399713754654
1750560171526465500,3.979465576171875,-0.24982400238513947,-0.027468999847769737,-0.015406999737024307
1750560171536070100,3.989070068359375,0.08766400068998337,-0.018564000725746155,-0.07848899811506271
1750560171545674500,3.998674560546875,0.40828999876976013,-0.027080999687314034,-0.08927199989557266
1750560171555279000,4.008279052734375,0.5591019988059998,-0.03067299909889698,-0.0826840028166771
1750560171564883700,4.0178837890625,0.4702169895172119,-0.023173000663518906,-0.08582200109958649
1750560171574488000,4.027488037109375,0.028481999412178993,-0.02510399930179119,0.04153300076723099
1750560171584092700,4.0370927734375,-0.34708601236343384,0.021062999963760376,0.19209200143814087
1750560171593697300,4.046697265625,-0.39572200179100037,0.04640499874949455,0.2608020007610321
1750560171603302000,4.056302001953125,-0.20633499324321747,0.04387800022959709,0.1635890007019043
1750560171612906200,4.06590625,0.05731799826025963,0.05782400071620941,0.030558999627828598
1750560171622510800,4.0755107421875,0.20026099681854248,0.0716409981250763,-0.12688399851322174
1750560171632115500,4.085115478515625,0.0819149985909462,0.0445920005440712,-0.09556599706411362
1750560171641719800,4.0947197265625,-0.047641001641750336,0.02773899957537651,-0.012229000218212605
1750560171651324400,4.104324462890625,-0.15349499881267548,0.03674200177192688,0.07170599699020386
1750560171660929000,4.113928955078125,0.014794999733567238,-0.00029600001289509237,0.11476799845695496
1750560171670533400,4.123533447265625,0.20438100397586823,0.014611000195145607,0.00018400000408291817
1750560171680138000,4.133137939453125,0.2546379864215851,-0.015034999698400497,-0.12736399471759796
1750560171689742600,4.14274267578125,0.09099200367927551,0.0031469999812543392,-0.1589439958333969
1750560171699347200,4.15234716796875,-0.13555200397968292,0.01793299987912178,-0.10041400045156479
1750560171708951600,4.16195166015625,-0.2078000009059906,0.016357000917196274,0.11864399909973145
1750560171718556000,4.171555908203125,-0.18251200020313263,-0.04387199878692627,0.16810299456119537
1750560171728160500,4.181160400390625,0.04409800097346306,-0.021491000428795815,0.0976409986615181
1750560171737764900,4.190764892578125,0.3751020133495331,0.04907799884676933,-0.08894799649715424
1750560171747369500,4.200369384765625,0.5220469832420349,0.0337119996547699,-0.12115400284528732
1750560171756973800,4.209973876953125,0.4675790071487427,0.010898999869823456,-0.12895500659942627
1750560171766578700,4.21957861328125,0.1589909940958023,0.04640600085258484,-0.18820300698280334
1750560171776183000,4.22918310546875,-0.08494299650192261,0.0491969995200634,-0.16587099432945251
1750560171785787400,4.238787353515625,-0.16810199618339539,0.024813000112771988,-0.06927499920129776
1750560171795392000,4.24839208984375,-0.19970299303531647,0.008566999807953835,0.06802599877119064
1750560171804996600,4.25799658203125,-0.10821399837732315,0.08232200145721436,0.13741500675678253
1750560171814601000,4.26760107421875,-0.03900900110602379,0.09282899647951126,0.11275800317525864
1750560171824205600,4.27720556640625,-0.08657699823379517,0.0955749973654747,0.14159800112247467
1750560171833810200,4.28681005859375,-0.1666650027036667,0.09040900319814682,0.025422999635338783
1750560171843414800,4.296414794921875,-0.10132499784231186,0.11072800308465958,-0.10772600024938583
1750560171853019100,4.30601904296875,0.10629399865865707,0.06932400166988373,-0.142767995595932
1750560171862623700,4.315623779296875,0.3314020037651062,-0.00036100001307204366,-0.11374100297689438
1750560171872228000,4.32522802734375,0.6284549832344055,0.03574699908494949,-0.068231001496315
1750560171881832700,4.334832763671875,0.7283989787101746,0.021988000720739365,-0.008395999670028687
1750560171891437300,4.344437255859375,0.7796239852905273,-0.02536500059068203,0.09110900014638901
1750560171901042000,4.3540419921875,0.7692130208015442,-0.05259399861097336,0.09085399657487869
1750560171910646500,4.363646484375,0.7604029774665833,-0.01344399992376566,0.13649100065231323
1750560171920251000,4.3732509765625,0.7622799873352051,-0.03863700106739998,0.20035700500011444
1750560171929855500,4.38285546875,0.6632120013237,0.04733800143003464,0.11187499761581421
1750560171939460000,4.392460205078125,0.867842972278595,0.1784999966621399,0.011792999692261219
1750560171949064400,4.402064453125,1.0471839904785156,0.16223999857902527,0.08348800241947174
1750560171958669000,4.4116689453125,1.767071008682251,0.128044992685318,0.09981399774551392
1750560171968273400,4.4212734375,2.0791759490966797,-0.0187780000269413,0.1333950012922287
1750560171977878000,4.4308779296875,2.4187920093536377,-0.251444011926651,0.30042800307273865
1750560171987482600,4.440482666015625,2.3139350414276123,-0.23146599531173706,0.27478501200675964
1750560171997087000,4.4500869140625,1.3915209770202637,-0.18394699692726135,0.17843900620937347
1750560172006691600,4.459691650390625,0.18976500630378723,-0.13363799452781677,-0.014396999962627888
1750560172016296000,4.4692958984375,-0.9077079892158508,-0.004222999792546034,0.019381999969482422
1750560172025900500,4.478900634765625,-2.015626907348633,0.11161600053310394,0.031304001808166504
1750560172035505200,4.488505126953125,-3.328810930252075,0.22053200006484985,0.044211000204086304
1750560172045109500,4.498109619140625,-4.79748010635376,0.4769020080566406,0.36689499020576477
1750560172054714000,4.507714111328125,-6.144986152648926,0.6768860220909119,0.48601099848747253
1750560172064318500,4.517318359375,-6.525746822357178,0.5942130088806152,0.4509409964084625
1750560172073923000,4.526923095703125,-6.03490686416626,0.46601200103759766,0.3158569931983948
1750560172083527700,4.536527587890625,-5.779032230377197,0.2837119996547699,0.21353299915790558
1750560172093132000,4.546132080078125,-7.201010227203369,-0.3030500113964081,0.8474779725074768
1750560172102736600,4.555736572265625,-9.77083969116211,-0.5326520204544067,1.002668023109436
1750560172112341200,4.56534130859375,-13.060517311096191,-0.9144229888916016,-0.15147100389003754
1750560172121945600,4.574945556640625,-15.150045394897461,-2.0735950469970703,-1.1886390447616577
1750560172131550200,4.58455029296875,-14.04861068725586,-4.665501117706299,-1.8448059558868408
1750560172141154800,4.59415478515625,-12.79533576965332,-7.1543731689453125,-2.3929429054260254
1750560172150759400,4.603759521484375,-10.880626678466797,-9.203736305236816,-2.271328926086426
1750560172160363800,4.61336376953125,-5.130177974700928,-10.401169776916504,-2.814115047454834
1750560172169968400,4.622968505859375,4.429288864135742,-9.074798583984375,-3.9654579162597656
1750560172179573000,4.632572998046875,13.250555992126465,-6.400637149810791,-4.237709999084473
1750560172189177600,4.642177490234375,21.248289108276367,-4.035200119018555,-1.3209830522537231
1750560172198782000,4.651781982421875,25.197359085083008,-0.6817730069160461,1.5358350276947021
1750560172208386600,4.661386474609375,23.47533416748047,-0.3977940082550049,3.3348350524902344
1750560172217991000,4.670990966796875,18.03493309020996,-0.8643749952316284,4.198709011077881
1750560172227595500,4.680595458984375,10.901942253112793,-1.3778510093688965,3.726254940032959
1750560172237200000,4.690199951171875,3.959117889404297,-1.8331279754638672,2.8663198947906494
1750560172246804500,4.699804443359375,-1.763288974761963,-0.9473429918289185,1.3177039623260498
1750560172256409000,4.7094091796875,-5.1108717918396,0.470986008644104,0.23720599710941315
1750560172266013400,4.719013427734375,-5.815721035003662,1.258512020111084,0.13639900088310242
1750560172275618000,4.7286181640625,-3.400279998779297,1.5612670183181763,0.4417330026626587
1750560172285222700,4.73822265625,0.9415559768676758,1.729617953300476,0.6665340065956116
1750560172294827000,4.747826904296875,4.31525182723999,1.6706479787826538,0.37425100803375244
1750560172304431600,4.757431640625,6.030538082122803,1.2153069972991943,0.4548569917678833
1750560172314036000,4.767035888671875,5.599689960479736,0.6263949871063232,0.784500002861023
1750560172323640600,4.776640625,4.286541938781738,-0.023548999801278114,1.5722919702529907
1750560172333245200,4.7862451171875,2.728912115097046,-0.22145700454711914,2.2010679244995117
1750560172342849500,4.795849609375,1.439579963684082,-0.35725298523902893,2.365902900695801
1750560172352454100,4.8054541015625,1.3574399948120117,-0.056710001081228256,2.425403118133545
1750560172362058800,4.815058837890625,0.5741469860076904,0.2148510068655014,1.4940919876098633
1750560172371663400,4.824663330078125,0.16832900047302246,0.09013199806213379,0.5302550196647644
1750560172381267700,4.834267822265625,-0.19485899806022644,0.12519599497318268,-0.620881974697113
1750560172390872300,4.843872314453125,-0.1851319968700409,0.17082400619983673,-1.4234709739685059
1750560172400477000,4.853476806640625,-0.21333500742912292,0.23064599931240082,-1.5065220594406128
1750560172410081300,4.863081298828125,-0.6359310150146484,-0.04530100151896477,-1.2023149728775024
1750560172419686000,4.872685791015625,-1.057453989982605,-0.9490600228309631,-1.0566530227661133
1750560172429290500,4.88229052734375,-2.0514559745788574,-1.6301419734954834,-0.7554559707641602
1750560172438895000,4.89189501953125,-3.8011651039123535,-1.7275429964065552,-0.3371399939060211
1750560172448499500,4.90149951171875,-4.968112945556641,-1.2723400592803955,0.30564698576927185
1750560172458104000,4.91110400390625,-4.198872089385986,-0.7490730285644531,0.3919700086116791
1750560172467708400,4.92070849609375,-0.9834250211715698,-0.5533310174942017,0.4873499870300293
1750560172477313000,4.93031298828125,2.544433116912842,-0.3716129958629608,-0.22861599922180176
1750560172486917600,4.939917724609375,3.8900721073150635,-0.6407020092010498,-1.0373179912567139
1750560172496522000,4.94952197265625,2.284543991088867,-0.7801470160484314,-1.909011960029602
1750560172506126600,4.959126708984375,-0.735683023929596,-1.2297619581222534,-1.488394021987915
1750560172515731200,4.968731201171875,-3.589263916015625,-1.3502570390701294,0.17129899561405182
1750560172525335800,4.978335693359375,-4.635441780090332,-0.6027269959449768,1.5613009929656982
1750560172534940200,4.987940185546875,-4.467520236968994,-0.28540199995040894,2.0844480991363525
1750560172544544500,4.99754443359375,-3.037177085876465,-0.394665002822876,1.5037970542907715
1750560172554149000,5.007149169921875,-0.7535920143127441,-0.053704001009464264,0.5814120173454285
1750560172563753700,5.016753662109375,0.596776008605957,0.017719000577926636,-0.6062059998512268
1750560172573358300,5.0263583984375,0.6856669783592224,-0.1898140013217926,-1.4099080562591553
1750560172582963000,5.035962890625,-0.11850100010633469,-0.19553999602794647,-1.6927030086517334
1750560172592567300,5.0455673828125,-1.256991982460022,-0.3034079968929291,-0.9794279932975769
1750560172602172000,5.055171875,-2.3093650341033936,-0.16232000291347504,0.24555900692939758
1750560172611776300,5.0647763671875,-2.2687559127807617,0.07220199704170227,0.8384659886360168
1750560172621380900,5.074380859375,-1.1986490488052368,0.022842999547719955,0.773796021938324
1750560172630985200,5.083985107421875,0.35232800245285034,0.025482000783085823,0.25213000178337097
1750560172640590000,5.093590087890625,1.3508169651031494,0.023029999807476997,-0.11812900006771088
1750560172650194400,5.1031943359375,1.0640679597854614,0.14096799492835999,-0.3173750042915344
1750560172659798800,5.112798828125,-0.07420399785041809,0.2589769959449768,-0.2385150045156479
1750560172669403400,5.1224033203125,-1.3244409561157227,0.25385600328445435,0.3235799968242645
1750560172679008000,5.132008056640625,-2.077471971511841,0.19963900744915009,1.044638991355896
1750560172688612600,5.141612548828125,-1.7638219594955444,0.10927899926900864,1.2036819458007812
1750560172698217000,5.151217041015625,-0.6564990282058716,0.11317600309848785,0.72297602891922
1750560172707821600,5.160821533203125,0.4806379973888397,0.08960200101137161,0.2165530025959015
1750560172717426000,5.170426025390625,1.1536979675292969,0.13367199897766113,-0.1596039980649948
1750560172727030500,5.180030517578125,1.0262140035629272,0.1097090020775795,-0.11862999945878983
1750560172736635100,5.18963525390625,0.5399860143661499,0.14110200107097626,0.17211300134658813
1750560172746239700,5.19923974609375,0.14208799600601196,0.18705600500106812,0.4015350043773651
1750560172755844000,5.208843994140625,-0.06929299980401993,0.11676699668169022,0.6542879939079285
1750560172765448700,5.21844873046875,-0.15601800382137299,0.04883899912238121,1.0380439758300781
1750560172775053300,5.22805322265625,0.007898000068962574,0.06223899871110916,1.1235690116882324
1750560172784657700,5.23765771484375,0.1308320015668869,0.09877099841833115,0.9584929943084717
1750560172794262300,5.24726220703125,0.13180899620056152,0.10131499916315079,0.44144099950790405
1750560172803867000,5.256866943359375,0.0611720010638237,0.21858499944210052,-0.01904899999499321
1750560172813471200,5.26647119140625,-0.23819999396800995,0.21999600529670715,-0.14173899590969086
1750560172823075800,5.276075927734375,-0.3621569871902466,0.14867299795150757,-0.1603579968214035
1750560172832680400,5.285680419921875,-0.43914300203323364,0.13380900025367737,0.025066999718546867
1750560172842285000,5.29528515625,-0.30670198798179626,0.09838400036096573,0.1328819990158081
1750560172851889400,5.304889404296875,-0.060506001114845276,0.04289200156927109,0.16147799789905548
1750560172861494000,5.314493896484375,0.3030259907245636,0.07593099772930145,0.10483700037002563
1750560172871098600,5.3240986328125,0.44773200154304504,0.03922199830412865,0.019613999873399734
1750560172880703200,5.333703125,0.278439998626709,-0.0550989992916584,0.09686899930238724
1750560172890307600,5.3433076171875,0.006585000082850456,-0.01823499985039234,0.06558000296354294
1750560172899912000,5.352911865234375,-0.010579999536275864,-0.037682998925447464,-0.08457200229167938
1750560172909516500,5.3625166015625,0.029265999794006348,-0.027804000303149223,-0.24775199592113495
1750560172919121000,5.372120849609375,0.20539100468158722,-0.026321999728679657,-0.28058499097824097
1750560172928725500,5.3817255859375,0.5651999711990356,-0.026899000629782677,-0.2937609851360321
1750560172938330000,5.391330078125,0.8547130227088928,-0.03965900093317032,-0.23386600613594055
1750560172947934500,5.4009345703125,0.6308919787406921,-0.060832999646663666,-0.052772000432014465
1750560172957539000,5.4105390625,0.0000940000027185306,-0.025165000930428505,0.12523600459098816
1750560172967143700,5.420143798828125,-0.4902690052986145,-0.05498199909925461,0.22971400618553162
1750560172976748000,5.429748046875,-0.5400030016899109,-0.03686799854040146,0.29308900237083435
1750560172986352600,5.4393525390625,-0.19185799360275269,-0.04692799970507622,0.2616730034351349
1750560172995957200,5.448957275390625,0.17349399626255035,-0.00152299995534122,0.1938840001821518
1750560173005561900,5.458561767578125,0.35414400696754456,0.059480998665094376,0.017000999301671982
1750560173015166200,5.468166259765625,0.21096499264240265,0.10034400224685669,-0.09877300262451172
1750560173024770800,5.477770751953125,0.004991000052541494,0.049171000719070435,-0.14715400338172913
1750560173034375200,5.487375244140625,-0.15406300127506256,0.0933699980378151,-0.10329800099134445
1750560173043979800,5.496979736328125,-0.22821299731731415,0.059494998306035995,-0.00007300000288523734
1750560173053584400,5.50658447265625,-0.19505999982357025,0.003140999935567379,0.017247000709176064
1750560173063188700,5.516188720703125,-0.07019799947738647,-0.01656300015747547,0.010489000007510185
1750560173072793300,5.52579345703125,0.06308899819850922,-0.002704000100493431,-0.007067000027745962
1750560173082398000,5.53539794921875,0.10548000037670135,0.030236000195145607,0.08025199919939041
1750560173092002300,5.545002197265625,0.05815200135111809,0.02317499928176403,0.02754800021648407
1750560173101606700,5.554606689453125,0.07760400325059891,0.04040300101041794,-0.06722699850797653
1750560173111211300,5.564211181640625,-0.10153800249099731,0.060516998171806335,-0.07194899767637253
1750560173120816000,5.573816162109375,-0.14727899432182312,0.06871599704027176,-0.10129199922084808
1750560173130420700,5.583420654296875,-0.08833000063896179,0.07540100067853928,-0.1503629982471466
1750560173140025300,5.593025390625,-0.013798000290989876,0.04539699852466583,-0.05316999927163124
1750560173149629400,5.60262939453125,-0.059179000556468964,0.05159199982881546,0.019944999366998672
1750560173159234000,5.612234130859375,-0.34359899163246155,0.0029360000044107437,0.14253699779510498
1750560173168838700,5.621838623046875,-0.4319329857826233,0.03048500046133995,0.3138040006160736
1750560173178443300,5.631443359375,-0.22901900112628937,0.017847999930381775,0.3681029975414276
1750560173188047600,5.641047607421875,0.2953549921512604,0.008484000340104103,0.18581900000572205
1750560173197652000,5.65065185546875,0.7291359901428223,0.05127900093793869,-0.041085001081228256
1750560173207256600,5.660256591796875,0.663561999797821,0.04392699897289276,-0.14901700615882874
1750560173216861200,5.669861083984375,0.3090769946575165,0.05123300105333328,-0.17349399626255035
1750560173226466000,5.679466064453125,-0.43523600697517395,0.0003169999981764704,0.023174000903964043
1750560173236070400,5.6890703125,-0.8335630297660828,0.0005939999828115106,0.1239209994673729
1750560173245674800,5.6986748046875,-0.7218379974365234,0.009744999930262566,0.11957400292158127
1750560173255279400,5.708279296875,-0.20068000257015228,-0.04030200093984604,0.03876899927854538
1750560173264884000,5.717884033203125,0.24348799884319305,-0.045233000069856644,0.009438999928534031
1750560173274488300,5.72748828125,0.5061600208282471,-0.034756001085042953,-0.02428000047802925
1750560173284093000,5.737093017578125,0.41207900643348694,-0.08241499960422516,0.025109000504016876
1750560173293697300,5.746697265625,0.16863399744033813,-0.0004149999876972288,-0.013949999585747719
1750560173303302000,5.756302001953125,-0.14513300359249115,-0.0068060001358389854,-0.1767829954624176
1750560173312906500,5.765906494140625,-0.22498799860477448,0.05312899872660637,-0.31525498628616333
1750560173322510800,5.7755107421875,-0.22774599492549896,-0.020743999630212784,-0.25606000423431396
1750560173332115500,5.785115478515625,-0.19963900744915009,-0.007180999964475632,-0.10278700292110443
1750560173341720000,5.794719970703125,-0.1817760020494461,0.014495999552309513,0.0623060017824173
1750560173351324700,5.80432470703125,-0.10969600081443787,-0.019315000623464584,0.16557200253009796
1750560173360929300,5.81392919921875,0.02907400019466877,0.003229999914765358,0.1365489959716797
1750560173370533600,5.82353369140625,0.12025800347328186,-0.014523000456392765,0.07778000086545944
1750560173380138200,5.83313818359375,0.10313200205564499,-0.03875799849629402,-0.029479999095201492
1750560173389742800,5.842742919921875,-0.09267400205135345,0.01559399999678135,0.020136000588536263
1750560173399347500,5.852347412109375,-0.051357001066207886,0.03873300179839134,0.12319999933242798
1750560173408951800,5.861951904296875,0.14191600680351257,0.01890699937939644,0.13732300698757172
1750560173418556400,5.871556396484375,0.3510279953479767,0.03220300003886223,-0.015383999794721603
1750560173428160800,5.881160888671875,0.48906901478767395,0.028517000377178192,-0.23837299644947052
1750560173437765000,5.89076513671875,0.36201798915863037,-0.007962999865412712,-0.18747800588607788
1750560173447370000,5.900369873046875,0.017803000286221504,-0.09250699728727341,0.014400999993085861
1750560173456974300,5.909974365234375,-0.3975690007209778,-0.10376100242137909,0.20354600250720978
1750560173466579000,5.919578857421875,-0.6394169926643372,-0.11721199750900269,0.3733370006084442
1750560173476183300,5.929183349609375,-0.525613009929657,-0.07567299902439117,0.28448599576950073
1750560173485787600,5.93878759765625,-0.0491969995200634,0.0017480000387877226,0.01652500033378601
1750560173495392300,5.948392333984375,0.4713200032711029,0.04585399851202965,-0.22376200556755066
1750560173504996900,5.957996826171875,0.8376560211181641,0.045138001441955566,-0.35012900829315186
1750560173514601500,5.9676015625,0.7290560007095337,0.017823999747633934,-0.3208790123462677
1750560173524205800,5.977205810546875,0.2938309907913208,0.02121100015938282,-0.2335669994354248
1750560173533810400,5.986810546875,-0.1898989975452423,0.016352999955415726,0.004739999771118164
1750560173543415000,5.9964150390625,-0.46202799677848816,-0.044075001031160355,0.09889200329780579
1750560173553019600,6.00601953125,-0.42009299993515015,0.010777000337839127,0.051826998591423035
1750560173562624000,6.0156240234375,-0.16561000049114227,0.051298998296260834,0.11153200268745422
1750560173572228600,6.025228515625,0.09166400134563446,0.036295000463724136,0.12233799695968628
1750560173581833200,6.034833251953125,0.1126129999756813,0.028348000720143318,0.12312600016593933
1750560173591437600,6.0444375,-0.07816699892282486,0.0935479998588562,0.18945099413394928
1750560173601042200,6.054042236328125,-0.3776189982891083,0.08096099644899368,0.1917939931154251
1750560173610646800,6.063646728515625,-0.41321301460266113,0.05101599916815758,0.13836300373077393
1750560173620251100,6.073251220703125,-0.07953900098800659,0.07299000024795532,-0.02993199974298477
1750560173629855700,6.082855712890625,0.4412809908390045,-0.02369599975645542,-0.13381899893283844
1750560173639460400,6.09246044921875,0.6263430118560791,0.0033400000538676977,-0.24606400728225708
1750560173649064700,6.102064697265625,0.6664450168609619,-0.030855000019073486,-0.14367499947547913
1750560173658669300,6.11166943359375,0.2693459987640381,-0.000195999993593432,-0.011361000128090382
1750560173668274000,6.12127392578125,-0.1868640035390854,-0.019347000867128372,0.12495200335979462
1750560173677878500,6.13087841796875,-0.5165870189666748,-0.07542400062084198,0.1538420021533966
1750560173687483000,6.14048291015625,-0.5238080024719238,-0.03703799843788147,0.132424995303154
1750560173697087500,6.15008740234375,-0.28650298714637756,-0.09402699768543243,0.03387799859046936
1750560173706692000,6.159692138671875,0.021900000050663948,-0.11579900234937668,-0.17657800018787384
1750560173725901000,6.178901123046875,0.16034799814224243,-0.08643200248479843,-0.34788599610328674
1750560173735505700,6.188505615234375,0.1728390008211136,-0.03664100170135498,-0.2699179947376251
1750560173745110000,6.198110107421875,0.08892200142145157,-0.07302899658679962,-0.02037700079381466
1750560173754714600,6.207714599609375,0.08820100128650665,-0.1015160009264946,0.16420100629329681
1750560173764319200,6.2173193359375,0.1722089946269989,-0.09448900073766708,0.14556699991226196
1750560173773923800,6.226923828125,0.17320799827575684,-0.03583399951457977,0.05727500095963478
1750560173783528400,6.236528564453125,0.17913900315761566,-0.03964899852871895,0.028040999546647072
1750560173793132800,6.2461328125,0.15926800668239594,0.045906998217105865,0.008937999606132507
1750560173802737400,6.2557373046875,0.2152789980173111,0.10764499753713608,0.027925999835133553
1750560173812341800,6.265341796875,0.20702999830245972,0.12497500330209732,-0.034170001745224
1750560173821946400,6.2749462890625,0.22911900281906128,0.15224599838256836,-0.21311600506305695
1750560173831551000,6.284551025390625,0.19397300481796265,0.17134399712085724,-0.3113340139389038
1750560173841155600,6.294155517578125,0.09488199651241302,0.15991799533367157,-0.17968399822711945
1750560173850760200,6.30376025390625,-0.07569099962711334,0.02090200036764145,0.07763800024986267
1750560173860364500,6.313364501953125,-0.18987299501895905,0.01152500044554472,0.4036940038204193
1750560173869969200,6.32296923828125,-0.09315299987792969,0.036288999021053314,0.35592401027679443
1750560173879573800,6.33257373046875,0.14779900014400482,0.07880300283432007,0.24070300161838531
1750560173889178000,6.34217822265625,0.3367210030555725,0.09098199754953384,0.21030600368976593
1750560173908387300,6.36138720703125,0.6567980051040649,0.05927800014615059,-0.14151699841022491
1750560173917991700,6.37099169921875,1.0199769735336304,0.04287000000476837,-0.3242740035057068
1750560173927596000,6.380595947265625,1.0160620212554932,-0.03557199984788895,-0.09836799651384354
1750560173937200600,6.39020068359375,0.7375270128250122,-0.022679999470710754,0.38664698600769043
1750560173946805200,6.39980517578125,0.23557999730110168,0.029534000903367996,0.6895909905433655
1750560173956409900,6.409409912109375,-0.028335999697446823,0.056272998452186584,0.6194149851799011
1750560173966014200,6.41901416015625,-0.2159779965877533,0.10169000178575516,0.41554901003837585
1750560173975618600,6.42861865234375,-0.40593698620796204,0.07495400309562683,0.12343300133943558
1750560173985223200,6.43822314453125,-0.525763988494873,0.09103599935770035,-0.13172200322151184
1750560173994827800,6.447827880859375,-1.0683540105819702,0.09084700047969818,-0.28227001428604126
1750560174004432400,6.457432373046875,-1.7506059408187866,0.01171599980443716,-0.2727639973163605
1750560174014037000,6.467037109375,-2.6224489212036133,0.010633000172674656,0.055792998522520065
1750560174023641300,6.476641357421875,-3.386784076690674,-0.016668999567627907,0.3607740104198456
1750560174033246000,6.486245849609375,-3.6445000171661377,0.07551500201225281,0.38141998648643494
1750560174042850300,6.495850341796875,-4.454672813415527,0.02581300027668476,0.5166419744491577
1750560174052455000,6.505454833984375,-5.529873847961426,-0.20938900113105774,0.8302500247955322
1750560174062059500,6.5150595703125,-7.577855110168457,-0.2774820029735565,1.5688740015029907
1750560174071664000,6.5246640625,-9.06107234954834,-0.5452539920806885,1.839890956878662
1750560174081268500,6.5342685546875,-10.178443908691406,-1.1681090593338013,1.1259119510650635
1750560174090873000,6.543873046875,-10.128217697143555,-2.1144940853118896,-0.23384900391101837
1750560174100477400,6.5534775390625,-9.126347541809082,-3.395750045776367,-0.8573639988899231
1750560174110082000,6.56308203125,-8.218109130859375,-4.310009002685547,-0.6592879891395569
1750560174119686700,6.572686767578125,-7.163756847381592,-5.257820129394531,0.6130430102348328
1750560174129291300,6.582291259765625,-4.518901824951172,-6.003744125366211,1.2263669967651367
1750560174138895600,6.5918955078125,0.7509840130805969,-5.985899925231934,0.2563120126724243
1750560174148500000,6.6015,8.683952331542969,-4.339591026306152,-2.290903091430664
1750560174158104600,6.6111044921875,15.870268821716309,-2.092829942703247,-3.1713030338287354
1750560174167709000,6.620708984375,20.289817810058594,-0.700842022895813,-2.218914031982422
1750560174177313500,6.6303134765625,19.79694366455078,-0.2432200014591217,-1.8580700159072876
1750560174186918100,6.639918212890625,15.10729694366455,-0.16698899865150452,-1.9262449741363525
1750560174196522800,6.649522705078125,9.682331085205078,-1.056378960609436,-0.7457510232925415
1750560174206127000,6.659127197265625,4.989025115966797,-1.7163770198822021,-0.6352300047874451
1750560174215731700,6.668731689453125,0.06082399934530258,-1.6693309545516968,-0.6393120288848877
1750560174225336300,6.67833642578125,-4.020382881164551,-1.089624047279358,-0.12342000007629395
1750560174234941000,6.68794091796875,-6.473261833190918,-0.20980599522590637,0.4346800148487091
1750560174244545300,6.697545166015625,-5.9992170333862305,0.24771200120449066,0.9170359969139099
1750560174254150000,6.70714990234375,-2.3322970867156982,0.5164470076560974,1.1144360303878784
1750560174263754200,6.716754150390625,3.2335739135742188,0.7266309857368469,1.0299030542373657
1750560174273358800,6.72635888671875,8.110228538513184,1.2065249681472778,0.7152130007743835
1750560174282963500,6.73596337890625,10.280285835266113,1.123218059539795,0.9160919785499573
1750560174292568000,6.745568115234375,9.32020378112793,0.8143770098686218,1.3136850595474243
1750560174302172400,6.75517236328125,6.478616237640381,0.7981500029563904,1.0357539653778076
1750560174311777000,6.764777099609375,3.3602349758148193,0.7297009825706482,0.4531649947166443
1750560174321381600,6.774381591796875,1.3072999715805054,0.6144959926605225,0.19217999279499054
1750560174330986200,6.783986328125,0.010156000033020973,0.32298699021339417,-0.09045799821615219
1750560174340590600,6.793590576171875,-0.627357006072998,0.2734780013561249,-0.055789001286029816
1750560174350195200,6.8031953125,-0.5464730262756348,0.27175700664520264,0.4700919985771179
1750560174359799800,6.8127998046875,0.5379449725151062,0.07901100069284439,1.0166419744491577
1750560174369404400,6.822404296875,1.8172119855880737,-0.07878199964761734,0.41253599524497986
1750560174379008800,6.8320087890625,2.8306329250335693,-0.6661999821662903,-0.1801529973745346
1750560174388613400,6.84161328125,0.23114900290966034,-1.3987690210342407,0.21803399920463562
1750560174398217700,6.8512177734375,-3.6686439514160156,-2.3339710235595703,0.9074990153312683
1750560174407822300,6.860822265625,-6.426568984985352,-2.4103949069976807,0.9080299735069275
1750560174417426700,6.8704267578125,-7.250117778778076,-1.6650149822235107,0.1365409940481186
1750560174427031300,6.88003125,-6.477541923522949,-1.1086130142211914,-0.034999001771211624
1750560174436636000,6.889635986328125,-5.8083271980285645,-0.8278489708900452,0.24478699266910553
1750560174446240500,6.899240478515625,-4.802082061767578,-0.882053017616272,0.29071399569511414
1750560174455845000,6.90884521484375,-3.146462917327881,-0.6304219961166382,-0.1369059979915619
1750560174465449500,6.918449462890625,-1.251871943473816,-0.5656700134277344,-0.8383730053901672
1750560174475053800,6.9280537109375,0.21468600630760193,-0.6235740184783936,-1.2669899463653564
1750560174484658400,6.937658447265625,0.03582200035452843,-0.6025890111923218,-1.3342020511627197
1750560174494263000,6.947262939453125,-0.8377209901809692,-0.7723119854927063,-0.6633750200271606
1750560174503867400,6.956867431640625,-1.764955997467041,-0.6250020265579224,-0.08836700022220612
1750560174513472000,6.966471923828125,-2.1292850971221924,-0.5195580124855042,0.09537000209093094
1750560174523076600,6.97607666015625,-1.889309048652649,-0.38353800773620605,-0.1027889996767044
1750560174532681200,6.98568115234375,-0.9095110297203064,-0.45319798588752747,-0.48291999101638794
1750560174542285600,6.99528564453125,1.054157018661499,-0.23188899457454681,-0.669206976890564
1750560174551890200,7.00489013671875,2.3932199478149414,-0.18918299674987793,-0.7514330148696899
1750560174561494800,7.014494873046875,2.5339949131011963,-0.3472689986228943,-0.6049529910087585
1750560174571099100,7.02409912109375,1.2743580341339111,-0.24287700653076172,-0.5121489763259888
1750560174580703700,7.033703857421875,-0.1982869952917099,-0.14500799775123596,-0.2681030035018921
1750560174590308400,7.043308349609375,-1.117514967918396,-0.19591599702835083,0.0223580002784729
1750560174599912700,7.05291259765625,-1.0822930335998535,-0.09615600109100342,0.0728830024600029
1750560174609517300,7.062517333984375,-0.33271801471710205,-0.001044000033289194,-0.08280199766159058
1750560174619122000,7.072121826171875,0.4286800026893616,-0.02132299914956093,-0.1133740022778511
1750560174628726300,7.081726318359375,0.6678810119628906,0.07478699833154678,-0.011282999999821186
1750560174638331000,7.091330810546875,0.3321239948272705,0.2225860059261322,-0.04989200085401535
1750560174647935500,7.100935546875,-0.18348200619220734,0.2617110013961792,-0.08118200302124023
1750560174657540000,7.1105400390625,-0.6332889795303345,0.25223299860954285,0.034077998250722885
1750560174667144700,7.120144775390625,-0.5953580141067505,0.2138179987668991,0.19706100225448608
1750560174676749000,7.1297490234375,-0.14696599543094635,0.23998400568962097,0.14219999313354492
1750560174686353700,7.139353759765625,0.35821598768234253,0.20297999680042267,-0.03422899916768074
1750560174695958300,7.148958251953125,0.7066540122032166,0.16790400445461273,-0.09103400260210037
1750560174705562400,7.158562255859375,0.5780360102653503,0.20307500660419464,-0.12994900345802307
1750560174715167000,7.1681669921875,0.2538529932498932,0.1946360021829605,0.12527799606323242
1750560174724771600,7.177771484375,-0.0077390000224113464,0.14703500270843506,0.3420479893684387
1750560174734376200,7.187376220703125,-0.1003199964761734,0.11885800212621689,0.5634559988975525
1750560174743980500,7.19698046875,-0.1008090004324913,0.07847899943590164,0.4948129951953888
1750560174753585200,7.206585205078125,0.17390799522399902,0.0817589983344078,0.22896899282932281
1750560174763189500,7.216189453125,0.5098699927330017,0.15970900654792786,0.048464998602867126
1750560174772794000,7.225794189453125,0.7066190242767334,0.12928199768066406,0.03232400119304657
1750560174782398700,7.235398681640625,0.4552130103111267,0.06583400070667267,0.10576599836349487
1750560174792003000,7.245003173828125,0.16581599414348602,0.08433900028467178,0.07463899999856949
1750560174801607700,7.254607666015625,-0.2998409867286682,0.07377800345420837,-0.015282999724149704
1750560174811212300,7.26421240234375,-0.6062930226325989,0.08301900327205658,-0.005963000003248453
1750560174820817000,7.27381689453125,-0.5734140276908875,0.07789400219917297,0.04755700007081032
1750560174830421500,7.28342138671875,-0.2802790105342865,0.04639999940991402,-0.01486399956047535
1750560174840025900,7.29302587890625,0.09473200142383575,-0.006165000144392252,-0.0915910005569458
1750560174849630500,7.30263037109375,0.3880529999732971,-0.0007810000097379088,-0.13543899357318878
1750560174859235000,7.312235107421875,0.4323279857635498,0.02625899948179722,-0.0878250002861023
1750560174868839400,7.32183935546875,0.15404599905014038,0.07017000019550323,-0.00848000030964613
1750560174878444000,7.331444091796875,-0.05854500085115433,0.09091799706220627,-0.023504000157117844
1750560174888048600,7.341048583984375,-0.06363300234079361,0.10452400147914886,-0.12769299745559692
1750560174897653000,7.350653076171875,-0.02502099983394146,0.05381299927830696,-0.10710100084543228
1750560174907257600,7.360257568359375,0.06875000149011612,0.0448560006916523,-0.03790299966931343
1750560174916862200,7.3698623046875,0.04947799816727638,0.005568999797105789,-0.056168001145124435
1750560174926466600,7.379466552734375,-0.07252799719572067,-0.03403199836611748,-0.009120999835431576
1750560174936071200,7.3890712890625,-0.2361299991607666,-0.05674799904227257,0.09829899668693542
1750560174945675800,7.39867578125,-0.21686799824237823,-0.058097999542951584,0.10373199731111526
1750560174955280100,7.408280029296875,0.11779700219631195,0.0013259999686852098,0.06409899890422821
1750560174964884700,7.417884765625,0.46129798889160156,0.009185999631881714,-0.011966000311076641
1750560174974489000,7.427489013671875,0.7465909719467163,-0.011660999618470669,-0.1681089997291565
1750560174984093700,7.43709375,0.7432209849357605,0.05816100165247917,-0.1414009928703308
1750560174993698300,7.4466982421875,0.29014599323272705,0.01952200010418892,-0.06961199641227722
1750560175003302700,7.456302734375,-0.31550100445747375,-0.013042000122368336,0.15507100522518158
1750560175012907300,7.4659072265625,-0.6419730186462402,-0.0069969999603927135,0.29704099893569946
1750560175022511900,7.475511962890625,-0.7108650207519531,-0.018414000049233437,0.3388980031013489
1750560175032116200,7.4851162109375,-0.5390200018882751,-0.0017950000474229455,0.1943109929561615
1750560175041720800,7.494720947265625,-0.13963699340820312,-0.009417999535799026,0.0739310011267662
1750560175051325400,7.504325439453125,0.22807000577449799,-0.010336999781429768,-0.28047099709510803
1750560175060930000,7.513929931640625,0.3898949921131134,-0.10461500287055969,-0.4242280125617981
1750560175070534700,7.52353466796875,0.2795340120792389,-0.08602199703454971,-0.5325940251350403
1750560175080139300,7.53313916015625,0.13893699645996094,-0.035162001848220825,-0.33688101172447205
1750560175089743600,7.54274365234375,-0.07380600273609161,-0.0893850028514862,0.006688000168651342
1750560175099348200,7.55234814453125,-0.1417890042066574,-0.10241899639368057,0.2730970084667206
1750560175108952600,7.56195263671875,-0.12378299981355667,-0.1055700033903122,0.28971898555755615
1750560175118557200,7.57155712890625,-0.11097700148820877,-0.08167599886655807,0.1695059984922409
1750560175128161500,7.58116162109375,-0.05596200004220009,-0.06124100089073181,0.06638800352811813
1750560175137766100,7.59076611328125,-0.0838169977068901,0.0009030000073835254,-0.04005900025367737
1750560175147370800,7.600370849609375,-0.060628000646829605,0.004523999989032745,-0.16251400113105774
1750560175156975000,7.60997509765625,0.004635999910533428,0.012075000442564487,-0.142425999045372
1750560175166579700,7.619579833984375,0.030052000656723976,0.020880000665783882,-0.16683000326156616
1750560175176184300,7.629184326171875,0.12933799624443054,0.030392000451683998,-0.20945799350738525
1750560175185789000,7.638788818359375,0.13661299645900726,0.07622700184583664,-0.16473199427127838
1750560175195393300,7.648393310546875,0.23017899692058563,-0.01594099961221218,-0.08970600366592407
1750560175204998000,7.657997802734375,0.04016299918293953,-0.04568200185894966,0.02996700070798397
1750560175214602500,7.6676025390625,-0.26207301020622253,-0.051954999566078186,0.15185299515724182
1750560175224206800,7.677206787109375,-0.5697569847106934,-0.0643170028924942,0.26521000266075134
1750560175233811500,7.6868115234375,-0.6077460050582886,-0.046643998473882675,0.3710629940032959
1750560175243416000,7.696416015625,-0.3745650053024292,-0.03847799822688103,0.45094600319862366
1750560175253020400,7.7060205078125,-0.09115800261497498,-0.014894999563694,0.3158099949359894
1750560175262625000,7.715625,0.24528899788856506,-0.029214000329375267,0.02575100027024746
1750560175272229400,7.7252294921875,0.4412209987640381,0.014167999848723412,-0.31869399547576904
1750560175281834000,7.734833984375,0.45234400033950806,0.0023960000835359097,-0.46369999647140503
1750560175291438800,7.74443896484375,0.36469098925590515,0.03740600124001503,-0.45441100001335144
1750560175301043200,7.754043212890625,0.13106000423431396,-0.0044479998759925365,-0.19238600134849548
1750560175310647600,7.7636474609375,-0.10686299949884415,0.007739999797195196,0.045841000974178314
1750560175320252200,7.773252197265625,-0.38631999492645264,0.056007999926805496,0.178847998380661
1750560175329856800,7.782856689453125,-0.44192999601364136,0.0787070021033287,0.23141099512577057
1750560175339461400,7.79246142578125,-0.37435299158096313,0.05665700137615204,0.2710529863834381
1750560175349065700,7.802065673828125,-0.36129099130630493,0.07582899928092957,0.08997199684381485
1750560175358670300,7.81167041015625,-0.255374014377594,0.09702000021934509,-0.1411149948835373
1750560175368274700,7.821274658203125,-0.12035100162029266,0.05526399984955788,-0.20335499942302704
1750560175377879300,7.83087939453125,0.10917100310325623,0.00786300003528595,-0.1134599968791008
1750560175387484000,7.84048388671875,0.33006298542022705,0.004191000014543533,0.013415000401437283
1750560175397088500,7.850088623046875,0.4611159861087799,0.002053000032901764,0.17971999943256378
1750560175406692900,7.85969287109375,0.44379299879074097,-0.010964999906718731,0.19692100584506989
1750560175416297200,7.869297119140625,0.2677299976348877,-0.04666300117969513,0.1367499977350235
1750560175425901800,7.87890185546875,-0.03209599852561951,-0.08312399685382843,0.1366569995880127
1750560175435506700,7.888506591796875,-0.42997199296951294,-0.08686099946498871,0.014826999977231026
1750560175445111000,7.898111083984375,-0.6324819922447205,-0.08142299950122833,-0.167480006814003
1750560175454715400,7.90771533203125,-0.5486109852790833,-0.05894099920988083,-0.25536900758743286
1750560175464320300,7.9173203125,-0.23539599776268005,-0.12966500222682953,-0.21248899400234222
1750560175473924600,7.926924560546875,0.2871769964694977,-0.125,-0.14367100596427917
1750560175483529200,7.936529296875,0.5811799764633179,-0.16951100528240204,-0.01607399992644787
1750560175493133600,7.946133544921875,0.5367469787597656,-0.16133500635623932,0.05658400058746338
1750560175502738200,7.95573828125,0.25694599747657776,-0.10859200358390808,0.07463999837636948
1750560175512342800,7.9653427734375,-0.027506999671459198,-0.08810199797153473,0.12267500162124634
1750560175521947100,7.974947021484375,-0.2338699996471405,-0.023878000676631927,-0.01773099973797798
1750560175531551700,7.9845517578125,-0.33396899700164795,0.026329999789595604,-0.24459299445152283
1750560175541156400,7.99415625,-0.42334800958633423,0.051249001175165176,-0.3657650053501129
1750560175550761000,8.003760986328125,-0.3902440071105957,0.04572200030088425,-0.31199899315834045
1750560175560365300,8.013365234375,-0.3770579993724823,0.030321000143885612,-0.1700180023908615
1750560175569970000,8.022969970703125,-0.08157899975776672,0.018171999603509903,0.002489000093191862
1750560175579574500,8.032574462890626,0.3743000030517578,0.0005639999872073531,0.050317998975515366
1750560175589179100,8.04217919921875,0.6872029900550842,0.04388999938964844,0.10058099776506424
1750560175598783500,8.051783447265626,0.7857779860496521,0.0495930016040802,0.12384100258350372
1750560175608388000,8.06138818359375,0.524819016456604,0.07169999927282333,0.1250150054693222
1750560175617992400,8.070992431640626,0.09646700322628021,0.07710299640893936,0.1366730034351349
1750560175627597000,8.08059716796875,-0.3542729914188385,0.08900299668312073,0.173566997051239
1750560175637201700,8.09020166015625,-0.5253990292549133,0.06485600024461746,0.16849400103092194
1750560175646806300,8.09980615234375,-0.3028700053691864,0.06669099628925323,0.0488400012254715
1750560175656410600,8.10941064453125,0.17404499650001526,0.0467820018529892,-0.02970300056040287
1750560175666015200,8.11901513671875,0.5625150203704834,0.06829000264406204,-0.10627300292253494
1750560175675619600,8.12861962890625,0.6112070083618164,0.05849599838256836,-0.1246889978647232
1750560175685224200,8.13822412109375,0.3821769952774048,0.010575000196695328,-0.09440600126981735
1750560175694828800,8.147828857421874,0.1377130001783371,0.008705999702215195,-0.028593000024557114
1750560175704433200,8.15743310546875,-0.010150999762117863,-0.0004970000009052455,0.06652999669313431
1750560175714037800,8.167037841796875,-0.023865999653935432,-0.019686000421643257,0.23350299894809723
1750560175723642000,8.17664208984375,0.08608199656009674,-0.06063000112771988,0.3474709987640381
1750560175733246700,8.186246826171875,0.14476299285888672,-0.0376259982585907,0.1504340022802353
1750560175742851300,8.195851318359376,0.08893399685621262,0.010428999550640583,-0.13867799937725067
1750560175752456000,8.2054560546875,0.03765900060534477,0.029461000114679337,-0.3970620036125183
1750560175771665000,8.224664794921875,-0.1307930052280426,0.0005109999910928309,-0.2809860110282898
1750560175781269500,8.23426953125,-0.19386400282382965,0.01582000032067299,-0.16249699890613556
1750560175790874000,8.2438740234375,-0.26609501242637634,0.003788999980315566,0.018015999346971512
1750560175800478500,8.253478515625,-0.23343999683856964,-0.05503600090742111,0.31017500162124634
1750560175810083000,8.2630830078125,-0.17240899801254272,-0.06948500126600266,0.41744598746299744
1750560175819687400,8.2726875,0.09057199954986572,-0.03232000023126602,0.2043139934539795
1750560175829292000,8.2822919921875,0.21147799491882324,0.0017010000301524997,-0.05483900010585785
1750560175838896600,8.291896728515624,0.24256500601768494,0.015076999552547932,-0.1477849930524826
1750560175848501000,8.3015009765625,0.11003600060939789,0.034651000052690506,-0.13961400091648102
1750560175858105600,8.311105712890624,0.156917005777359,-0.003100000089034438,-0.11073099821805954
1750560175867710200,8.320710205078125,0.3980790078639984,0.014795999974012375,-0.13152000308036804
1750560175877314800,8.330314697265624,0.4316059947013855,-0.0729219987988472,0.08844099938869476
1750560175886919200,8.339919189453125,0.32572299242019653,-0.0942780002951622,0.24731500446796417
1750560175896523800,8.349523681640624,0.10448700189590454,-0.12192100286483765,0.27179399132728577
1750560175906128400,8.35912841796875,-0.04413300007581711,-0.13726499676704407,0.3040579855442047
1750560175915732700,8.368732666015624,0.03359600156545639,-0.06314700096845627,0.12947000563144684
1750560175925337300,8.37833740234375,0.39623400568962097,-0.015433999709784985,0.013555999845266342
1750560175934942000,8.38794189453125,0.8267620205879211,0.03084699995815754,-0.10362900048494339
1750560175944546600,8.397546630859376,1.1462080478668213,0.06234100088477135,-0.07662700116634369
1750560175954151000,8.40715087890625,0.9407190084457397,0.050025999546051025,0.023212000727653503
1750560175963755500,8.416755615234376,0.18056200444698334,0.08702299743890762,0.06711799651384354
1750560175973360000,8.426360107421875,-0.9041039943695068,0.19259600341320038,0.013863000087440014
1750560175982964700,8.43596484375,-1.9611860513687134,0.12707599997520447,-0.054019998759031296
1750560175992569000,8.445569091796875,-2.877588987350464,0.15509599447250366,0.037050001323223114
1750560176002173700,8.455173583984376,-3.8398470878601074,0.08643899857997894,0.34655898809432983
1750560176011778300,8.4647783203125,-5.398557186126709,-0.022068999707698822,0.7028030157089233
1750560176021382700,8.474382568359376,-6.466689109802246,-0.05705900117754936,0.8013020157814026
1750560176030987300,8.4839873046875,-6.560834884643555,0.12692099809646606,0.5013759732246399
1750560176040592000,8.493591796875,-6.866675853729248,-0.2326740026473999,0.6827489733695984
1750560176050196200,8.5031962890625,-8.390731811523438,-0.7572709918022156,0.8562589883804321
1750560176059800600,8.512800537109374,-10.825983047485352,-1.8479779958724976,1.4247020483016968
1750560176069405400,8.522405517578125,-11.86777114868164,-3.2859580516815186,1.34450101852417
1750560176079009500,8.532009521484374,-10.8423433303833,-4.304093837738037,-0.09582500159740448
1750560176088614100,8.5416142578125,-8.161846160888672,-5.072114944458008,-1.1044069528579712
1750560176098218800,8.55121875,-4.395902156829834,-5.663559913635254,-1.6128569841384888
1750560176107823600,8.56082373046875,-0.2248149961233139,-5.290853977203369,-2.1189489364624023
1750560176117428000,8.570427978515625,3.4730300903320312,-4.141965866088867,-1.5008089542388916
1750560176127032300,8.5800322265625,6.759667873382568,-2.853389024734497,-0.6810709834098816
1750560176136637000,8.589636962890625,10.719098091125488,-1.4193459749221802,-0.22312699258327484
1750560176146241500,8.599241455078126,15.409843444824219,0.3543330132961273,-1.0970649719238281
1750560176155846000,8.608845947265625,18.286773681640625,0.8997290134429932,-1.6191869974136353
1750560176165450500,8.618450439453126,17.112258911132812,0.3336769938468933,-0.6050480008125305
1750560176175055000,8.62805517578125,12.152142524719238,0.056292999535799026,0.27537301182746887
1750560176184659500,8.637659423828126,6.264854907989502,-0.13788999617099762,0.6652309894561768
1750560176194264000,8.64726416015625,2.4675710201263428,-0.2595610022544861,0.5266479849815369
1750560176203868700,8.65686865234375,0.08827800303697586,0.09466800093650818,0.4446659982204437
1750560176213473300,8.666473388671875,0.21046499907970428,0.09537500143051147,0.6851459741592407
1750560176223077600,8.67607763671875,1.3088730573654175,0.28707799315452576,0.9536290168762207
1750560176232682200,8.68568212890625,3.0629870891571045,0.7265380024909973,0.9597769975662231
1750560176242286800,8.695286865234374,4.872076988220215,0.8714789748191833,0.9785580039024353
1750560176251891200,8.70489111328125,5.666192054748535,0.7706239819526672,1.2481859922409058
1750560176261495800,8.714495849609374,6.300384044647217,0.4254409968852997,2.1674280166625977
1750560176271100400,8.724100341796875,5.708826065063477,0.3673950135707855,2.309597969055176
1750560176280705000,8.733705078125,3.9622409343719482,0.11139599978923798,2.205375909805298
1750560176290309600,8.7433095703125,1.9233759641647339,0.02826100029051304,1.7191309928894043
1750560176299914000,8.7529140625,0.32943299412727356,-0.3158619999885559,1.19678795337677
1750560176309518300,8.762518310546875,0.03737499937415123,-0.5684890151023865,0.4074519872665405
1750560176319123000,8.772123046875,0.28271999955177307,-1.013550043106079,-0.04257800057530403
1750560176328727600,8.7817275390625,-1.0068960189819336,-1.6205229759216309,-0.3003759980201721
1750560176338332200,8.791332275390625,-3.7623159885406494,-2.0521960258483887,-0.08121199905872345
1750560176347936500,8.8009365234375,-6.281734943389893,-1.9730349779129028,0.09817899763584137
1750560176357540900,8.810540771484375,-7.091182231903076,-1.3792359828948975,-0.1707019954919815
1750560176367145700,8.820145751953126,-4.859911918640137,-0.7979459762573242,-0.39560601115226746
1750560176376750000,8.82975,-1.7002170085906982,-0.6564710140228271,-0.8266400098800659
1750560176386354400,8.8393544921875,0.4563409984111786,-0.8719300031661987,-0.8271700143814087
1750560176395959000,8.848958984375,-0.45979899168014526,-0.8898569941520691,-0.8755599856376648
1750560176405563600,8.858563720703126,-2.9981000423431396,-0.6345250010490417,-1.4456809759140015
1750560176415168300,8.868168212890625,-4.900903224945068,-0.532194972038269,-1.413620948791504
1750560176424772600,8.877772705078126,-5.272393226623535,-0.4942089915275574,-1.0050979852676392
1750560176434377200,8.887377197265625,-3.9542179107666016,-0.4334549903869629,-0.6150360107421875
1750560176443981800,8.89698193359375,-2.095798969268799,-0.43818199634552,-0.4758780002593994
1750560176453586200,8.906586181640625,-0.3696010112762451,-0.31715500354766846,-0.6355209946632385
1750560176463190800,8.916190673828124,1.0758709907531738,-0.29079899191856384,-0.5049819946289062
1750560176472795400,8.92579541015625,1.3760149478912354,-0.3060309886932373,-0.5271689891815186
1750560176482399700,8.935399658203124,0.8502370119094849,-0.31813299655914307,-0.4160569906234741
1750560176492004400,8.94500439453125,-0.14127500355243683,-0.13399000465869904,-0.3129410147666931
1750560176501609000,8.95460888671875,-0.8887280225753784,-0.04143499955534935,-0.4262380003929138
1750560176511213300,8.96421337890625,-1.2354990243911743,-0.007224999833852053,-0.6050909757614136
1750560176520818000,8.97381787109375,-1.8656569719314575,0.041489001363515854,-0.4072839915752411
1750560176530422500,8.983422607421875,-2.2412590980529785,0.13683900237083435,0.019540000706911087
1750560176540027100,8.993027099609375,-1.8230229616165161,0.26955801248550415,0.09833700209856033
1750560176549631700,9.0026318359375,-0.622393012046814,0.27674600481987,-0.1429010033607483
1750560176559236400,9.012236328125,0.5227910280227661,0.21661899983882904,-0.5524590015411377
1750560176568840700,9.0218408203125,1.0662879943847656,0.23159000277519226,-0.6742129921913147
1750560176578445300,9.0314453125,0.8961700201034546,0.30139198899269104,-0.45829299092292786
1750560176588050000,9.0410498046875,0.3897570073604584,0.3521060049533844,-0.067221999168396
1750560176597654300,9.050654296875,-0.268528014421463,0.29541298747062683,0.4568069875240326
1750560176607259000,9.0602587890625,-0.8681809902191162,0.30288198590278625,0.6613079905509949
1750560176616863200,9.06986328125,-1.0806260108947754,0.3902589976787567,0.6945930123329163
1750560176626467800,9.0794677734375,-0.9375060200691223,0.36284899711608887,0.5766239762306213
1750560176636072200,9.089072265625,-0.5317299962043762,0.33297500014305115,0.29951000213623047
1750560176645676800,9.0986767578125,-0.1800210028886795,0.40433499217033386,0.04451499879360199
1750560176655281400,9.108281494140625,-0.0038840000052005053,0.4133709967136383,-0.17001600563526154
1750560176664885800,9.1178857421875,0.07267899811267853,0.3909839987754822,-0.2422100007534027
1750560176674490400,9.127490478515625,0.05017799884080887,0.35929998755455017,-0.16813500225543976
1750560176684095000,9.137094970703124,0.1196800023317337,0.2959130108356476,0.149275004863739
1750560176693699600,9.146699462890625,0.20812299847602844,0.20259100198745728,0.4183390140533447
1750560176703304000,9.156303955078124,0.2997249960899353,0.1882150024175644,0.49417001008987427
1750560176712908300,9.165908203125,0.26156601309776306,0.1950799971818924,0.45461899042129517
1750560176722513000,9.175512939453125,0.010444000363349915,0.18055400252342224,0.4146040081977844
1750560176732117500,9.185117431640625,-0.2106650024652481,0.2723749876022339,0.3866629898548126
1750560176741722000,9.19472216796875,-0.2876780033111572,0.28383299708366394,0.3840999901294708
1750560176751326500,9.204326416015626,-0.08554500341415405,0.20802700519561768,0.30976399779319763
1750560176760931000,9.21393115234375,0.2762089967727661,0.15789200365543365,0.13264200091362
1750560176770535700,9.22353564453125,0.5828480124473572,0.1380389928817749,-0.24461700022220612
1750560176780140300,9.233140380859375,0.6983190178871155,0.0919250026345253,-0.4745729863643646
1750560176789744600,9.24274462890625,0.3526439964771271,0.07267100363969803,-0.542339026927948
1750560176799349200,9.252349365234375,0.06923499703407288,0.06268300116062164,-0.4258989989757538
1750560176808953900,9.261953857421876,-0.1971379965543747,-0.008314999751746655,-0.07989799976348877
1750560176818558200,9.27155810546875,-0.4257330000400543,-0.03401099890470505,0.29179099202156067
1750560176828162800,9.281162841796874,-0.5817980170249939,-0.019842000678181648,0.4502680003643036
1750560176837767400,9.290767333984375,-0.5395529866218567,0.012782000005245209,0.3434930145740509
1750560176847371800,9.300371826171874,-0.28052300214767456,0.10389599949121475,0.22855199873447418
1750560176856976400,9.309976318359375,-0.2764410078525543,0.0825439989566803,0.09791400283575058
1750560176866581000,9.3195810546875,-0.40374600887298584,0.17933499813079834,-0.16877099871635437
1750560176876185600,9.329185546875,-0.33566200733184814,0.17674000561237335,-0.32238900661468506
1750560176885790000,9.3387900390625,-0.09105399996042252,0.1276559978723526,-0.28534701466560364
1750560176895394600,9.34839453125,0.47057199478149414,0.1084349974989891,-0.3680480122566223
1750560176904999200,9.357999267578125,1.0668220520019531,0.11574699729681015,-0.4219369888305664
1750560176914603500,9.367603515625,1.1195969581604004,-0.04381699860095978,-0.10629799962043762
1750560176924208000,9.3772080078125,0.688621997833252,-0.06700199842453003,0.23286999762058258
1750560176933812700,9.386812744140625,-0.015038000419735909,-0.02558000013232231,0.34744900465011597
1750560176943417300,9.396417236328125,-0.6462910175323486,-0.019280999898910522,0.3357299864292145
1750560176953021700,9.406021728515626,-0.926455020904541,0.01927199959754944,0.24744799733161926
1750560176962626300,9.415626220703125,-0.8213009834289551,-0.004459000192582607,0.17833100259304047
1750560176972231000,9.42523095703125,-0.4903410077095032,-0.0342320017516613,0.019404999911785126
1750560176981835300,9.434835205078125,-0.04334599897265434,0.008279000408947468,-0.17677199840545654
1750560176991440000,9.44443994140625,0.09640000015497208,-0.08755400031805038,-0.26309099793434143
1750560177001044500,9.45404443359375,0.24020600318908691,-0.11669199913740158,-0.2854909896850586
1750560177010648800,9.46364892578125,0.2814120054244995,-0.13179300725460052,-0.26783499121665955
1750560177020253200,9.473253173828125,0.22649799287319183,-0.15206100046634674,-0.18571700155735016
1750560177029857800,9.48285791015625,0.16989800333976746,-0.17099900543689728,0.01860800012946129
1750560177039462400,9.49246240234375,0.15761800110340118,-0.20370100438594818,0.22239899635314941
1750560177049066800,9.502066650390624,0.2152239978313446,-0.12442100048065186,0.2688800096511841
1750560177058671400,9.51167138671875,0.09695299714803696,-0.12924399971961975,0.21126900613307953
1750560177068276000,9.52127587890625,-0.06269299983978271,-0.048886001110076904,0.07954999804496765
1750560177077880300,9.53088037109375,-0.21132799983024597,0.0609310008585453,-0.15009400248527527
1750560177087485000,9.54048486328125,-0.21188099682331085,0.06115400046110153,-0.2526719868183136
1750560177097089500,9.550089599609375,0.00973500031977892,0.05452699959278107,-0.22058700025081635
1750560177106694000,9.55969384765625,0.3368909955024719,0.03142600134015083,-0.2017430067062378
1750560177116298500,9.569298583984375,0.5146880149841309,0.013012999668717384,-0.20178300142288208
1750560177125903000,9.578903076171875,0.3940359950065613,-0.0028069999534636736,-0.12150800228118896
1750560177135507700,9.5885078125,0.19126200675964355,0.019992999732494354,0.06608700007200241
1750560177145112300,9.5981123046875,-0.10599400103092194,0.02220500074326992,0.23102200031280518
1750560177154716700,9.607716552734376,-0.422776997089386,0.060474999248981476,0.3245890140533447
1750560177164321300,9.6173212890625,-0.5548170208930969,0.07587999850511551,0.19759200513362885
1750560177173926000,9.62692578125,-0.6512249708175659,0.10611800104379654,-0.009712000377476215
1750560177183530200,9.6365302734375,-0.5167880058288574,0.04924900084733963,-0.07174000144004822
1750560177193134800,9.646134765625,-0.04620800167322159,0.08432299643754959,-0.17821800708770752
1750560177202739500,9.655739501953125,0.38065099716186523,0.028262000530958176,-0.22750699520111084
1750560177212344000,9.665343994140626,0.7259079813957214,0.017528999596834183,-0.21531400084495544
1750560177221948400,9.674948486328125,0.7925410270690918,-0.00241800001822412,-0.22485199570655823
1750560177231553000,9.684552978515624,0.4889479875564575,-0.03846700116991997,-0.16757400333881378
1750560177241157400,9.694157470703125,-0.03793499991297722,0.023500999435782433,-0.15015099942684174
1750560177250762000,9.703761962890624,-0.4972720146179199,0.016366999596357346,-0.10232800245285034
1750560177260366600,9.71336669921875,-0.8132619857788086,-0.001639000023715198,0.05042799934744835
1750560177269971000,9.722970947265624,-0.7755860090255737,0.027867000550031662,0.13002200424671173
1750560177279575800,9.732575927734375,-0.40189099311828613,0.03215299919247627,0.04382399842143059
1750560177289180200,9.74218017578125,0.06887699663639069,0.006564999930560589,-0.10334800183773041
1750560177298784800,9.75178466796875,0.43337199091911316,0.001756999990902841,-0.16207699477672577
1750560177308389400,9.761389404296875,0.6755859851837158,-0.013850999996066093,-0.13814499974250793
1750560177317993700,9.77099365234375,0.8701609969139099,-0.0009730000165291131,-0.11415600031614304
1750560177327598000,9.78059814453125,0.7869049906730652,-0.01837100088596344,-0.21717800199985504
1750560177337202700,9.79020263671875,0.36497101187705994,0.03040499985218048,-0.12877300381660461
1750560177346807300,9.799807373046875,-0.16005399823188782,0.012121000327169895,0.11395400017499924
1750560177356412000,9.809411865234376,-0.5012900233268738,-0.06242400035262108,0.2884100079536438
1750560177366016300,9.819016357421875,-0.6364089846611023,-0.04609600082039833,0.24612100422382355
1750560177375620900,9.828620849609376,-0.6061729788780212,0.01906600035727024,0.09484200179576874
1750560177385225200,9.83822509765625,-0.3601610064506531,0.04355499893426895,-0.015025000087916851
1750560177394829800,9.847829833984376,0.03648100048303604,0.014449000358581543,-0.03975600004196167
1750560177404434400,9.857434326171875,0.34007498621940613,0.0020280000753700733,-0.1365330070257187
1750560177414038800,9.867038818359376,0.4777970016002655,0.00990699976682663,-0.2567040026187897
1750560177423643400,9.876643310546875,0.3325299918651581,-0.007184999994933605,-0.2317499965429306
1750560177433248000,9.886248046875,0.02881000004708767,-0.019293000921607018,-0.11757700145244598
1750560177442852600,9.8958525390625,-0.16819800436496735,-0.039156001061201096,0.027130000293254852
1750560177452457000,9.90545703125,-0.18825100362300873,-0.042181000113487244,0.1596039980649948
1750560177462061600,9.9150615234375,-0.11110399663448334,-0.05506199970841408,0.17622600495815277
1750560177471666200,9.924666259765624,-0.03160899877548218,-0.03826000168919563,0.1575549989938736
1750560177481270800,9.934270751953125,0.004792999941855669,0.019161999225616455,0.22057600319385529
1750560177490875100,9.943875244140624,-0.13706499338150024,0.04524800181388855,0.11636500060558319
1750560177500479700,9.953479736328125,-0.2082339972257614,0.04586799815297127,-0.0005039999959990382
1750560177510084400,9.96308447265625,-0.2831389904022217,0.05716000124812126,-0.09311199933290482
1750560177519688700,9.972688720703125,-0.1389019936323166,0.03511900082230568,-0.1314529925584793
1750560177529293300,9.982293212890625,0.07213500142097473,0.019968999549746513,-0.05833199992775917
1750560177538898000,9.99189794921875,0.2776840031147003,0.042461998760700226,-0.004548999946564436
1750560177548502300,10.001502197265625,0.3958800137042999,-0.0715010017156601,0.11461400240659714
1750560177558107000,10.01110693359375,0.3882089853286743,-0.07444000244140625,0.14915700256824493
1750560177567711500,10.02071142578125,0.2935599982738495,-0.05413199961185455,0.0810910016298294
1750560177577315800,10.03031591796875,0.07838600128889084,-0.09450499713420868,0.1418289989233017
1750560177586920400,10.03992041015625,-0.14629299938678741,-0.07465100288391113,0.16041600704193115
1750560177596525000,10.049525146484376,-0.3199540078639984,0.014182000420987606,0.12952999770641327
1750560177606129700,10.059129638671875,-0.3478589951992035,-0.0018550000386312604,0.14312000572681427
1750560177615734000,10.068734130859376,-0.1418839991092682,-0.019651999697089195,0.034612998366355896
1750560177625338400,10.07833837890625,0.25773000717163086,-0.00292899995110929,-0.1666709929704666
1750560177634943000,10.08794287109375,0.6737279891967773,-0.054492998868227005,-0.3275449872016907
1750560177644547800,10.0975478515625,0.7859619855880737,-0.12207499891519547,-0.3655039966106415
1750560177654152200,10.107152099609374,0.42324399948120117,-0.1372849941253662,-0.20912499725818634
1750560177663756800,10.1167568359375,-0.08709000051021576,-0.16745500266551971,0.04538299888372421
1750560177673361200,10.126361083984374,-0.43149301409721375,-0.12990400195121765,0.1723559945821762
1750560177682965800,10.1359658203125,-0.4241499900817871,-0.09205199778079987,0.20962700247764587
1750560177692570000,10.145570068359374,-0.38852599263191223,-0.05003499984741211,0.07715599983930588
1750560177702174700,10.1551748046875,-0.20143400132656097,-0.01883699931204319,-0.0399009995162487
1750560177711779000,10.164779052734374,-0.08193200081586838,0.028397999703884125,-0.059932999312877655
1750560177721384000,10.174384033203125,-0.1487099975347519,0.02708199992775917,-0.018240999430418015
1750560177730988300,10.18398828125,-0.13087600469589233,0.15080200135707855,-0.09358400106430054
1750560177740593000,10.193593017578126,-0.06366000324487686,0.13721700012683868,-0.19297300279140472
1750560177750197200,10.203197265625,0.15378299355506897,0.14710000157356262,-0.2122420072555542
1750560177769406500,10.222406494140625,0.1909479945898056,-0.03627000004053116,0.2757450044155121
1750560177779010800,10.2320107421875,-0.08610700070858002,0.0018779999809339643,0.3369410037994385
1750560177788615400,10.241615478515625,-0.31084099411964417,0.06671799719333649,0.2092989981174469
1750560177798220000,10.251219970703126,-0.3405599892139435,0.07049199938774109,0.11010300368070602
1750560177807824600,10.26082470703125,-0.24591200053691864,0.10904300212860107,0.028636999428272247
1750560177817429000,10.270428955078126,-0.13268700242042542,0.09199299663305283,-0.014453000389039516
1750560177827033600,10.28003369140625,-0.2271600067615509,0.11969199776649475,0.010689999908208847
1750560177836638200,10.28963818359375,-0.10779599845409393,0.11382400244474411,0.004687000066041946
1750560177846242600,10.29924267578125,0.08225700259208679,0.037018999457359314,-0.010115999728441238
1750560177855847200,10.30884716796875,0.4220150113105774,0.05452299863100052,-0.09491100162267685
1750560177865451800,10.31845166015625,0.46629101037979126,-0.012947999872267246,-0.023907000198960304
1750560177875056400,10.328056396484374,0.32335400581359863,-0.0004149999876972288,0.05805300176143646
1750560177884661000,10.337660888671875,-0.008008000440895557,0.025032000616192818,0.20910300314426422
1750560177894265300,10.347265380859374,-0.368490993976593,-0.0066639999859035015,0.27924200892448425
1750560177903869700,10.35686962890625,-0.46552199125289917,0.032823000103235245,0.07647500187158585
1750560177913474300,10.366474365234374,-0.23167799413204193,0.08566900342702866,-0.15720200538635254
1750560177923079000,10.376078857421875,0.29672300815582275,0.04947799816727638,-0.38280799984931946
1750560177932683500,10.38568359375,0.8086130023002625,0.06441300362348557,-0.428521990776062
1750560177942288100,10.3952880859375,0.941133975982666,0.14683100581169128,-0.16581900417804718
1750560177951892500,10.404892578125,0.7141799926757812,0.22113899886608124,0.0403980016708374
1750560177961496800,10.414496826171876,0.6088640093803406,0.18550799787044525,0.23900100588798523
1750560177971101400,10.424101318359375,0.9834780097007751,0.193340003490448,0.1529809981584549
1750560177980706000,10.4337060546875,0.991936981678009,0.015189999714493752,0.10340800136327744
1750560177990310700,10.443310546875,0.5743899941444397,-0.03652099892497063,0.2233240008354187
1750560177999915000,10.4529150390625,-0.21128599345684052,-0.04129299893975258,0.23420700430870056
1750560178009519600,10.46251953125,-1.2915899753570557,-0.14763300120830536,0.3280250132083893
1750560178019124000,10.4721240234375,-2.1968319416046143,-0.2049739956855774,0.20204100012779236
1750560178028728600,10.481728515625,-2.9669249057769775,-0.18395699560642242,0.16470499336719513
1750560178038333200,10.491333251953124,-3.8929760456085205,-0.21076600253582,0.33280500769615173
1750560178047937500,10.5009375,-4.634550094604492,-0.42987799644470215,0.5706340074539185
1750560178057542100,10.510542236328124,-5.275854110717773,-0.6326720118522644,1.0308640003204346
1750560178067146800,10.520146728515625,-6.269381999969482,-0.8300179839134216,1.6444679498672485
1750560178076751000,10.529751220703124,-8.773386001586914,-1.304097056388855,2.0968849658966064
1750560178086355700,10.539355712890625,-11.679357528686523,-1.717371940612793,1.723518967628479
1750560178095960300,10.548960205078124,-12.108524322509766,-2.708806037902832,0.7117980122566223
1750560178105565000,10.55856494140625,-10.690131187438965,-3.8948960304260254,-1.2298280000686646
1750560178115169300,10.568169189453124,-8.9973726272583,-4.961751937866211,-1.8746529817581177
1750560178124774000,10.57777392578125,-6.592625141143799,-5.7994561195373535,-1.951177954673767
1750560178134378200,10.587378173828125,-3.261054039001465,-6.080169200897217,-1.5007339715957642
1750560178143982800,10.59698291015625,1.1385469436645508,-5.555788993835449,-1.3248679637908936
1750560178153587500,10.60658740234375,6.700448036193848,-3.7525970935821533,-2.2435359954833984
1750560178163192000,10.616192138671876,12.990754127502441,-0.9819329977035522,-3.224721908569336
1750560178172796400,10.62579638671875,17.45972442626953,0.5559599995613098,-3.339988946914673
1750560178182401000,10.635401123046876,17.951656341552734,0.8723919987678528,-2.2101809978485107
1750560178192005600,10.645005615234375,15.029938697814941,0.5362079739570618,-0.568244993686676
1750560178201610200,10.6546103515625,9.523818969726562,-0.12453799694776535,0.8856469988822937
1750560178211214800,10.66421484375,3.3236958980560303,-1.043931007385254,1.8408939838409424
1750560178220819200,10.673819091796876,-1.3655869960784912,-1.3060959577560425,1.9667340517044067
1750560178230423800,10.683423828125,-3.6278491020202637,-0.7878990173339844,1.3812600374221802
1750560178240028400,10.6930283203125,-2.932981014251709,-0.15512700378894806,0.77401202917099
1750560178249632800,10.7026328125,0.4103649854660034,0.5359669923782349,0.28984400629997253
1750560178259237400,10.7122373046875,4.683075904846191,1.1415669918060303,-0.06997500360012054
1750560178268841700,10.721841796875,8.546703338623047,1.3021670579910278,0.42800599336624146
1750560178278446300,10.7314462890625,10.255789756774902,1.2530549764633179,0.9003990292549133
1750560178288051000,10.741051025390625,10.967839241027832,0.7854639887809753,1.488021969795227
1750560178297655000,10.750655029296874,10.11831283569336,0.35625898838043213,1.5385489463806152
1750560178307260000,10.760260009765625,8.152806282043457,-0.41127100586891174,1.8769359588623047
1750560178316864500,10.769864501953125,6.07206392288208,-0.9269620180130005,2.481208086013794
1750560178326469000,10.77946923828125,3.566041946411133,-0.6407240033149719,1.9631199836730957
1750560178336073500,10.789073486328125,2.659359931945801,-0.4685089886188507,1.3611489534378052
1750560178345678000,10.798677978515625,2.446805953979492,-0.271820992231369,0.5869899988174438
1750560178355282400,10.808282470703125,2.828087091445923,-1.4655189514160156,0.08510199934244156
1750560178364887000,10.817886962890626,3.415724039077759,-2.442720890045166,-0.8911970257759094
1750560178374491600,10.82749169921875,1.8649940490722656,-3.6249499320983887,-0.23207099735736847
1750560178384096300,10.83709619140625,-0.9914720058441162,-4.838092803955078,1.422677993774414
1750560178393700600,10.84670068359375,-4.321670055389404,-4.799657821655273,1.9473789930343628
1750560178403305200,10.85630517578125,-7.2626261711120605,-3.6949989795684814,1.743548035621643
1750560178412909800,10.865909912109375,-9.132275581359863,-2.2821290493011475,1.2619249820709229
1750560178422514400,10.875514404296876,-10.473358154296875,-1.1137700080871582,0.668287992477417
1750560178432118800,10.885118896484375,-9.07486629486084,-0.5942090153694153,-0.4037869870662689
1750560178441723100,10.89472314453125,-6.5440168380737305,-0.06391499936580658,-1.7457950115203857
1750560178451327700,10.90432763671875,-4.497186183929443,-0.4408619999885559,-2.3507139682769775
1750560178460932400,10.913932373046874,-4.18894100189209,-0.7420269846916199,-2.6998369693756104
1750560178470537000,10.923536865234375,-4.3249688148498535,-0.5546240210533142,-2.7312099933624268
1750560178480141300,10.933141357421874,-3.8539888858795166,-0.4638949930667877,-1.918647050857544
1750560178489746000,10.942745849609375,-2.3138349056243896,-0.5544779896736145,-0.6115739941596985
1750560178499350500,10.9523505859375,-0.7008190155029297,-0.5783349871635437,0.7711510062217712
1750560178508955100,10.961955078125,0.3367080092430115,-0.1895979940891266,1.159749984741211
1750560178518559500,10.9715595703125,0.48743098974227905,-0.07380100339651108,0.640425980091095
1750560178528164000,10.9811640625,0.5995320081710815,-0.256072998046875,-0.6476770043373108
1750560178537768700,10.990768798828125,0.4695090055465698,-0.10861500352621078,-1.6521450281143188
1750560178547373000,11.000373046875,-0.24561500549316406,-0.1343570053577423,-1.9154930114746094
1750560178556977700,11.009977783203125,-1.2648040056228638,-0.15266099572181702,-1.4385709762573242
1750560178566582300,11.019582275390626,-2.024394989013672,-0.03364599868655205,-0.8837249875068665
1750560178576186600,11.0291865234375,-2.053049087524414,-0.029808999970555305,-0.2831909954547882
1750560178585791200,11.038791259765626,-1.7093420028686523,-0.13691499829292297,0.14795200526714325
1750560178595395800,11.048395751953125,-0.9265289902687073,0.01990799978375435,0.09992200136184692
1750560178605000200,11.058000244140626,-0.31171101331710815,0.25106799602508545,-0.18758800625801086
1750560178614604800,11.067604736328125,0.11455299705266953,0.25093498826026917,-0.4432410001754761
1750560178624209400,11.07720947265625,0.49388301372528076,0.37896299362182617,-0.4518589973449707
1750560178633813800,11.086813720703125,0.508188009262085,0.32170799374580383,-0.10575199872255325
1750560178643418400,11.09641845703125,0.14130899310112,0.256864994764328,0.3042060136795044
1750560178653022700,11.106022705078125,-0.28330400586128235,0.2944389879703522,0.5890880227088928
1750560178662627300,11.11562744140625,-0.6937119960784912,0.33924600481987,0.5845280289649963
1750560178672232000,11.12523193359375,-0.6624090075492859,0.31241700053215027,0.37223899364471436
1750560178681836500,11.13483642578125,-0.6083109974861145,0.2935220003128052,0.17536500096321106
1750560178691441200,11.144441162109375,-0.511601984500885,0.2956719994544983,0.04725399985909462
1750560178701045200,11.154045166015624,-0.6300119757652283,0.2906689941883087,-0.02785399928689003
1750560178710650000,11.163650146484375,-0.4823459982872009,0.2526029944419861,0.03672799840569496
1750560178720254700,11.173254638671875,0.28428998589515686,0.2723020017147064,0.06332399696111679
1750560178729859000,11.182859130859375,1.1144460439682007,0.17331500351428986,0.033868998289108276
1750560178739463700,11.192463623046875,1.385537028312683,0.13759900629520416,-0.15689300000667572
1750560178749068000,11.202068115234376,1.1459590196609497,0.26344600319862366,-0.47015199065208435
1750560178758672600,11.211672607421875,0.47483399510383606,0.25444599986076355,-0.3302859961986542
1750560178768277200,11.22127734375,-0.08193399757146835,0.19392700493335724,0.03769199922680855
1750560178777881600,11.230881591796875,-0.4263190031051636,0.2125220000743866,0.4591889977455139
1750560178787486200,11.240486328125,-0.5112109780311584,0.24821199476718903,0.8039860129356384
1750560178797090800,11.2500908203125,-0.34434300661087036,0.2350820004940033,0.7779859900474548
1750560178806695200,11.259695068359376,-0.02586599998176098,0.24077700078487396,0.4301390051841736
1750560178816299800,11.2692998046875,0.2654300034046173,0.2709349989891052,-0.12928800284862518
1750560178825904400,11.278904296875,0.5702909827232361,0.19127599895000458,-0.45923998951911926
1750560178835508700,11.2885087890625,0.6574360132217407,0.15964999794960022,-0.4250609874725342
1750560178845113300,11.29811328125,0.6325049996376038,0.15091300010681152,-0.26545798778533936
1750560178854718000,11.307718017578125,0.46343499422073364,0.1574459969997406,0.013829000294208527
1750560178864322300,11.317322265625,0.22874599695205688,0.15074099600315094,0.3352470099925995
1750560178873927000,11.326927001953125,-0.19032500684261322,0.16753199696540833,0.5539100170135498
1750560178883531500,11.336531494140624,-0.4677479863166809,0.2039559930562973,0.5124880075454712
1750560178893136100,11.34613623046875,-0.5005339980125427,0.21655499935150146,0.2902970016002655
1750560178902740500,11.355740478515624,-0.544858992099762,0.25609898567199707,-0.03031199984252453
1750560178912345000,11.365344970703125,-0.4798460006713867,0.2424910068511963,-0.2205200046300888
1750560178921949400,11.374949462890624,-0.4487360119819641,0.18501000106334686,-0.18002299964427948
1750560178931554300,11.38455419921875,-0.26108700037002563,0.05427899956703186,-0.17170900106430054
1750560178941158700,11.39415869140625,0.09271000325679779,0.04458199813961983,-0.17241699993610382
1750560178950763000,11.403762939453125,0.4420199990272522,-0.018588999286293983,-0.15372100472450256
1750560178960367600,11.41336767578125,0.5863630175590515,-0.0653420016169548,-0.08154299855232239
1750560178969972000,11.422971923828126,0.4747529923915863,-0.0346749983727932,-0.019857000559568405
1750560178979576800,11.432576904296875,0.26832500100135803,-0.0020779999904334545,-0.09459800273180008
1750560178989181400,11.442181396484376,-0.10387600213289261,-0.0358240008354187,0.05372399836778641
1750560178998785500,11.45178564453125,-0.5813350081443787,-0.05733200162649155,0.1304740011692047
1750560179008390100,11.46139013671875,-0.808646023273468,-0.06844999641180038,-0.056265998631715775
1750560179017994800,11.470994873046875,-0.7273300290107727,-0.09664800018072128,-0.2614629864692688
1750560179027599400,11.480599365234376,-0.3295629918575287,-0.05538899824023247,-0.4041619896888733
1750560179037203700,11.49020361328125,0.16273100674152374,-0.11041700094938278,-0.36368900537490845
1750560179046808300,11.499808349609374,0.3803060054779053,-0.12211500108242035,-0.18665699660778046
1750560179056413000,11.509412841796875,0.43974000215530396,-0.13186900317668915,-0.07648999989032745
1750560179066017300,11.519017333984374,0.33591800928115845,-0.10904300212860107,-0.022540999576449394
1750560179075622000,11.528621826171875,0.165461003780365,-0.13835300505161285,0.06960199773311615
1750560179085226500,11.5382265625,-0.09614799916744232,-0.12374400347471237,0.17315900325775146
1750560179094830800,11.547830810546875,-0.2733210027217865,-0.10117200016975403,0.24282999336719513
1750560179104435500,11.557435546875,-0.3582189977169037,-0.12049300223588943,0.20819200575351715
1750560179114040000,11.5670400390625,-0.25737398862838745,-0.030146000906825066,0.007818999700248241
1750560179123644700,11.576644775390625,-0.01228800043463707,0.029796000570058823,-0.1121710017323494
1750560179133249000,11.5862490234375,0.24390600621700287,-0.02741900086402893,-0.13738100230693817
1750560179142853600,11.595853515625,0.4434239864349365,0.03471599891781807,-0.2416989952325821
1750560179152458200,11.605458251953126,0.3104349970817566,0.021526999771595,-0.2062540054321289
1750560179162062600,11.6150625,0.003722999943420291,0.011983999982476234,0.027527999132871628
1750560179171667200,11.624667236328126,-0.20680999755859375,0.005324000027030706,0.20030300319194794
1750560179181271800,11.634271728515625,-0.21325400471687317,0.02228499948978424,0.13207200169563293
1750560179190876400,11.64387646484375,-0.10724499821662903,0.04998299852013588,0.011713000014424324
1750560179200481000,11.65348095703125,0.015080999583005905,0.05031299963593483,-0.06591399759054184
1750560179210085400,11.66308544921875,0.10740900039672852,0.03580399975180626,-0.03924499824643135
1750560179219690000,11.67268994140625,0.05187699943780899,0.039666999131441116,-0.05513399839401245
1750560179229294600,11.682294677734374,-0.09168499708175659,0.004064000211656094,-0.12313699722290039
1750560179238899000,11.69189892578125,-0.11646199971437454,0.045844998210668564,-0.23379699885845184
1750560179248503300,11.70150341796875,0.010854999534785748,0.12254899740219116,-0.29428601264953613
1750560179258108000,11.71110791015625,0.10504300147294998,0.11284200102090836,-0.23779800534248352
1750560179267712500,11.72071240234375,0.2472810000181198,0.11258400231599808,-0.05550599843263626
1750560179277316900,11.73031689453125,0.1703130006790161,0.04597700014710426,0.1239750012755394
1750560179286921500,11.73992138671875,-0.035923998802900314,0.04065199941396713,0.20221999287605286
1750560179296525800,11.74952587890625,-0.14724700152873993,0.06681499630212784,0.16047699749469757
1750560179306130400,11.75913037109375,-0.1490900069475174,0.06779900193214417,0.08944299817085266
1750560179315735000,11.768735107421875,-0.009755999781191349,0.06288900226354599,0.028404999524354935
1750560179325339400,11.77833935546875,0.17560799419879913,0.0891529992222786,0.023403000086545944
1750560179334944000,11.787944091796875,0.3937860131263733,0.05473500117659569,-0.009480999782681465
1750560179344548600,11.797548583984375,0.6137130260467529,0.06960800290107727,-0.1493159979581833
1750560179354153000,11.807153076171875,0.5934100151062012,0.01787699945271015,-0.1442600041627884
1750560179363757600,11.816757568359375,0.33560800552368164,-0.022964999079704285,-0.07295399904251099
1750560179373362200,11.826362060546876,-0.10083500295877457,-0.04308199882507324,0.017270000651478767
1750560179382966800,11.835966796875,-0.4858410060405731,-0.013674999587237835,0.021580999717116356
1750560179392571400,11.8455712890625,-0.5073429942131042,0.0069610001519322395,0.07936900109052658
1750560179402175700,11.85517578125,-0.3685620129108429,-0.011667000129818916,0.18815800547599792
1750560179411780400,11.8647802734375,-0.08322499692440033,0.03323400020599365,0.14105400443077087
1750560179421384700,11.874384765625,0.15966500341892242,0.04299899935722351,0.042226001620292664
1750560179430989300,11.8839892578125,0.3706279993057251,0.05179600045084953,-0.012632999569177628
1750560179440594000,11.893593994140625,0.528656005859375,0.003986000083386898,-0.07516899704933167
1750560179450198300,11.9031982421875,0.5682669878005981,-0.042569998651742935,-0.20203399658203125
1750560179459803000,11.912802978515625,0.2730329930782318,0.01873200014233589,-0.2684729993343353
1750560179469407500,11.922407470703124,-0.14061999320983887,-0.010053000412881374,-0.13955500721931458
