time,seconds_elapsed,z,y,x
1750560167646249000,0.0992490234375,-0.38142499327659607,-0.34209999442100525,-0.010587500408291817
1750560167655853600,0.108853515625,-0.21889999508857727,0.02199999988079071,-0.011824999935925007
1750560167665458000,0.1184580078125,-0.012374999932944775,0.24433749914169312,-0.002062499988824129
1750560167675062500,0.1280625,0.09267500042915344,0.3433375060558319,-0.030112499371170998
1750560167684667000,0.1376669921875,0.13667500019073486,0.5106750130653381,-0.11935000121593475
1750560167694271500,0.147271484375,0.15496249496936798,0.7537750005722046,-0.29397499561309814
1750560167703876000,0.1568759765625,0.2367749959230423,0.9700624942779541,-0.5102624893188477
1750560167713480400,0.16648046875,0.3345375061035156,1.1178749799728394,-0.5982624888420105
1750560167723084800,0.176084716796875,0.33701249957084656,1.1753499507904053,-0.4503124952316284
1750560167732689400,0.185689453125,0.24172499775886536,0.9101125001907349,-0.17916250228881836
1750560167742293800,0.195293701171875,0.20019999146461487,0.4618625044822693,0.055412501096725464
1750560167751898400,0.2048984375,0.19277499616146088,0.19181250035762787,0.17270000278949738
1750560167761502700,0.214502685546875,0.21119999885559082,0.17833749949932098,0.17393749952316284
1750560167771107300,0.224107421875,0.2820124924182892,0.30057498812675476,0.07864999771118164
1750560167780711700,0.233711669921875,0.36506250500679016,0.4288625121116638,-0.03258749842643738
1750560167790316300,0.24331640625,0.4395875036716461,0.48743748664855957,-0.06187500059604645
1750560167799920600,0.252920654296875,0.5288249850273132,0.43738749623298645,0.015124999918043613
1750560167809525200,0.262525146484375,0.5654000043869019,0.32133749127388,0.08717499673366547
1750560167819129600,0.272129638671875,0.4468750059604645,0.19552500545978546,0.06393750011920929
1750560167828734200,0.281734130859375,0.20624999701976776,0.05128749832510948,-0.0471624992787838
1750560167838338600,0.291338623046875,-0.02213750034570694,-0.11976250261068344,-0.227974995970726
1750560167847943200,0.300943115234375,-0.11261250078678131,-0.23333749175071716,-0.2927374839782715
1750560167857547500,0.310547607421875,-0.01484999991953373,-0.2223374992609024,-0.15111249685287476
1750560167867152000,0.32015185546875,0.1317249983549118,-0.26510000228881836,0.05912499874830246
1750560167876756200,0.329756103515625,0.2624875009059906,-0.29205000400543213,0.2679874897003174
1750560167886360800,0.33936083984375,0.3492499887943268,-0.19786250591278076,0.3632749915122986
1750560167895965400,0.34896533203125,0.35653749108314514,0.018287500366568565,0.3254624903202057
1750560167905569800,0.35856982421875,0.3003000020980835,0.282150000333786,0.20074999332427979
1750560167915174400,0.36817431640625,0.2539624869823456,0.404387503862381,0.03464999794960022
1750560167924778800,0.37777880859375,0.2563000023365021,0.40191251039505005,-0.07768750190734863
1750560167934383400,0.38738330078125,0.30153748393058777,0.25905001163482666,-0.13516250252723694
1750560167943987700,0.39698779296875,0.341825008392334,0.1050499975681305,-0.1621125042438507
1750560167953592300,0.40659228515625,0.32725000381469727,0.05623750016093254,-0.20116250216960907
1750560167963196700,0.41619677734375,0.2502500116825104,0.11852499842643738,-0.20845000445842743
1750560167972801000,0.425801025390625,0.22220000624656677,0.2700499892234802,-0.09968750178813934
1750560167982405600,0.435405517578125,0.2563000023365021,0.3018124997615814,0.0541750006377697
1750560167992010200,0.44501025390625,0.32106250524520874,0.24681249260902405,0.2387000024318695
1750560168001614300,0.4546142578125,0.3455374836921692,0.14300000667572021,0.3657499849796295
1750560168011219200,0.46421923828125,0.31501248478889465,0.11728750169277191,0.40603750944137573
1750560168020823600,0.473823486328125,0.2820124924182892,0.17710000276565552,0.36822500824928284
1750560168030428200,0.48342822265625,0.258774995803833,0.1405249983072281,0.296037495136261
1750560168040032500,0.493032470703125,0.2502500116825104,-0.26138749718666077,0.20941250026226044
1750560168049637000,0.50263720703125,0.1989624947309494,-0.5473874807357788,0.07864999771118164
1750560168059241500,0.512241455078125,0.17201249301433563,-0.6646749973297119,-0.015399999916553497
1750560168068845800,0.521845703125,0.11948750168085098,-0.6439124941825867,-0.0448249988257885
1750560168078450400,0.531450439453125,0.03396249935030937,-0.38843750953674316,-0.04963750019669533
1750560168088055000,0.541054931640625,-0.0002749999985098839,-0.07328750193119049,-0.008112499490380287
1750560168097659400,0.550659423828125,0.02914999984204769,0.11481250077486038,0.050462499260902405
1750560168107263700,0.560263671875,0.08415000140666962,0.17352500557899475,0.057887498289346695
1750560168116868000,0.5698681640625,0.1451999992132187,0.12828749418258667,0.023649999871850014
1750560168126472700,0.57947265625,0.1574375033378601,0.04152499884366989,-0.030112499371170998
1750560168136077300,0.589077392578125,0.10491249710321426,-0.018287500366568565,-0.08139999955892563
1750560168145681700,0.598681640625,0.02419999986886978,-0.04881250113248825,-0.10092499852180481
1750560168155286300,0.608286376953125,-0.07479999959468842,-0.1050499975681305,-0.09487500041723251
1750560168164890600,0.617890625,-0.1480875015258789,-0.18328750133514404,-0.07163749635219574
1750560168174495200,0.6274951171875,-0.18108749389648438,-0.27486249804496765,-0.027637500315904617
1750560168184099600,0.637099609375,-0.18837499618530273,-0.3371500074863434,0.03712499886751175
1750560168193704200,0.6467041015625,-0.1676124930381775,-0.32133749127388,0.06888750195503235
1750560168203308500,0.65630859375,-0.10766249895095825,-0.19676250219345093,0.040699999779462814
1750560168212913200,0.6659130859375,-0.02213750034570694,0.00976249948143959,0.018699999898672104
1750560168222517800,0.675517822265625,0.04138749837875366,0.11852499842643738,0.011412499472498894
1750560168232122000,0.6851220703125,0.10243749618530273,0.11357499659061432,0.006599999964237213
1750560168241726700,0.694726806640625,0.14877499639987946,0.06104999780654907,0.004124999977648258
1750560168251331300,0.704331298828125,0.1634874939918518,-0.010999999940395355,0.004124999977648258
1750560168260935700,0.713935791015625,0.15125000476837158,-0.07081250101327896,0.011412499472498894
1750560168270540300,0.723540283203125,0.11591249704360962,-0.09776250272989273,-0.004399999976158142
1750560168280144600,0.73314453125,0.05719999969005585,-0.09281250089406967,-0.03382499888539314
1750560168289749200,0.742749267578125,-0.006324999965727329,-0.07328750193119049,-0.05939999967813492
1750560168299353600,0.752353515625,-0.052799999713897705,-0.047712501138448715,-0.08139999955892563
1750560168308958000,0.7619580078125,-0.07590000331401825,-0.03671250119805336,-0.10092499852180481
1750560168318562600,0.7715625,-0.07108750194311142,-0.030524998903274536,-0.1106875017285347
1750560168328167000,0.7811669921875,-0.03203750029206276,0.01223750039935112,-0.10092499852180481
1750560168337771300,0.790771240234375,0.009624999947845936,0.06104999780654907,-0.06187500059604645
1750560168347375900,0.8003759765625,0.02419999986886978,0.05004999786615372,-0.03135000169277191
1750560168356980500,0.80998046875,0.05348749831318855,0.045237500220537186,-0.024062499403953552
1750560168366584800,0.819584716796875,0.1036750003695488,0.057475000619888306,-0.03863750025629997
1750560168376189400,0.829189453125,0.12925000488758087,0.05857500061392784,-0.05582499876618385
1750560168385793800,0.838793701171875,0.11824999749660492,0.06228749826550484,-0.05211250111460686
1750560168395398400,0.8483984375,0.06943749636411667,0.07452499866485596,-0.024062499403953552
1750560168405002800,0.858002685546875,0.005912499967962503,0.10752499848604202,0.028599999845027924
1750560168414607400,0.867607421875,-0.025849999859929085,0.08428750187158585,0.07012499868869781
1750560168424211700,0.877211669921875,-0.02708750031888485,-0.0012374999932944775,0.07369999587535858
1750560168433816300,0.88681640625,-0.01732499897480011,-0.0635249987244606,0.04441250115633011
1750560168443420700,0.896420654296875,-0.01484999991953373,-0.057475000619888306,0.0016499999910593033
1750560168453025300,0.906025390625,-0.0038499999791383743,0.0085249999538064,-0.026399999856948853
1750560168462629600,0.915629638671875,0.02419999986886978,0.07699999958276749,-0.03987500071525574
1750560168472234000,0.92523388671875,0.05967500060796738,0.09033749997615814,-0.0471624992787838
1750560168481838600,0.934838623046875,0.09143749624490738,0.05857500061392784,-0.04235000163316727
1750560168491443200,0.944443115234375,0.10491249710321426,0.025712499395012856,-0.03616249933838844
1750560168501047600,0.954047607421875,0.08043749630451202,0.020762499421834946,-0.04839999973773956
1750560168510652200,0.963652099609375,0.03148749843239784,0.07081250101327896,-0.0789249986410141
1750560168520256500,0.973256591796875,-0.030799999833106995,0.1368124932050705,-0.11935000121593475
1750560168529861000,0.982861083984375,-0.07590000331401825,0.1868624985218048,-0.14368750154972076
1750560168539465700,0.9924658203125,-0.08208750188350677,0.18205000460147858,-0.1363999992609024
1750560168549069800,1.00206982421875,-0.06613750010728836,0.11852499842643738,-0.09735000133514404
1750560168558674400,1.01167431640625,-0.04661250114440918,0.04881250113248825,-0.05335000157356262
1750560168568279000,1.021279052734375,-0.02956249937415123,-0.010999999940395355,-0.021587500348687172
1750560168577883400,1.03088330078125,-0.033137500286102295,-0.047712501138448715,-0.009349999949336052
1750560168587487700,1.04048779296875,-0.047849997878074646,-0.05128749832510948,-0.011824999935925007
1750560168597092400,1.05009228515625,-0.04908749833703041,-0.00976249948143959,-0.009349999949336052
1750560168606696700,1.05969677734375,-0.040562499314546585,0.047575000673532486,0.0004124999977648258
1750560168616301300,1.06930126953125,-0.002612499985843897,0.12828749418258667,0.01993750035762787
1750560168625905700,1.07890576171875,0.05238749831914902,0.20157499611377716,0.05169999971985817
1750560168635510300,1.08851025390625,0.08043749630451202,0.24310000240802765,0.09088750183582306
1750560168645115000,1.098114990234375,0.06324999779462814,0.2223374992609024,0.10670000314712524
1750560168654719200,1.10771923828125,0.03519999980926514,0.14176249504089355,0.10188750177621841
1750560168664323800,1.11732373046875,-0.0013749999925494194,0.018287500366568565,0.08346249908208847
1750560168673928200,1.12692822265625,-0.047849997878074646,-0.08181250095367432,0.0541750006377697
1750560168683532500,1.136532470703125,-0.08208750188350677,-0.11976250261068344,0.035887498408555984
1750560168693137400,1.146137451171875,-0.08689999580383301,-0.13433749973773956,0.045649997889995575
1750560168702741800,1.15574169921875,-0.0625625029206276,-0.11233749985694885,0.07246249914169312
1750560168712346000,1.16534619140625,-0.008799999952316284,-0.047712501138448715,0.08470000326633453
1750560168721950700,1.17495068359375,0.05348749831318855,0.015812499448657036,0.07369999587535858
1750560168731555300,1.184555419921875,0.08648750185966492,0.06476250290870667,0.045649997889995575
1750560168741159400,1.194159423828125,0.09748750180006027,0.09033749997615814,0.0028874999843537807
1750560168750764000,1.203763916015625,0.10724999755620956,0.08428750187158585,-0.030112499371170998
1750560168760368600,1.21336865234375,0.0999625027179718,0.02681249938905239,-0.04592499881982803
1750560168769973000,1.222972900390625,0.08043749630451202,-0.054999999701976776,-0.03863750025629997
1750560168779577600,1.23257763671875,0.05843750014901161,-0.09776250272989273,-0.025162499397993088
1750560168789182200,1.24218212890625,0.03148749843239784,-0.06847500056028366,-0.022824998944997787
1750560168798786600,1.25178662109375,0.007149999961256981,0.042762499302625656,-0.05458749830722809
1750560168808391200,1.26139111328125,-0.010037500411272049,0.17352500557899475,-0.12292499840259552
1750560168817995500,1.27099560546875,-0.02708750031888485,0.26510000228881836,-0.18039999902248383
1750560168827600100,1.28060009765625,-0.035612501204013824,0.2626250088214874,-0.20116250216960907
1750560168837204500,1.29020458984375,-0.018562499433755875,0.1685750037431717,-0.16692499816417694
1750560168846809000,1.29980908203125,0.022962499409914017,0.03423750028014183,-0.08387500047683716
1750560168856413700,1.30941357421875,0.05348749831318855,-0.07452499866485596,0.012649999931454659
1750560168866018000,1.31901806640625,0.04867500066757202,-0.13323749601840973,0.0859375
1750560168875622700,1.32862255859375,0.021724998950958252,-0.16981250047683716,0.1311749964952469
1750560168885227000,1.33822705078125,-0.0002749999985098839,-0.2003374993801117,0.1531749963760376
1750560168894831400,1.347831298828125,-0.01732499897480011,-0.210099995136261,0.14217500388622284
1750560168904435700,1.357435791015625,-0.040562499314546585,-0.19676250219345093,0.09693749994039536
1750560168914040300,1.367040283203125,-0.06379999965429306,-0.15399999916553497,0.04688749834895134
1750560168923645000,1.37664501953125,-0.07590000331401825,-0.0672374963760376,0.010174999944865704
1750560168933249500,1.38624951171875,-0.07232499867677689,0.03904999792575836,-0.020349999889731407
1750560168942854000,1.39585400390625,-0.03932499885559082,0.10752499848604202,-0.04592499881982803
1750560168952458500,1.40545849609375,0.0034374999813735485,0.10999999940395355,-0.07163749635219574
1750560168962062800,1.415062744140625,0.02667500078678131,0.04881250113248825,-0.0826374962925911
1750560168971667200,1.424667236328125,0.0193875003606081,-0.02199999988079071,-0.03863750025629997
1750560168981272000,1.43427197265625,0.002199999988079071,-0.09404999762773514,0.03946249932050705
1750560168990876400,1.44387646484375,-0.0038499999791383743,-0.12828749418258667,0.11893749982118607
1750560169000481000,1.45348095703125,-0.012374999932944775,-0.09652499854564667,0.15565000474452972
1750560169010085400,1.46308544921875,-0.01732499897480011,-0.047712501138448715,0.12870000302791595
1750560169019690000,1.47268994140625,-0.006324999965727329,-0.006049999967217445,0.07246249914169312
1750560169029294600,1.482294677734375,0.005912499967962503,0.035475000739097595,0.006599999964237213
1750560169038899000,1.49189892578125,0.008387500420212746,0.05128749832510948,-0.05458749830722809
1750560169048503000,1.5015029296875,0.011962499469518661,0.03423750028014183,-0.07768750190734863
1750560169058107600,1.511107666015625,0.014437500387430191,-0.0037124999798834324,-0.0728750005364418
1750560169067712300,1.520712158203125,0.018149999901652336,-0.03671250119805336,-0.05211250111460686
1750560169077316600,1.530316650390625,0.020487500354647636,-0.042762499302625656,-0.03382499888539314
1750560169086921200,1.539921142578125,0.013199999928474426,-0.045237500220537186,-0.027637500315904617
1750560169096525800,1.54952587890625,0.005912499967962503,-0.03671250119805336,-0.011824999935925007
1750560169106130200,1.559130126953125,0.014437500387430191,-0.010999999940395355,0.01993750035762787
1750560169115734800,1.56873486328125,0.025437500327825546,-0.015949999913573265,0.043175000697374344
1750560169125339100,1.578339111328125,0.03519999980926514,-0.02447500079870224,0.050462499260902405
1750560169134943700,1.58794384765625,0.05348749831318855,-0.01347499992698431,0.035887498408555984
1750560169144548000,1.597548095703125,0.05843750014901161,0.00976249948143959,-0.002062499988824129
1750560169154152700,1.607152587890625,0.04867500066757202,0.04647500067949295,-0.04235000163316727
1750560169163757300,1.61675732421875,0.03148749843239784,0.057475000619888306,-0.06063750013709068
1750560169173362000,1.62636181640625,0.0193875003606081,0.05004999786615372,-0.0471624992787838
1750560169182966300,1.63596630859375,0.010724999941885471,0.04881250113248825,-0.019112499430775642
1750560169192570600,1.645570556640625,0.010724999941885471,0.05857500061392784,0.004124999977648258
1750560169202175200,1.65517529296875,0.021724998950958252,0.07081250101327896,0.007699999958276749
1750560169211779600,1.664779541015625,0.0364375002682209,0.07081250101327896,-0.013062499463558197
1750560169221384200,1.67438427734375,0.040150001645088196,0.05623750016093254,-0.04592499881982803
1750560169230988800,1.68398876953125,0.027912499383091927,0.03423750028014183,-0.06063750013709068
1750560169240593200,1.69359326171875,0.008387500420212746,-0.006049999967217445,-0.0471624992787838
1750560169250197500,1.703197509765625,-0.013612499460577965,-0.04399999976158142,-0.009349999949336052
1750560169259802000,1.712802001953125,-0.02708750031888485,-0.05623750016093254,0.021175000816583633
1750560169269406700,1.72240673828125,-0.028324998915195465,-0.042762499302625656,0.02488750033080578
1750560169279011000,1.732010986328125,-0.012374999932944775,-0.02447500079870224,0.008937500417232513
1750560169288615700,1.74161572265625,0.004674999974668026,-0.018287500366568565,-0.011824999935925007
1750560169298220000,1.751219970703125,0.0009624999947845936,-0.018287500366568565,-0.019112499430775642
1750560169307824600,1.76082470703125,-0.016087500378489494,-0.03904999792575836,-0.011824999935925007
1750560169317429000,1.770428955078125,-0.030799999833106995,-0.05871250107884407,0.008937500417232513
1750560169327033600,1.78003369140625,-0.035612501204013824,-0.04028749838471413,0.02488750033080578
1750560169336638200,1.78963818359375,-0.025849999859929085,0.0170499999076128,0.015124999918043613
1750560169346242600,1.79924267578125,-0.012374999932944775,0.09776250272989273,-0.021587500348687172
1750560169355847200,1.80884716796875,-0.011274999938905239,0.15757499635219574,-0.07768750190734863
1750560169365451500,1.818451416015625,-0.025849999859929085,0.18328750133514404,-0.1266375035047531
1750560169375056100,1.82805615234375,-0.045375000685453415,0.17586250603199005,-0.15111249685287476
1750560169384660500,1.837660400390625,-0.057612501084804535,0.13557499647140503,-0.14011250436306
1750560169394265000,1.84726513671875,-0.052799999713897705,0.06847500056028366,-0.09735000133514404
1750560169403869400,1.856869384765625,-0.02956249937415123,0.006049999967217445,-0.03863750025629997
1750560169413473800,1.866473876953125,0.004674999974668026,-0.01952499896287918,0.011412499472498894
1750560169423078400,1.876078369140625,0.027912499383091927,-0.020762499421834946,0.03217500075697899
1750560169432683000,1.88568310546875,0.02667500078678131,0.007287499960511923,0.035887498408555984
1750560169442287400,1.895287353515625,0.009624999947845936,0.05623750016093254,0.03341250121593475
1750560169451892000,1.90489208984375,-0.011274999938905239,0.06599999964237213,0.02969999983906746
1750560169461496600,1.91449658203125,-0.01484999991953373,0.04152499884366989,0.045649997889995575
1750560169471101000,1.924100830078125,-0.002612499985843897,0.0085249999538064,0.07864999771118164
1750560169480705500,1.93370556640625,0.013199999928474426,-0.0317624993622303,0.10422500222921371
1750560169490310000,1.943309814453125,0.02419999986886978,-0.047712501138448715,0.113987497985363
1750560169499914500,1.95291455078125,0.021724998950958252,-0.04881250113248825,0.10064999759197235
1750560169509519000,1.96251904296875,0.008387500420212746,-0.047712501138448715,0.07493750005960464
1750560169519123500,1.97212353515625,0.005912499967962503,-0.057475000619888306,0.06641250103712082
1750560169528728000,1.98172802734375,0.01691249944269657,-0.07081250101327896,0.08112499862909317
1750560169538332700,1.991332763671875,0.014437500387430191,-0.05623750016093254,0.08470000326633453
1750560169547937000,2.00093701171875,0.007149999961256981,0.010999999940395355,0.06393750011920929
1750560169557541600,2.010541748046875,0.004674999974668026,0.07823749631643295,0.01993750035762787
1750560169567146000,2.02014599609375,0.004674999974668026,0.1050499975681305,-0.03863750025629997
1750560169576750600,2.02975048828125,0.009624999947845936,0.09281250089406967,-0.07411249727010727
1750560169586355000,2.03935498046875,0.013199999928474426,0.05376249924302101,-0.06792499870061874
1750560169595959600,2.04895947265625,-0.0002749999985098839,-0.015949999913573265,-0.03382499888539314
1750560169605564200,2.058564208984375,-0.01484999991953373,-0.07699999958276749,0.018699999898672104
1750560169615168500,2.06816845703125,-0.018562499433755875,-0.08799999952316284,0.07246249914169312
1750560169624772900,2.07777294921875,-0.02461249940097332,-0.054999999701976776,0.10312499850988388
1750560169634377500,2.08737744140625,-0.02956249937415123,0.002474999986588955,0.10422500222921371
1750560169643982000,2.096982177734375,-0.02461249940097332,0.045237500220537186,0.08470000326633453
1750560169653586400,2.10658642578125,-0.010037500411272049,0.06599999964237213,0.05664999783039093
1750560169663190800,2.116190673828125,0.002199999988079071,0.05252499878406525,0.018699999898672104
1750560169672795400,2.12579541015625,0.0009624999947845936,0.00494999997317791,-0.013062499463558197
1750560169682400000,2.13539990234375,-0.011274999938905239,-0.042762499302625656,-0.021587500348687172
1750560169692004400,2.14500439453125,-0.03203750029206276,-0.0635249987244606,-0.014162499457597733
1750560169701609000,2.15460888671875,-0.045375000685453415,-0.04399999976158142,0.0004124999977648258
1750560169711213600,2.164213623046875,-0.05156249925494194,-0.002474999986588955,0.008937500417232513
1750560169720818200,2.173818115234375,-0.05637500062584877,0.03671250119805336,-0.002062499988824129
1750560169730422500,2.183422607421875,-0.047849997878074646,0.06104999780654907,-0.019112499430775642
1750560169740027100,2.193027099609375,-0.02213750034570694,0.06228749826550484,-0.028875000774860382
1750560169749631500,2.202631591796875,0.0034374999813735485,0.042762499302625656,-0.025162499397993088
1750560169759236000,2.212236083984375,0.022962499409914017,0.030524998903274536,-0.015399999916553497
1750560169768840400,2.22184033203125,0.027912499383091927,0.02681249938905239,-0.020349999889731407
1750560169778445000,2.231445068359375,0.01691249944269657,0.02447500079870224,-0.03135000169277191
1750560169788049700,2.241049560546875,-0.013612499460577965,0.01952499896287918,-0.03863750025629997
1750560169797654000,2.250654052734375,-0.03684999793767929,-0.01347499992698431,-0.030112499371170998
1750560169807258600,2.260258544921875,-0.03203750029206276,-0.05252499878406525,0.012649999931454659
1750560169816863200,2.26986328125,-0.018562499433755875,-0.07452499866485596,0.06393750011920929
1750560169826467600,2.279467529296875,0.002199999988079071,-0.06599999964237213,0.10188750177621841
1750560169836072000,2.289072021484375,0.014437500387430191,-0.04647500067949295,0.09088750183582306
1750560169845676500,2.298676513671875,0.013199999928474426,-0.02199999988079071,0.050462499260902405
1750560169855281000,2.308281005859375,0.005912499967962503,0,0.008937500417232513
1750560169864885500,2.317885498046875,0.0009624999947845936,-0.002474999986588955,-0.022824998944997787
1750560169874490000,2.327489990234375,0.0034374999813735485,-0.030524998903274536,-0.03492499887943268
1750560169884094500,2.337094482421875,0.007149999961256981,-0.057475000619888306,-0.022824998944997787
1750560169893698800,2.34669873046875,0.002199999988079071,-0.05871250107884407,0.0016499999910593033
1750560169903303400,2.356303466796875,-0.008799999952316284,-0.05004999786615372,0.018699999898672104
1750560169912908000,2.365907958984375,-0.013612499460577965,-0.0317624993622303,0.02736249938607216
1750560169922512600,2.3755126953125,-0.005087499972432852,-0.01347499992698431,0.023649999871850014
1750560169932117000,2.385116943359375,0.009624999947845936,0.0037124999798834324,0.016362499445676804
1750560169941721600,2.3947216796875,0.022962499409914017,0.006049999967217445,0.018699999898672104
1750560169951326000,2.404325927734375,0.02914999984204769,-0.002474999986588955,0.03217500075697899
1750560169960930600,2.4139306640625,0.02914999984204769,-0.01952499896287918,0.040699999779462814
1750560169970535200,2.42353515625,0.02419999986886978,-0.03671250119805336,0.03712499886751175
1750560169980139500,2.433139404296875,0.01691249944269657,-0.05252499878406525,0.018699999898672104
1750560169989744000,2.442744140625,0.010724999941885471,-0.08181250095367432,-0.017875000834465027
1750560169999348700,2.4523486328125,0.008387500420212746,-0.10876250267028809,-0.05582499876618385
1750560170008953000,2.461953125,0.005912499967962503,-0.09776250272989273,-0.0728750005364418
1750560170018557400,2.471557373046875,-0.0013749999925494194,-0.05128749832510948,-0.06558749824762344
1750560170028162000,2.481162109375,0.0034374999813735485,-0.0012374999932944775,-0.03492499887943268
1750560170037766700,2.4907666015625,0.02419999986886978,0.032999999821186066,0.006599999964237213
1750560170047371000,2.50037109375,0.04496249929070473,0.04399999976158142,0.035887498408555984
1750560170056975600,2.5099755859375,0.05967500060796738,0.02199999988079071,0.0541750006377697
1750560170066580000,2.519580078125,0.07067500054836273,-0.020762499421834946,0.06517499685287476
1750560170076184300,2.529184326171875,0.0719124972820282,-0.054999999701976776,0.07136250287294388
1750560170085789000,2.538788818359375,0.05115000158548355,-0.08057499676942825,0.06888750195503235
1750560170095393500,2.5483935546875,0.02419999986886978,-0.08428750187158585,0.07369999587535858
1750560170104998100,2.557998046875,0.0009624999947845936,-0.08304999768733978,0.09088750183582306
1750560170114602500,2.5676025390625,-0.006324999965727329,-0.08799999952316284,0.11769999563694
1750560170124207000,2.57720703125,0.011962499469518661,-0.05004999786615372,0.12622499465942383
1750560170133811500,2.5868115234375,0.037675000727176666,0.0170499999076128,0.08112499862909317
1750560170143416000,2.596416015625,0.05115000158548355,0.07576250284910202,0.007699999958276749
1750560170153020700,2.606020751953125,0.04496249929070473,0.10752499848604202,-0.05582499876618385
1750560170162625000,2.615625,0.027912499383091927,0.09776250272989273,-0.0826374962925911
1750560170172229600,2.625229736328125,0.014437500387430191,0.054999999701976776,-0.06187500059604645
1750560170181834200,2.634834228515625,0.010724999941885471,-0.0012374999932944775,-0.009349999949336052
1750560170191438600,2.6444384765625,0.007149999961256981,-0.04647500067949295,0.040699999779462814
1750560170201043200,2.654043212890625,-0.0002749999985098839,-0.054999999701976776,0.05912499874830246
1750560170210647800,2.663647705078125,-0.006324999965727329,-0.025712499395012856,0.04441250115633011
1750560170220252200,2.673252197265625,-0.006324999965727329,0.00976249948143959,0.01759999990463257
1750560170229856800,2.682856689453125,0.009624999947845936,0.023237500339746475,0.005362499970942736
1750560170239461400,2.69246142578125,0.02667500078678131,0.007287499960511923,0.02241249941289425
1750560170249065700,2.702065673828125,0.03148749843239784,-0.01952499896287918,0.05912499874830246
1750560170258670000,2.711670166015625,0.027912499383091927,-0.03904999792575836,0.09212499856948853
1750560170268274700,2.721274658203125,0.01691249944269657,-0.03904999792575836,0.09569999575614929
1750560170277879000,2.730879150390625,0.0009624999947845936,-0.018287500366568565,0.055412501096725464
1750560170287483600,2.740483642578125,-0.01484999991953373,0.01952499896287918,-0.004399999976158142
1750560170297088000,2.750087890625,-0.021037500351667404,0.04152499884366989,-0.0471624992787838
1750560170306692600,2.759692626953125,-0.011274999938905239,0.0317624993622303,-0.04592499881982803
1750560170316297200,2.769297119140625,0.011962499469518661,0.0012374999932944775,-0.0031624999828636646
1750560170325901600,2.778901611328125,0.03148749843239784,-0.025712499395012856,0.055412501096725464
1750560170335506200,2.788506103515625,0.037675000727176666,-0.035475000739097595,0.11041250079870224
1750560170345110800,2.79811083984375,0.03272499889135361,-0.04152499884366989,0.13241249322891235
1750560170354715100,2.807715087890625,0.02667500078678131,-0.03671250119805336,0.12017499655485153
1750560170364319700,2.81731982421875,0.025437500327825546,-0.02199999988079071,0.0859375
1750560170373924000,2.826924072265625,0.018149999901652336,-0.01223750039935112,0.038362499326467514
1750560170383528700,2.83652880859375,0.004674999974668026,0.01223750039935112,-0.013062499463558197
1750560170393133300,2.84613330078125,-0.0038499999791383743,0.037812501192092896,-0.06063750013709068
1750560170402737700,2.855737548828125,-0.007562499959021807,0.06599999964237213,-0.08868750184774399
1750560170412342300,2.86534228515625,0.004674999974668026,0.07699999958276749,-0.08992499858140945
1750560170421947000,2.87494677734375,0.030387500301003456,0.06599999964237213,-0.06311249732971191
1750560170431551200,2.88455126953125,0.04743750020861626,0.04152499884366989,-0.014162499457597733
1750560170441155800,2.89415576171875,0.05843750014901161,0.01952499896287918,0.03712499886751175
1750560170450760200,2.90376025390625,0.062150001525878906,-0.0012374999932944775,0.07493750005960464
1750560170460364800,2.91336474609375,0.05115000158548355,-0.0147124994546175,0.07864999771118164
1750560170469969400,2.922969482421875,0.02914999984204769,-0.01347499992698431,0.04936249926686287
1750560170479573800,2.93257373046875,0.007149999961256981,-0.002474999986588955,0.015124999918043613
1750560170489178400,2.942178466796875,-0.0002749999985098839,0.0147124994546175,-0.006874999962747097
1750560170498782700,2.95178271484375,-0.0013749999925494194,0.03423750028014183,-0.014162499457597733
1750560170508387000,2.961386962890625,0.0034374999813735485,0.05128749832510948,-0.009349999949336052
1750560170517991700,2.97099169921875,0.002199999988079071,0.06104999780654907,-0.002062499988824129
1750560170527596500,2.980596435546875,-0.005087499972432852,0.05376249924302101,-0.002062499988824129
1750560170537201000,2.990200927734375,-0.013612499460577965,0.03904999792575836,-0.010587500408291817
1750560170546805200,2.99980517578125,-0.025849999859929085,0.025712499395012856,-0.026399999856948853
1750560170556409900,3.009409912109375,-0.02956249937415123,0.030524998903274536,-0.03135000169277191
1750560170566014500,3.019014404296875,-0.023375000804662704,0.03671250119805336,-0.025162499397993088
1750560170575618800,3.028618896484375,-0.006324999965727329,0.015812499448657036,-0.010587500408291817
1750560170585223400,3.038223388671875,0.013199999928474426,-0.020762499421834946,0.006599999964237213
1750560170594827800,3.047827880859375,0.018149999901652336,-0.05004999786615372,0.007699999958276749
1750560170604432400,3.057432373046875,0.009624999947845936,-0.059812501072883606,-0.0056374999694526196
1750560170614037000,3.067037109375,-0.0013749999925494194,-0.0672374963760376,-0.024062499403953552
1750560170623641300,3.076641357421875,-0.0038499999791383743,-0.07204999774694443,-0.03492499887943268
1750560170633246000,3.086245849609375,0.004674999974668026,-0.05128749832510948,-0.03382499888539314
1750560170642850600,3.0958505859375,0.013199999928474426,-0.0037124999798834324,-0.03863750025629997
1750560170652455200,3.105455078125,0.018149999901652336,0.05857500061392784,-0.05335000157356262
1750560170662059500,3.1150595703125,0.027912499383091927,0.08676250278949738,-0.06792499870061874
1750560170671664000,3.1246640625,0.03148749843239784,0.07081250101327896,-0.07411249727010727
1750560170681268500,3.1342685546875,0.03519999980926514,0.02199999988079071,-0.05816249921917915
1750560170690873000,3.143873046875,0.02667500078678131,-0.030524998903274536,-0.03258749842643738
1750560170700477700,3.153477783203125,0.013199999928474426,-0.057475000619888306,-0.004399999976158142
1750560170710082300,3.163082275390625,0.0034374999813735485,-0.059812501072883606,0.021175000816583633
1750560170719686700,3.172686767578125,0.0009624999947845936,-0.05623750016093254,0.038362499326467514
1750560170729291300,3.182291259765625,-0.0013749999925494194,-0.047712501138448715,0.04441250115633011
1750560170738896000,3.191895751953125,-0.0038499999791383743,-0.042762499302625656,0.03464999794960022
1750560170748500000,3.2015,-0.0002749999985098839,0.00494999997317791,0.01759999990463257
1750560170758104600,3.2111044921875,0.009624999947845936,0.057475000619888306,-0.014162499457597733
1750560170767709200,3.220709228515625,0.01691249944269657,0.08304999768733978,-0.05211250111460686
1750560170777313800,3.230313720703125,0.0193875003606081,0.08304999768733978,-0.08016250282526016
1750560170786918100,3.239918212890625,0.01691249944269657,0.05376249924302101,-0.08139999955892563
1750560170796522500,3.2495224609375,0.014437500387430191,0.0085249999538064,-0.05335000157356262
1750560170806127000,3.259127197265625,0.011962499469518661,-0.04152499884366989,-0.0056374999694526196
1750560170815731700,3.268731689453125,0.008387500420212746,-0.08552499860525131,0.040699999779462814
1750560170825336000,3.278336181640625,0.015675000846385956,-0.1013374999165535,0.07136250287294388
1750560170834940700,3.287940673828125,0.027912499383091927,-0.09281250089406967,0.07617499679327011
1750560170844545000,3.297544921875,0.03148749843239784,-0.0672374963760376,0.06270000338554382
1750560170854149600,3.307149658203125,0.03148749843239784,-0.028049999848008156,0.03946249932050705
1750560170863754200,3.316754150390625,0.021724998950958252,0.01223750039935112,0.005362499970942736
1750560170873358800,3.32635888671875,0.013199999928474426,0.04399999976158142,-0.03382499888539314
1750560170882963200,3.335963134765625,0.005912499967962503,0.054999999701976776,-0.05692499876022339
1750560170892567800,3.34556787109375,0.0009624999947845936,0.042762499302625656,-0.05211250111460686
1750560170902172400,3.35517236328125,0.004674999974668026,0.01347499992698431,-0.015399999916553497
1750560170911776800,3.36477685546875,0.009624999947845936,-0.032999999821186066,0.03341250121593475
1750560170921381400,3.37438134765625,0.0193875003606081,-0.06847500056028366,0.08112499862909317
1750560170930986000,3.383986083984375,0.02667500078678131,-0.07328750193119049,0.10546249896287918
1750560170940590300,3.39359033203125,0.0193875003606081,-0.05871250107884407,0.10064999759197235
1750560170950195000,3.40319482421875,0.008387500420212746,-0.04399999976158142,0.082225002348423
1750560170959799600,3.412799560546875,-0.005087499972432852,-0.02199999988079071,0.045649997889995575
1750560170969404200,3.422404052734375,-0.008799999952316284,0.01223750039935112,0.004124999977648258
1750560170979008300,3.43200830078125,-0.005087499972432852,0.04647500067949295,-0.027637500315904617
1750560170988612900,3.44161279296875,0.004674999974668026,0.06104999780654907,-0.04235000163316727
1750560170998217200,3.45121728515625,0.018149999901652336,0.05376249924302101,-0.03739999979734421
1750560171007821800,3.46082177734375,0.02667500078678131,0.03904999792575836,-0.021587500348687172
1750560171017426200,3.47042626953125,0.025437500327825546,0.020762499421834946,-0.0008249999955296516
1750560171027030800,3.48003076171875,0.014437500387430191,-0.0012374999932944775,0.015124999918043613
1750560171036635400,3.489635498046875,0.005912499967962503,-0.01952499896287918,0.02241249941289425
1750560171046239700,3.49923974609375,-0.002612499985843897,-0.030524998903274536,0.013887500390410423
1750560171055844400,3.50884423828125,-0.008799999952316284,-0.025712499395012856,0.015124999918043613
1750560171065449000,3.518448974609375,-0.011274999938905239,-0.007287499960511923,0.026124998927116394
1750560171075053300,3.52805322265625,-0.01732499897480011,0.01347499992698431,0.023649999871850014
1750560171084658000,3.537657958984375,-0.012374999932944775,0.028049999848008156,0.007699999958276749
1750560171094262500,3.547262451171875,-0.002612499985843897,0.04152499884366989,-0.011824999935925007
1750560171103867100,3.5568671875,0.0009624999947845936,0.04881250113248825,-0.025162499397993088
1750560171113471500,3.566471435546875,0.008387500420212746,0.047575000673532486,-0.015399999916553497
1750560171123076000,3.576076171875,0.014437500387430191,0.030524998903274536,0.012649999931454659
1750560171132680400,3.585680419921875,0.01691249944269657,0.00976249948143959,0.05169999971985817
1750560171142285000,3.59528515625,0.018149999901652336,-0.006049999967217445,0.07864999771118164
1750560171151889700,3.6048896484375,0.013199999928474426,-0.018287500366568565,0.0798875018954277
1750560171161494000,3.614493896484375,0.015675000846385956,-0.015949999913573265,0.06270000338554382
1750560171171098600,3.6240986328125,0.025437500327825546,-0.01952499896287918,0.03464999794960022
1750560171180703200,3.633703125,0.03519999980926514,-0.02447500079870224,0.004124999977648258
1750560171190307600,3.6433076171875,0.040150001645088196,-0.0037124999798834324,-0.006874999962747097
1750560171199912000,3.652911865234375,0.02914999984204769,0.0170499999076128,-0.004399999976158142
1750560171209516800,3.662516845703125,0.015675000846385956,0.0147124994546175,-0.0008249999955296516
1750560171219121200,3.67212109375,0.015675000846385956,0.0170499999076128,0.015124999918043613
1750560171228725500,3.6817255859375,0.018149999901652336,0.02199999988079071,0.028599999845027924
1750560171238330000,3.691330078125,0.014437500387430191,0.023237500339746475,0.035887498408555984
1750560171247934500,3.7009345703125,0.008387500420212746,0.01952499896287918,0.03464999794960022
1750560171257539000,3.7105390625,-0.0002749999985098839,0.0037124999798834324,0.03217500075697899
1750560171267143700,3.720143798828125,-0.002612499985843897,-0.01223750039935112,0.04193750023841858
1750560171276748000,3.729748046875,-0.0038499999791383743,-0.037812501192092896,0.045649997889995575
1750560171286352600,3.7393525390625,0.002199999988079071,-0.04028749838471413,0.040699999779462814
1750560171295957200,3.748957275390625,0.011962499469518661,-0.018287500366568565,0.02241249941289425
1750560171305561900,3.758561767578125,0.009624999947845936,0.01223750039935112,-0.008112499490380287
1750560171315166200,3.768166259765625,0.007149999961256981,0.02928750030696392,-0.03616249933838844
1750560171324770800,3.777770751953125,0.008387500420212746,0.032999999821186066,-0.05087500065565109
1750560171334375400,3.78737548828125,0.015675000846385956,0.0317624993622303,-0.04358749836683273
1750560171343979800,3.796979736328125,0.02419999986886978,0.028049999848008156,-0.019112499430775642
1750560171353584400,3.80658447265625,0.03148749843239784,0.032999999821186066,0.015124999918043613
1750560171363189000,3.81618896484375,0.02419999986886978,0.02447500079870224,0.03217500075697899
1750560171372793300,3.82579345703125,0.004674999974668026,0.0012374999932944775,0.03217500075697899
1750560171382398000,3.83539794921875,-0.013612499460577965,-0.025712499395012856,0.02736249938607216
1750560171392002600,3.84500244140625,-0.02213750034570694,-0.042762499302625656,0.01759999990463257
1750560171401607000,3.85460693359375,-0.01484999991953373,-0.04647500067949295,0.008937500417232513
1750560171411211500,3.86421142578125,-0.005087499972432852,-0.030524998903274536,0.011412499472498894
1750560171420816100,3.873816162109375,0.004674999974668026,0.0037124999798834324,0.016362499445676804
1750560171430420700,3.883420654296875,0.015675000846385956,0.04881250113248825,0.01993750035762787
1750560171440025000,3.893025146484375,0.020487500354647636,0.06228749826550484,0.008937500417232513
1750560171449629700,3.902629638671875,0.020487500354647636,0.05004999786615372,-0.009349999949336052
1750560171459234000,3.912234130859375,0.011962499469518661,0.02199999988079071,-0.030112499371170998
1750560171468838700,3.921838623046875,-0.008799999952316284,-0.01223750039935112,-0.03492499887943268
1750560171478443300,3.931443359375,-0.02708750031888485,-0.02928750030696392,-0.011824999935925007
1750560171488047400,3.94104736328125,-0.033137500286102295,-0.04647500067949295,0.012649999931454659
1750560171497652000,3.95065185546875,-0.028324998915195465,-0.032999999821186066,0.02969999983906746
1750560171507256600,3.960256591796875,-0.01484999991953373,-0.002474999986588955,0.02241249941289425
1750560171516861000,3.96986083984375,-0.0002749999985098839,0.03423750028014183,-0.011824999935925007
1750560171526465500,3.979465576171875,0.013199999928474426,0.06476250290870667,-0.05582499876618385
1750560171536070100,3.989070068359375,0.015675000846385956,0.07081250101327896,-0.08016250282526016
1750560171545674500,3.998674560546875,0.018149999901652336,0.047575000673532486,-0.06063750013709068
1750560171555279000,4.008279052734375,0.0193875003606081,0.006049999967217445,-0.009349999949336052
1750560171564883700,4.0178837890625,0.021724998950958252,-0.035475000739097595,0.05664999783039093
1750560171574488000,4.027488037109375,0.02419999986886978,-0.06476250290870667,0.09693749994039536
1750560171584092700,4.0370927734375,0.020487500354647636,-0.05871250107884407,0.0859375
1750560171593697300,4.046697265625,0.008387500420212746,-0.02928750030696392,0.035887498408555984
1750560171603302000,4.056302001953125,-0.008799999952316284,0.006049999967217445,-0.009349999949336052
1750560171612906200,4.06590625,-0.01979999989271164,0.023237500339746475,-0.026399999856948853
1750560171622510800,4.0755107421875,-0.01732499897480011,0.01347499992698431,-0.016637500375509262
1750560171632115500,4.085115478515625,-0.002612499985843897,0.00976249948143959,0.005362499970942736
1750560171641719800,4.0947197265625,0.010724999941885471,0.0085249999538064,0.012649999931454659
1750560171651324400,4.104324462890625,0.011962499469518661,0.01952499896287918,0.004124999977648258
1750560171660929000,4.113928955078125,0.0034374999813735485,0.030524998903274536,-0.009349999949336052
1750560171670533400,4.123533447265625,-0.013612499460577965,0.020762499421834946,-0.006874999962747097
1750560171680138000,4.133137939453125,-0.018562499433755875,-0.0085249999538064,0.02488750033080578
1750560171689742600,4.14274267578125,-0.013612499460577965,-0.059812501072883606,0.045649997889995575
1750560171699347200,4.15234716796875,-0.002612499985843897,-0.07452499866485596,0.045649997889995575
1750560171708951600,4.16195166015625,0.004674999974668026,-0.05128749832510948,0.021175000816583633
1750560171718556000,4.171555908203125,-0.007562499959021807,0,0.0016499999910593033
1750560171728160500,4.181160400390625,-0.021037500351667404,0.02928750030696392,-0.011824999935925007
1750560171737764900,4.190764892578125,-0.028324998915195465,0.002474999986588955,-0.011824999935925007
1750560171747369500,4.200369384765625,-0.018562499433755875,-0.020762499421834946,0.02969999983906746
1750560171756973800,4.209973876953125,-0.008799999952316284,-0.03423750028014183,0.082225002348423
1750560171766578700,4.21957861328125,0.0034374999813735485,-0.028049999848008156,0.11893749982118607
1750560171776183000,4.22918310546875,0.02914999984204769,-0.02447500079870224,0.11646249890327454
1750560171785787400,4.238787353515625,0.04372499883174896,-0.028049999848008156,0.08841250091791153
1750560171795392000,4.24839208984375,0.04743750020861626,-0.028049999848008156,0.06393750011920929
1750560171804996600,4.25799658203125,0.0364375002682209,-0.042762499302625656,0.038362499326467514
1750560171814601000,4.26760107421875,0.015675000846385956,-0.059812501072883606,0.02241249941289425
1750560171824205600,4.27720556640625,-0.0013749999925494194,-0.04152499884366989,0.013887500390410423
1750560171833810200,4.28681005859375,-0.01484999991953373,0.0085249999538064,-0.006874999962747097
1750560171843414800,4.296414794921875,-0.013612499460577965,0.0695749968290329,-0.026399999856948853
1750560171853019100,4.30601904296875,0.0009624999947845936,0.09281250089406967,-0.03863750025629997
1750560171862623700,4.315623779296875,0.01691249944269657,0.07699999958276749,-0.025162499397993088
1750560171872228000,4.32522802734375,0.020487500354647636,0.0085249999538064,0.010174999944865704
1750560171881832700,4.334832763671875,0.021724998950958252,-0.07699999958276749,0.06888750195503235
1750560171891437300,4.344437255859375,0.01691249944269657,-0.13557499647140503,0.14093749225139618
1750560171901042000,4.3540419921875,0.004674999974668026,-0.1722874939441681,0.21422499418258667
1750560171910646500,4.363646484375,-0.0002749999985098839,-0.18576249480247498,0.29122498631477356
1750560171920251000,4.3732509765625,-0.007562499959021807,-0.20886249840259552,0.3669874966144562
1750560171929855500,4.38285546875,-0.028324998915195465,-0.22852499783039093,0.45003750920295715
1750560171939460000,4.392460205078125,-0.035612501204013824,-0.29686251282691956,0.5075125098228455
1750560171949064400,4.402064453125,-0.038087498396635056,-0.35186249017715454,0.5880874991416931
1750560171958669000,4.4116689453125,-0.0625625029206276,-0.3983374834060669,0.7028999924659729
1750560171968273400,4.4212734375,-0.09184999763965607,-0.4422000050544739,0.8556625247001648
1750560171977878000,4.4308779296875,-0.11261250078678131,-0.38609999418258667,1.0718125104904175
1750560171987482600,4.440482666015625,-0.1541374921798706,-0.3445749878883362,1.3040499687194824
1750560171997087000,4.4500869140625,-0.1993750035762787,-0.2480500042438507,1.5031499862670898
1750560172006691600,4.459691650390625,-0.2213750034570694,-0.11604999750852585,1.5789124965667725
1750560172016296000,4.4692958984375,-0.20061250030994415,0.04399999976158142,1.5202000141143799
1750560172025900500,4.478900634765625,-0.19689999520778656,0.2578125,1.362625002861023
1750560172035505200,4.488505126953125,-0.19689999520778656,0.4899125099182129,1.1158125400543213
1750560172045109500,4.498109619140625,-0.21642500162124634,0.7012500166893005,0.74566251039505
1750560172054714000,4.507714111328125,-0.26413750648498535,0.8258249759674072,0.21793749928474426
1750560172064318500,4.517318359375,-0.34718748927116394,0.9077749848365784,-0.4197874963283539
1750560172073923000,4.526923095703125,-0.4254249930381775,0.9065374732017517,-1.0111750364303589
1750560172083527700,4.536527587890625,-0.4852375090122223,0.5363875031471252,-1.4888499975204468
1750560172093132000,4.546132080078125,-0.5964750051498413,-0.18205000460147858,-1.9750499725341797
1750560172102736600,4.555736572265625,-0.7723374962806702,-0.8905875086784363,-2.645775079727173
1750560172112341200,4.56534130859375,-0.8285750150680542,-1.1423499584197998,-3.537600040435791
1750560172121945600,4.574945556640625,-0.677049994468689,-0.8833000063896179,-4.664000034332275
1750560172131550200,4.58455029296875,-0.31913748383522034,-0.35186249017715454,-5.849112510681152
1750560172141154800,4.59415478515625,0.05843750014901161,-0.14533749222755432,-6.976749897003174
1750560172150759400,4.603759521484375,0.3797749876976013,-0.26028749346733093,-7.989574909210205
1750560172160363800,4.61336376953125,0.6448749899864197,-0.6524375081062317,-8.815400123596191
1750560172169968400,4.622968505859375,0.8892124891281128,-1.385450005531311,-9.191737174987793
1750560172179573000,4.632572998046875,1.2740750312805176,-1.9327000379562378,-8.646824836730957
1750560172189177600,4.642177490234375,1.5794625282287598,-1.8154125213623047,-6.999987602233887
1750560172198782000,4.651781982421875,1.4816999435424805,-0.9933000206947327,-4.4686126708984375
1750560172208386600,4.661386474609375,1.0810250043869019,-0.06228749826550484,-1.7417124509811401
1750560172217991000,4.670990966796875,0.5226374864578247,0.10381250083446503,0.47203749418258667
1750560172227595500,4.680595458984375,0.025437500327825546,-0.5571500062942505,1.9441125392913818
1750560172237200000,4.690199951171875,-0.33371248841285706,-1.527074933052063,2.6588375568389893
1750560172246804500,4.699804443359375,-0.5120499730110168,-2.1905124187469482,2.654025077819824
1750560172256409000,4.7094091796875,-0.43642500042915344,-2.1697499752044678,2.082162380218506
1750560172266013400,4.719013427734375,-0.22384999692440033,-1.4355000257492065,1.2355749607086182
1750560172275618000,4.7286181640625,-0.021037500351667404,-0.3078624904155731,0.44756248593330383
1750560172285222700,4.73822265625,0.10119999945163727,0.681725025177002,0.03464999794960022
1750560172294827000,4.747826904296875,0.1451999992132187,1.3756874799728394,0.13722500205039978
1750560172304431600,4.757431640625,0.1695374995470047,1.6065499782562256,0.5856124758720398
1750560172314036000,4.767035888671875,0.15125000476837158,1.3352625370025635,1.1378124952316284
1750560172323640600,4.776640625,0.0644875019788742,0.7037249803543091,1.611912488937378
1750560172333245200,4.7862451171875,-0.10889999568462372,-0.010999999940395355,1.9478249549865723
1750560172342849500,4.795849609375,-0.31418749690055847,-0.4923875033855438,2.184875011444092
1750560172352454100,4.8054541015625,-0.5340499877929688,-0.8185374736785889,2.3082125186920166
1750560172362058800,4.815058837890625,-0.7625749707221985,-0.8332499861717224,2.4047374725341797
1750560172371663400,4.824663330078125,-0.877387523651123,-0.5704874992370605,2.4670250415802
1750560172381267700,4.834267822265625,-0.8541499972343445,-0.20652499794960022,2.4804999828338623
1750560172390872300,4.843872314453125,-0.7088124752044678,0.23457500338554382,2.4817373752593994
1750560172400477000,4.853476806640625,-0.5035250186920166,0.6646749973297119,2.478024959564209
1750560172410081300,4.863081298828125,-0.31913748383522034,1.1031625270843506,2.5000250339508057
1750560172419686000,4.872685791015625,-0.15537500381469727,1.351212501525879,2.542787551879883
1750560172429290500,4.88229052734375,0.013199999928474426,1.1141624450683594,2.508549928665161
1750560172438895000,4.89189501953125,0.13901250064373016,0.4496249854564667,2.294874906539917
1750560172448499500,4.90149951171875,0.14643749594688416,-0.2358125001192093,1.8647749423980713
1750560172458104000,4.91110400390625,0.04372499883174896,-0.6157249808311462,1.3271499872207642
1750560172467708400,4.92070849609375,-0.06984999775886536,-0.5999125242233276,0.9374749660491943
1750560172477313000,4.93031298828125,-0.13708749413490295,-0.22962500154972076,0.9436625242233276
1750560172486917600,4.939917724609375,-0.08332499861717224,0.3188624978065491,1.362625002861023
1750560172496522000,4.94952197265625,0.07548750191926956,0.742775022983551,1.8097749948501587
1750560172506126600,4.959126708984375,0.32477501034736633,0.6755374670028687,2.000349998474121
1750560172515731200,4.968731201171875,0.49211248755455017,0.19910000264644623,1.791487455368042
1750560172525335800,4.978335693359375,0.4151124954223633,-0.31033748388290405,1.3028124570846558
1750560172534940200,4.987940185546875,0.16472500562667847,-0.5912500023841858,0.7713750004768372
1750560172544544500,4.99754443359375,-0.08937499672174454,-0.598675012588501,0.3315125107765198
1750560172554149000,5.007149169921875,-0.2433750033378601,-0.4386250078678131,0.08841250091791153
1750560172563753700,5.016753662109375,-0.27390000224113464,-0.09404999762773514,0.113987497985363
1750560172573358300,5.0263583984375,-0.17366249859333038,0.24310000240802765,0.25575000047683716
1750560172582963000,5.035962890625,0.020487500354647636,0.46543750166893005,0.3485625088214874
1750560172592567300,5.0455673828125,0.22824999690055847,0.4422000050544739,0.3375625014305115
1750560172602172000,5.055171875,0.30524998903274536,0.22357499599456787,0.16898749768733978
1750560172611776300,5.0647763671875,0.23925000429153442,0.057475000619888306,-0.06187500059604645
1750560172621380900,5.074380859375,0.12072499841451645,-0.05871250107884407,-0.25244998931884766
1750560172630985200,5.083985107421875,0.0364375002682209,-0.14300000667572021,-0.3172124922275543
1750560172640590000,5.093590087890625,0.03519999980926514,-0.16733749210834503,-0.20363749563694
1750560172650194400,5.1031943359375,0.06943749636411667,-0.11728750169277191,0.005362499970942736
1750560172659798800,5.112798828125,0.12691250443458557,-0.045237500220537186,0.14464999735355377
1750560172669403400,5.1224033203125,0.1732500046491623,0.025712499395012856,0.12388750165700912
1750560172679008000,5.132008056640625,0.15496249496936798,0.12828749418258667,-0.024062499403953552
1750560172688612600,5.141612548828125,0.07796250283718109,0.24681249260902405,-0.2194499969482422
1750560172698217000,5.151217041015625,0.005912499967962503,0.29686251282691956,-0.3587374985218048
1750560172707821600,5.160821533203125,-0.021037500351667404,0.2480500042438507,-0.3782624900341034
1750560172717426000,5.170426025390625,-0.010037500411272049,0.1368124932050705,-0.2952125072479248
1750560172727030500,5.180030517578125,0.04619999974966049,0.0695749968290329,-0.16087499260902405
1750560172736635100,5.18963525390625,0.10724999755620956,0.10023749619722366,-0.05458749830722809
1750560172746239700,5.19923974609375,0.13901250064373016,0.18933749198913574,-0.0056374999694526196
1750560172755844000,5.208843994140625,0.1451999992132187,0.22728750109672546,-0.002062499988824129
1750560172765448700,5.21844873046875,0.1097249984741211,0.20281249284744263,-0.022824998944997787
1750560172775053300,5.22805322265625,0.022962499409914017,0.14781250059604645,-0.03616249933838844
1750560172784657700,5.23765771484375,-0.07590000331401825,0.05623750016093254,-0.03258749842643738
1750560172794262300,5.24726220703125,-0.1480875015258789,-0.0147124994546175,-0.011824999935925007
1750560172803867000,5.256866943359375,-0.15537500381469727,-0.05252499878406525,0.0016499999910593033
1750560172813471200,5.26647119140625,-0.11756250262260437,-0.02928750030696392,-0.008112499490380287
1750560172823075800,5.276075927734375,-0.0625625029206276,0.06228749826550484,-0.0411125011742115
1750560172832680400,5.285680419921875,-0.013612499460577965,0.15152500569820404,-0.08868750184774399
1750560172842285000,5.29528515625,-0.0013749999925494194,0.19181250035762787,-0.14011250436306
1750560172851889400,5.304889404296875,-0.006324999965727329,0.20528750121593475,-0.16692499816417694
1750560172861494000,5.314493896484375,-0.018562499433755875,0.18933749198913574,-0.1681624948978424
1750560172871098600,5.3240986328125,-0.028324998915195465,0.1625249981880188,-0.1303499937057495
1750560172880703200,5.333703125,-0.038087498396635056,0.11976250261068344,-0.08868750184774399
1750560172890307600,5.3433076171875,-0.052799999713897705,0.08304999768733978,-0.07411249727010727
1750560172899912000,5.352911865234375,-0.0625625029206276,0.045237500220537186,-0.07768750190734863
1750560172909516500,5.3625166015625,-0.052799999713897705,-0.0037124999798834324,-0.08016250282526016
1750560172919121000,5.372120849609375,-0.02956249937415123,-0.054999999701976776,-0.07768750190734863
1750560172928725500,5.3817255859375,-0.005087499972432852,-0.09404999762773514,-0.05335000157356262
1750560172938330000,5.391330078125,0.025437500327825546,-0.09652499854564667,0.012649999931454659
1750560172947934500,5.4009345703125,0.05238749831914902,-0.06599999964237213,0.10422500222921371
1750560172957539000,5.4105390625,0.062150001525878906,-0.025712499395012856,0.15441249310970306
1750560172967143700,5.420143798828125,0.05967500060796738,0.0317624993622303,0.12870000302791595
1750560172976748000,5.429748046875,0.04867500066757202,0.06476250290870667,0.057887498289346695
1750560172986352600,5.4393525390625,0.027912499383091927,0.05857500061392784,-0.006874999962747097
1750560172995957200,5.448957275390625,0.002199999988079071,0.032999999821186066,-0.027637500315904617
1750560173005561900,5.458561767578125,-0.018562499433755875,-0.002474999986588955,-0.0056374999694526196
1750560173015166200,5.468166259765625,-0.025849999859929085,-0.02199999988079071,0.023649999871850014
1750560173024770800,5.477770751953125,-0.011274999938905239,0.007287499960511923,0.03946249932050705
1750560173034375200,5.487375244140625,0.008387500420212746,0.05252499878406525,0.026124998927116394
1750560173043979800,5.496979736328125,0.0193875003606081,0.1368124932050705,0.008937500417232513
1750560173053584400,5.50658447265625,0.027912499383091927,0.2003374993801117,-0.010587500408291817
1750560173063188700,5.516188720703125,0.02914999984204769,0.18809999525547028,-0.026399999856948853
1750560173072793300,5.52579345703125,0.02419999986886978,0.09776250272989273,-0.03258749842643738
1750560173082398000,5.53539794921875,0.009624999947845936,-0.00976249948143959,-0.028875000774860382
1750560173092002300,5.545002197265625,-0.011274999938905239,-0.07081250101327896,-0.020349999889731407
1750560173101606700,5.554606689453125,-0.02213750034570694,-0.09157499670982361,-0.011824999935925007
1750560173111211300,5.564211181640625,-0.016087500378489494,-0.057475000619888306,-0.0008249999955296516
1750560173120816000,5.573816162109375,-0.007562499959021807,-0.00494999997317791,-0.002062499988824129
1750560173130420700,5.583420654296875,0.010724999941885471,0.04028749838471413,-0.002062499988824129
1750560173140025300,5.593025390625,0.03148749843239784,0.07452499866485596,0.005362499970942736
1750560173149629400,5.60262939453125,0.04619999974966049,0.08304999768733978,0.018699999898672104
1750560173159234000,5.612234130859375,0.05238749831914902,0.0635249987244606,0.01993750035762787
1750560173168838700,5.621838623046875,0.04372499883174896,0.01347499992698431,-0.021587500348687172
1750560173178443300,5.631443359375,0.0193875003606081,-0.030524998903274536,-0.06311249732971191
1750560173188047600,5.641047607421875,-0.018562499433755875,-0.0695749968290329,-0.07411249727010727
1750560173197652000,5.65065185546875,-0.030799999833106995,-0.1050499975681305,-0.026399999856948853
1750560173207256600,5.660256591796875,-0.01979999989271164,-0.10257499665021896,0.06393750011920929
1750560173216861200,5.669861083984375,-0.0002749999985098839,-0.07328750193119049,0.13598750531673431
1750560173226466000,5.679466064453125,0.020487500354647636,-0.02681249938905239,0.14588749408721924
1750560173236070400,5.6890703125,0.02667500078678131,0.035475000739097595,0.07493750005960464
1750560173245674800,5.6986748046875,0.025437500327825546,0.08923749625682831,-0.026399999856948853
1750560173255279400,5.708279296875,0.021724998950958252,0.10876250267028809,-0.09735000133514404
1750560173264884000,5.717884033203125,0.018149999901652336,0.08181250095367432,-0.1046374961733818
1750560173274488300,5.72748828125,0.004674999974668026,0.04647500067949295,-0.06435000151395798
1750560173284093000,5.737093017578125,-0.007562499959021807,0.02199999988079071,-0.0056374999694526196
1750560173293697300,5.746697265625,-0.02213750034570694,0.01223750039935112,0.04193750023841858
1750560173303302000,5.756302001953125,-0.023375000804662704,0.010999999940395355,0.05664999783039093
1750560173312906500,5.765906494140625,-0.005087499972432852,0.030524998903274536,0.040699999779462814
1750560173322510800,5.7755107421875,0.027912499383091927,0.047575000673532486,0.021175000816583633
1750560173332115500,5.785115478515625,0.05115000158548355,0.05252499878406525,0.0004124999977648258
1750560173341720000,5.794719970703125,0.04867500066757202,0.02447500079870224,-0.019112499430775642
1750560173351324700,5.80432470703125,0.027912499383091927,-0.0170499999076128,-0.0411125011742115
1750560173360929300,5.81392919921875,0.004674999974668026,-0.03904999792575836,-0.0471624992787838
1750560173370533600,5.82353369140625,-0.012374999932944775,-0.030524998903274536,-0.03863750025629997
1750560173380138200,5.83313818359375,-0.011274999938905239,0,-0.017875000834465027
1750560173389742800,5.842742919921875,-0.0002749999985098839,0.030524998903274536,-0.013062499463558197
1750560173399347500,5.852347412109375,0.005912499967962503,0.05857500061392784,-0.03258749842643738
1750560173408951800,5.861951904296875,-0.002612499985843897,0.08676250278949738,-0.03258749842643738
1750560173418556400,5.871556396484375,-0.012374999932944775,0.07328750193119049,-0.014162499457597733
1750560173428160800,5.881160888671875,-0.0038499999791383743,0.02199999988079071,0.018699999898672104
1750560173437765000,5.89076513671875,0.01691249944269657,-0.030524998903274536,0.06517499685287476
1750560173447370000,5.900369873046875,0.02667500078678131,-0.05623750016093254,0.089649997651577
1750560173456974300,5.909974365234375,0.0193875003606081,-0.035475000739097595,0.07493750005960464
1750560173466579000,5.919578857421875,-0.0013749999925494194,0.020762499421834946,0.01759999990463257
1750560173476183300,5.929183349609375,-0.033137500286102295,0.07699999958276749,-0.05939999967813492
1750560173485787600,5.93878759765625,-0.050324998795986176,0.0952875018119812,-0.11687500029802322
1750560173495392300,5.948392333984375,-0.050324998795986176,0.07823749631643295,-0.12292499840259552
1750560173504996900,5.957996826171875,-0.030799999833106995,0.047575000673532486,-0.06916250288486481
1750560173514601500,5.9676015625,-0.005087499972432852,0.002474999986588955,0.011412499472498894
1750560173524205800,5.977205810546875,0.013199999928474426,-0.0170499999076128,0.07493750005960464
1750560173533810400,5.986810546875,0.025437500327825546,0.002474999986588955,0.09322500228881836
1750560173543415000,5.9964150390625,0.021724998950958252,0.05004999786615372,0.06270000338554382
1750560173553019600,6.00601953125,0.0193875003606081,0.0989999994635582,0.012649999931454659
1750560173562624000,6.0156240234375,0.020487500354647636,0.11357499659061432,-0.024062499403953552
1750560173572228600,6.025228515625,0.008387500420212746,0.07452499866485596,-0.03616249933838844
1750560173581833200,6.034833251953125,-0.0013749999925494194,0.02447500079870224,-0.015399999916553497
1750560173591437600,6.0444375,-0.01484999991953373,-0.02681249938905239,0.005362499970942736
1750560173601042200,6.054042236328125,-0.040562499314546585,-0.057475000619888306,-0.0008249999955296516
1750560173610646800,6.063646728515625,-0.05884999781847,-0.04152499884366989,-0.028875000774860382
1750560173620251100,6.073251220703125,-0.06613750010728836,-0.0037124999798834324,-0.05458749830722809
1750560173629855700,6.082855712890625,-0.05389999970793724,0.0170499999076128,-0.03616249933838844
1750560173639460400,6.09246044921875,-0.033137500286102295,0.02199999988079071,0.01759999990463257
1750560173649064700,6.102064697265625,-0.0038499999791383743,0.03904999792575836,0.09212499856948853
1750560173658669300,6.11166943359375,0.013199999928474426,0.05252499878406525,0.15070000290870667
1750560173668274000,6.12127392578125,0.013199999928474426,0.06104999780654907,0.15798750519752502
1750560173677878500,6.13087841796875,0.002199999988079071,0.02681249938905239,0.1116499975323677
1750560173687483000,6.14048291015625,-0.02213750034570694,-0.02681249938905239,0.035887498408555984
1750560173697087500,6.15008740234375,-0.04179999977350235,-0.05623750016093254,-0.025162499397993088
1750560173706692000,6.159692138671875,-0.05156249925494194,-0.05376249924302101,-0.05211250111460686
1750560173725901000,6.178901123046875,-0.0038499999791383743,0.042762499302625656,-0.03492499887943268
1750560173735505700,6.188505615234375,0.02667500078678131,0.10023749619722366,-0.022824998944997787
1750560173745110000,6.198110107421875,0.04496249929070473,0.14904999732971191,-0.014162499457597733
1750560173754714600,6.207714599609375,0.03519999980926514,0.17586250603199005,-0.019112499430775642
1750560173764319200,6.2173193359375,0.014437500387430191,0.1551000028848648,-0.021587500348687172
1750560173773923800,6.226923828125,-0.0002749999985098839,0.07947500050067902,-0.019112499430775642
1750560173783528400,6.236528564453125,-0.012374999932944775,-0.00976249948143959,-0.014162499457597733
1750560173793132800,6.2461328125,-0.02461249940097332,-0.07699999958276749,-0.002062499988824129
1750560173802737400,6.2557373046875,-0.03203750029206276,-0.09281250089406967,0.015124999918043613
1750560173812341800,6.265341796875,-0.035612501204013824,-0.045237500220537186,0.04441250115633011
1750560173821946400,6.2749462890625,-0.023375000804662704,0.0085249999538064,0.07136250287294388
1750560173831551000,6.284551025390625,0.007149999961256981,0.03423750028014183,0.09817499667406082
1750560173841155600,6.294155517578125,0.04619999974966049,0.03671250119805336,0.11522500216960907
1750560173850760200,6.30376025390625,0.07067500054836273,0.04152499884366989,0.1214125007390976
1750560173860364500,6.313364501953125,0.05967500060796738,0.03904999792575836,0.10422500222921371
1750560173869969200,6.32296923828125,0.01691249944269657,-0.0012374999932944775,0.07136250287294388
1750560173879573800,6.33257373046875,-0.01732499897480011,-0.04399999976158142,0.060362499207258224
1750560173889178000,6.34217822265625,-0.040562499314546585,-0.07204999774694443,0.07369999587535858
1750560173908387300,6.36138720703125,-0.05389999970793724,0.01952499896287918,0.14588749408721924
1750560173917991700,6.37099169921875,-0.02461249940097332,0.05004999786615372,0.21793749928474426
1750560173927596000,6.380595947265625,0.007149999961256981,0.04647500067949295,0.32670000195503235
1750560173937200600,6.39020068359375,0.0009624999947845936,0.015812499448657036,0.42432498931884766
1750560173946805200,6.39980517578125,-0.06132499873638153,-0.007287499960511923,0.48551249504089355
1750560173956409900,6.409409912109375,-0.14313749969005585,-0.01223750039935112,0.5013250112533569
1750560173966014200,6.41901416015625,-0.22013749182224274,-0.007287499960511923,0.4768500030040741
1750560173975618600,6.42861865234375,-0.2666124999523163,0.08181250095367432,0.43656250834465027
1750560173985223200,6.43822314453125,-0.281187504529953,0.2540999948978424,0.3889875113964081
1750560173994827800,6.447827880859375,-0.27390000224113464,0.476437509059906,0.3217499852180481
1750560174004432400,6.457432373046875,-0.24818749725818634,0.6927250027656555,0.19841249287128448
1750560174014037000,6.467037109375,-0.24089999496936798,0.8197749853134155,-0.002062499988824129
1750560174023641300,6.476641357421875,-0.28847500681877136,0.8845375180244446,-0.28049999475479126
1750560174033246000,6.486245849609375,-0.3630000054836273,0.9297749996185303,-0.6055499911308289
1750560174042850300,6.495850341796875,-0.466949999332428,0.9297749996185303,-0.9464125037193298
1750560174052455000,6.505454833984375,-0.5902875065803528,0.8673499822616577,-1.3508000373840332
1750560174062059500,6.5150595703125,-0.7808625102043152,0.6914874911308289,-1.8919999599456787
1750560174071664000,6.5246640625,-1.01419997215271,0.40562498569488525,-2.62996244430542
1750560174081268500,6.5342685546875,-1.1694375276565552,0.24928750097751617,-3.449737548828125
1750560174090873000,6.543873046875,-1.1204874515533447,0.33233749866485596,-4.219325065612793
1750560174100477400,6.5534775390625,-0.9250999689102173,0.3653374910354614,-4.907237529754639
1750560174110082000,6.56308203125,-0.7308124899864197,0.07699999958276749,-5.546062469482422
1750560174119686700,6.572686767578125,-0.602524995803833,-0.4641999900341034,-6.132500171661377
1750560174129291300,6.582291259765625,-0.5927624702453613,-0.9933000206947327,-6.589412689208984
1750560174138895600,6.5918955078125,-0.6562874913215637,-1.6615500450134277,-6.808175086975098
1750560174148500000,6.6015,-0.6830999851226807,-2.61442494392395,-6.665174961090088
1750560174158104600,6.6111044921875,-0.43642500042915344,-3.1886250972747803,-5.757537364959717
1750560174167709000,6.620708984375,-0.20184999704360962,-2.828237533569336,-3.917649984359741
1750560174177313500,6.6303134765625,-0.10656250268220901,-1.8496500253677368,-1.6219500303268433
1750560174186918100,6.639918212890625,-0.0038499999791383743,-1.0396374464035034,0.2827000021934509
1750560174196522800,6.649522705078125,0.11701250076293945,-0.7367249727249146,1.467674970626831
1750560174206127000,6.659127197265625,0.18672500550746918,-0.7660124897956848,2.126162528991699
1750560174215731700,6.668731689453125,0.3394874930381775,-0.8967750072479248,2.353450059890747
1750560174225336300,6.67833642578125,0.5068249702453613,-0.9615374803543091,2.0700623989105225
1750560174234941000,6.68794091796875,0.6033499836921692,-0.808775007724762,1.3333375453948975
1750560174244545300,6.697545166015625,0.6461125016212463,-0.35062500834465027,0.3950375020503998
1750560174254150000,6.70714990234375,0.6301624774932861,0.2675749957561493,-0.3587374985218048
1750560174263754200,6.716754150390625,0.5543999671936035,0.7525374889373779,-0.595787525177002
1750560174273358800,6.72635888671875,0.42858749628067017,0.9015874862670898,-0.24392500519752502
1750560174282963500,6.73596337890625,0.29301249980926514,0.8405374884605408,0.606374979019165
1750560174292568000,6.745568115234375,0.10243749618530273,0.5619624853134155,1.5861999988555908
1750560174302172400,6.75517236328125,-0.11384999752044678,0.2540999948978424,2.3619749546051025
1750560174311777000,6.764777099609375,-0.2213750034570694,0.18809999525547028,2.8274123668670654
1750560174321381600,6.774381591796875,-0.20418749749660492,0.41167500615119934,3.033937454223633
1750560174330986200,6.783986328125,-0.12484999746084213,0.7207750082015991,3.0816500186920166
1750560174340590600,6.793590576171875,-0.010037500411272049,0.7917249798774719,3.010699987411499
1750560174350195200,6.8031953125,0.08648750185966492,0.5779125094413757,2.910599946975708
1750560174359799800,6.8127998046875,0.05719999969005585,0.3469125032424927,2.886125087738037
1750560174369404400,6.822404296875,-0.02708750031888485,0.40191251039505005,3.063225030899048
1750560174379008800,6.8320087890625,-0.045375000685453415,0.5106750130653381,3.391849994659424
1750560174388613400,6.84161328125,-0.021037500351667404,0.5571500062942505,3.7156624794006348
1750560174398217700,6.8512177734375,-0.008799999952316284,0.5974375009536743,3.7364249229431152
1750560174407822300,6.860822265625,-0.018562499433755875,0.4311999976634979,3.333275079727173
1750560174417426700,6.8704267578125,-0.03932499885559082,-0.04399999976158142,2.6503124237060547
1750560174427031300,6.88003125,-0.05156249925494194,-0.6022499799728394,1.9062999486923218
1750560174436636000,6.889635986328125,-0.08689999580383301,-0.7990124821662903,1.2685749530792236
1750560174446240500,6.899240478515625,-0.12484999746084213,-0.5827249884605408,0.7493749856948853
1750560174455845000,6.90884521484375,-0.16637499630451202,-0.210099995136261,0.32903748750686646
1750560174465449500,6.918449462890625,-0.1358499974012375,0.2186249941587448,0.10917499661445618
1750560174475053800,6.9280537109375,-0.05637500062584877,0.47286251187324524,0.07369999587535858
1750560174484658400,6.937658447265625,0.0424874983727932,0.5216749906539917,0.1434125006198883
1750560174494263000,6.947262939453125,0.11219999939203262,0.35186249017715454,0.1531749963760376
1750560174503867400,6.956867431640625,0.10119999945163727,0.07081250101327896,0.038362499326467514
1750560174513472000,6.966471923828125,0.04372499883174896,-0.13557499647140503,-0.1424500048160553
1750560174523076600,6.97607666015625,-0.013612499460577965,-0.2223374992609024,-0.3539249897003174
1750560174532681200,6.98568115234375,-0.023375000804662704,-0.2186249941587448,-0.5237374901771545
1750560174542285600,6.99528564453125,-0.0038499999791383743,-0.2003374993801117,-0.5725499987602234
1750560174551890200,7.00489013671875,0.04496249929070473,-0.06847500056028366,-0.390500009059906
1750560174561494800,7.014494873046875,0.09267500042915344,0.09404999762773514,-0.07039999961853027
1750560174571099100,7.02409912109375,0.11948750168085098,0.17104999721050262,0.1849374920129776
1750560174580703700,7.033703857421875,0.13667500019073486,0.1625249981880188,0.2484624981880188
1750560174590308400,7.043308349609375,0.13667500019073486,0.08181250095367432,0.15674999356269836
1750560174599912700,7.05291259765625,0.1060125008225441,-0.01347499992698431,0.0004124999977648258
1750560174609517300,7.062517333984375,0.08291249722242355,-0.08181250095367432,-0.1143999993801117
1750560174619122000,7.072121826171875,0.08524999767541885,-0.12457499653100967,-0.12787500023841858
1750560174628726300,7.081726318359375,0.08167500048875809,-0.15633749961853027,-0.07039999961853027
1750560174638331000,7.091330810546875,0.07919999957084656,-0.09776250272989273,0.0028874999843537807
1750560174647935500,7.100935546875,0.09267500042915344,-0.007287499960511923,0.028599999845027924
1750560174657540000,7.1105400390625,0.1060125008225441,0.037812501192092896,-0.016637500375509262
1750560174667144700,7.120144775390625,0.0999625027179718,0.04028749838471413,-0.09968750178813934
1750560174676749000,7.1297490234375,0.07548750191926956,0.0317624993622303,-0.16321249306201935
1750560174686353700,7.139353759765625,0.0681999996304512,0.032999999821186066,-0.16568750143051147
1750560174695958300,7.148958251953125,0.07315000146627426,-0.0085249999538064,-0.11935000121593475
1750560174705562400,7.158562255859375,0.09143749624490738,-0.04881250113248825,-0.04963750019669533
1750560174715167000,7.1681669921875,0.11343749612569809,-0.04028749838471413,-0.002062499988824129
1750560174724771600,7.177771484375,0.11701250076293945,0.03423750028014183,0.01759999990463257
1750560174734376200,7.187376220703125,0.10119999945163727,0.11976250261068344,0.012649999931454659
1750560174743980500,7.19698046875,0.06324999779462814,0.16733749210834503,-0.008112499490380287
1750560174753585200,7.206585205078125,0.02914999984204769,0.12581250071525574,-0.021587500348687172
1750560174763189500,7.216189453125,0.015675000846385956,-0.00494999997317791,-0.008112499490380287
1750560174772794000,7.225794189453125,0.011962499469518661,-0.13805000483989716,0.035887498408555984
1750560174782398700,7.235398681640625,0.007149999961256981,-0.18205000460147858,0.10188750177621841
1750560174792003000,7.245003173828125,-0.0013749999925494194,-0.17104999721050262,0.14464999735355377
1750560174801607700,7.254607666015625,-0.0002749999985098839,-0.13199999928474426,0.14822499454021454
1750560174811212300,7.26421240234375,0.008387500420212746,-0.04881250113248825,0.10670000314712524
1750560174820817000,7.27381689453125,0.015675000846385956,0.03904999792575836,0.03217500075697899
1750560174830421500,7.28342138671875,0.011962499469518661,0.11976250261068344,-0.030112499371170998
1750560174840025900,7.29302587890625,0.005912499967962503,0.1307625025510788,-0.05939999967813492
1750560174849630500,7.30263037109375,0.011962499469518661,0.09404999762773514,-0.0448249988257885
1750560174859235000,7.312235107421875,0.018149999901652336,0.002474999986588955,-0.004399999976158142
1750560174868839400,7.32183935546875,0.013199999928474426,-0.045237500220537186,0.038362499326467514
1750560174878444000,7.331444091796875,0.009624999947845936,-0.035475000739097595,0.057887498289346695
1750560174888048600,7.341048583984375,0.013199999928474426,-0.0170499999076128,0.05169999971985817
1750560174897653000,7.350653076171875,0.030387500301003456,0.00494999997317791,0.04936249926686287
1750560174907257600,7.360257568359375,0.03519999980926514,0.028049999848008156,0.048124998807907104
1750560174916862200,7.3698623046875,0.03396249935030937,0.06228749826550484,0.055412501096725464
1750560174926466600,7.379466552734375,0.03891250118613243,0.09281250089406967,0.050462499260902405
1750560174936071200,7.3890712890625,0.03891250118613243,0.0952875018119812,0.02488750033080578
1750560174945675800,7.39867578125,0.025437500327825546,0.07328750193119049,-0.016637500375509262
1750560174955280100,7.408280029296875,0.011962499469518661,0.03423750028014183,-0.0471624992787838
1750560174964884700,7.417884765625,0.007149999961256981,0.01223750039935112,-0.03258749842643738
1750560174974489000,7.427489013671875,0.014437500387430191,0.006049999967217445,0.018699999898672104
1750560174984093700,7.43709375,0.027912499383091927,0,0.09322500228881836
1750560174993698300,7.4466982421875,0.0364375002682209,0.025712499395012856,0.1592250019311905
1750560175003302700,7.456302734375,0.0364375002682209,0.0672374963760376,0.17022499442100525
1750560175012907300,7.4659072265625,0.015675000846385956,0.09157499670982361,0.12017499655485153
1750560175022511900,7.475511962890625,-0.018562499433755875,0.10023749619722366,0.050462499260902405
1750560175032116200,7.4851162109375,-0.04908749833703041,0.08304999768733978,-0.014162499457597733
1750560175041720800,7.494720947265625,-0.07108750194311142,0.037812501192092896,-0.05582499876618385
1750560175051325400,7.504325439453125,-0.07837499678134918,-0.002474999986588955,-0.05939999967813492
1750560175060930000,7.513929931640625,-0.050324998795986176,-0.02447500079870224,-0.025162499397993088
1750560175070534700,7.52353466796875,-0.005087499972432852,-0.032999999821186066,0.02241249941289425
1750560175080139300,7.53313916015625,0.040150001645088196,-0.0037124999798834324,0.05664999783039093
1750560175089743600,7.54274365234375,0.0719124972820282,0.07328750193119049,0.07493750005960464
1750560175099348200,7.55234814453125,0.062150001525878906,0.14533749222755432,0.07741250097751617
1750560175108952600,7.56195263671875,0.03148749843239784,0.1588124930858612,0.07012499868869781
1750560175118557200,7.57155712890625,0.0009624999947845936,0.10381250083446503,0.057887498289346695
1750560175128161500,7.58116162109375,-0.023375000804662704,0,0.04936249926686287
1750560175137766100,7.59076611328125,-0.033137500286102295,-0.0989999994635582,0.045649997889995575
1750560175147370800,7.600370849609375,-0.028324998915195465,-0.12828749418258667,0.04688749834895134
1750560175156975000,7.60997509765625,-0.011274999938905239,-0.09776250272989273,0.050462499260902405
1750560175166579700,7.619579833984375,0.009624999947845936,0,0.06764999777078629
1750560175176184300,7.629184326171875,0.03396249935030937,0.07204999774694443,0.08470000326633453
1750560175185789000,7.638788818359375,0.05472499877214432,0.07947500050067902,0.09941250085830688
1750560175195393300,7.648393310546875,0.06943749636411667,0.04647500067949295,0.11522500216960907
1750560175204998000,7.657997802734375,0.08291249722242355,0.0147124994546175,0.1311749964952469
1750560175214602500,7.6676025390625,0.08291249722242355,-0.00976249948143959,0.12622499465942383
1750560175224206800,7.677206787109375,0.07067500054836273,-0.037812501192092896,0.07741250097751617
1750560175233811500,7.6868115234375,0.04743750020861626,-0.04152499884366989,0.008937500417232513
1750560175243416000,7.696416015625,0.011962499469518661,-0.02928750030696392,-0.05211250111460686
1750560175253020400,7.7060205078125,-0.028324998915195465,0.02199999988079071,-0.08387500047683716
1750560175262625000,7.715625,-0.050324998795986176,0.09652499854564667,-0.07411249727010727
1750560175272229400,7.7252294921875,-0.04413750022649765,0.14409999549388885,-0.03863750025629997
1750560175281834000,7.734833984375,-0.005087499972432852,0.14300000667572021,0.010174999944865704
1750560175291438800,7.74443896484375,0.0364375002682209,0.08676250278949738,0.055412501096725464
1750560175301043200,7.754043212890625,0.0681999996304512,-0.0037124999798834324,0.0859375
1750560175310647600,7.7636474609375,0.07067500054836273,-0.07699999958276749,0.09941250085830688
1750560175320252200,7.773252197265625,0.05348749831318855,-0.12223749607801437,0.089649997651577
1750560175329856800,7.782856689453125,0.022962499409914017,-0.15152500569820404,0.04688749834895134
1750560175339461400,7.79246142578125,-0.010037500411272049,-0.13805000483989716,0.0016499999910593033
1750560175349065700,7.802065673828125,-0.03684999793767929,-0.05376249924302101,-0.03135000169277191
1750560175358670300,7.81167041015625,-0.03437500074505806,0.0635249987244606,-0.06063750013709068
1750560175368274700,7.821274658203125,-0.005087499972432852,0.15399999916553497,-0.08635000139474869
1750560175377879300,7.83087939453125,0.022962499409914017,0.20281249284744263,-0.08992499858140945
1750560175387484000,7.84048388671875,0.03272499889135361,0.18205000460147858,-0.0668250024318695
1750560175397088500,7.850088623046875,0.018149999901652336,0.08552499860525131,-0.026399999856948853
1750560175406692900,7.85969287109375,-0.013612499460577965,-0.032999999821186066,0.028599999845027924
1750560175416297200,7.869297119140625,-0.04908749833703041,-0.14904999732971191,0.07617499679327011
1750560175425901800,7.87890185546875,-0.06861250102519989,-0.20157499611377716,0.09569999575614929
1750560175435506700,7.888506591796875,-0.07590000331401825,-0.12223749607801437,0.08717499673366547
1750560175445111000,7.898111083984375,-0.06379999965429306,0.01347499992698431,0.040699999779462814
1750560175454715400,7.90771533203125,-0.030799999833106995,0.11481250077486038,-0.030112499371170998
1750560175464320300,7.9173203125,-0.0002749999985098839,0.14781250059604645,-0.08511249721050262
1750560175473924600,7.926924560546875,0.014437500387430191,0.10628750175237656,-0.10092499852180481
1750560175483529200,7.936529296875,0.015675000846385956,0.02681249938905239,-0.05816249921917915
1750560175493133600,7.946133544921875,-0.0002749999985098839,-0.06476250290870667,0.007699999958276749
1750560175502738200,7.95573828125,-0.02213750034570694,-0.1405249983072281,0.06146249920129776
1750560175512342800,7.9653427734375,-0.04179999977350235,-0.18933749198913574,0.08112499862909317
1750560175521947100,7.974947021484375,-0.05884999781847,-0.16376249492168427,0.07741250097751617
1750560175531551700,7.9845517578125,-0.05156249925494194,-0.10257499665021896,0.05912499874830246
1750560175541156400,7.99415625,-0.016087500378489494,-0.04152499884366989,0.021175000816583633
1750560175550761000,8.003760986328125,0.022962499409914017,0.02199999988079071,-0.025162499397993088
1750560175560365300,8.013365234375,0.05472499877214432,0.08057499676942825,-0.06916250288486481
1750560175569970000,8.022969970703125,0.0644875019788742,0.12333749979734421,-0.1106875017285347
1750560175579574500,8.032574462890626,0.05719999969005585,0.1270499974489212,-0.11563749611377716
1750560175589179100,8.04217919921875,0.0424874983727932,0.08676250278949738,-0.0765874981880188
1750560175598783500,8.051783447265626,0.021724998950958252,0.0170499999076128,-0.009349999949336052
1750560175608388000,8.06138818359375,0.0034374999813735485,-0.06104999780654907,0.055412501096725464
1750560175617992400,8.070992431640626,-0.002612499985843897,-0.09404999762773514,0.0859375
1750560175627597000,8.08059716796875,-0.006324999965727329,-0.06847500056028366,0.07012499868869781
1750560175637201700,8.09020166015625,-0.011274999938905239,-0.0012374999932944775,0.007699999958276749
1750560175646806300,8.09980615234375,-0.012374999932944775,0.07204999774694443,-0.06187500059604645
1750560175656410600,8.10941064453125,-0.0038499999791383743,0.11604999750852585,-0.09363749623298645
1750560175666015200,8.11901513671875,0.0009624999947845936,0.11728750169277191,-0.0765874981880188
1750560175675619600,8.12861962890625,0.009624999947845936,0.10381250083446503,-0.021587500348687172
1750560175685224200,8.13822412109375,0.0193875003606081,0.07452499866485596,0.02969999983906746
1750560175694828800,8.147828857421874,0.02419999986886978,0.037812501192092896,0.05912499874830246
1750560175704433200,8.15743310546875,0.02419999986886978,-0.007287499960511923,0.05912499874830246
1750560175714037800,8.167037841796875,0.009624999947845936,-0.037812501192092896,0.04936249926686287
1750560175723642000,8.17664208984375,-0.02708750031888485,-0.047712501138448715,0.04688749834895134
1750560175733246700,8.186246826171875,-0.06613750010728836,-0.030524998903274536,0.0541750006377697
1750560175742851300,8.195851318359376,-0.07479999959468842,0.007287499960511923,0.06641250103712082
1750560175752456000,8.2054560546875,-0.04908749833703041,0.042762499302625656,0.06764999777078629
1750560175762060300,8.215060302734376,-0.007562499959021807,0.05857500061392784,0.06270000338554382
1750560175771665000,8.224664794921875,0.02419999986886978,0.0672374963760376,0.05169999971985817
1750560175781269500,8.23426953125,0.04867500066757202,0.06599999964237213,0.04193750023841858
1750560175790874000,8.2438740234375,0.05472499877214432,0.04399999976158142,0.023649999871850014
1750560175800478500,8.253478515625,0.04619999974966049,0.02447500079870224,0.0016499999910593033
1750560175810083000,8.2630830078125,0.010724999941885471,0.032999999821186066,-0.014162499457597733
1750560175819687400,8.2726875,-0.030799999833106995,0.04152499884366989,-0.016637500375509262
1750560175829292000,8.2822919921875,-0.040562499314546585,0.02928750030696392,0.005362499970942736
1750560175838896600,8.291896728515624,-0.028324998915195465,0.0012374999932944775,0.03464999794960022
1750560175848501000,8.3015009765625,-0.008799999952316284,-0.00976249948143959,0.06146249920129776
1750560175858105600,8.311105712890624,0.005912499967962503,-0.010999999940395355,0.07617499679327011
1750560175867710200,8.320710205078125,0.02419999986886978,-0.01223750039935112,0.09569999575614929
1750560175877314800,8.330314697265624,0.04138749837875366,-0.02681249938905239,0.13722500205039978
1750560175886919200,8.339919189453125,0.030387500301003456,-0.04647500067949295,0.1714625060558319
1750560175896523800,8.349523681640624,0.008387500420212746,-0.04881250113248825,0.19841249287128448
1750560175906128400,8.35912841796875,-0.01484999991953373,-0.035475000739097595,0.19346250593662262
1750560175915732700,8.368732666015624,-0.038087498396635056,0.006049999967217445,0.18369999527931213
1750560175925337300,8.37833740234375,-0.047849997878074646,0.02199999988079071,0.18617500364780426
1750560175934942000,8.38794189453125,-0.04661250114440918,0.010999999940395355,0.23127499222755432
1750560175944546600,8.397546630859376,-0.045375000685453415,-0.042762499302625656,0.32298749685287476
1750560175954151000,8.40715087890625,-0.05637500062584877,-0.11852499842643738,0.4390375018119812
1750560175963755500,8.416755615234376,-0.07356250286102295,-0.13433749973773956,0.5282750129699707
1750560175973360000,8.426360107421875,-0.08208750188350677,-0.05252499878406525,0.5306124687194824
1750560175982964700,8.43596484375,-0.07961250096559525,0.1405249983072281,0.4170374870300293
1750560175992569000,8.445569091796875,-0.0648999959230423,0.3469125032424927,0.2032250016927719
1750560176002173700,8.455173583984376,-0.07961250096559525,0.49114999175071716,-0.08511249721050262
1750560176011778300,8.4647783203125,-0.15661250054836273,0.5253875255584717,-0.4675000011920929
1750560176021382700,8.474382568359376,-0.27018749713897705,0.42762500047683716,-0.9916499853134155
1750560176030987300,8.4839873046875,-0.403425008058548,0.28833749890327454,-1.5951374769210815
1750560176040592000,8.493591796875,-0.5207124948501587,0.14300000667572021,-2.1778624057769775
1750560176050196200,8.5031962890625,-0.5744749903678894,0.1551000028848648,-2.7520625591278076
1750560176059800600,8.512800537109374,-0.6000499725341797,0.3128125071525574,-3.449737548828125
1750560176069405400,8.522405517578125,-0.6538124680519104,0.273624986410141,-4.39766263961792
1750560176079009500,8.532009521484374,-0.7210500240325928,0.1722874939441681,-5.416675090789795
1750560176088614400,8.541614501953125,-0.6367624998092651,-0.06599999964237213,-6.276737689971924
1750560176098218800,8.55121875,-0.4399999976158142,-0.3763374984264374,-6.8362250328063965
1750560176107823600,8.56082373046875,-0.20542499423027039,-0.6987749934196472,-6.970699787139893
1750560176117428000,8.570427978515625,0.009624999947845936,-1.0885875225067139,-6.683599948883057
1750560176127032300,8.5800322265625,0.11824999749660492,-1.2546875476837158,-6.089737415313721
1750560176136637000,8.589636962890625,0.06572499871253967,-1.0653499364852905,-5.233387470245361
1750560176146241500,8.599241455078126,-0.06737499684095383,-0.6206749677658081,-4.047037601470947
1750560176155846000,8.608845947265625,-0.07356250286102295,-0.38362500071525574,-2.444200038909912
1750560176165450500,8.618450439453126,-0.028324998915195465,-0.7477250099182129,-0.6628875136375427
1750560176175055000,8.62805517578125,-0.07232499867677689,-1.4587374925613403,0.8531875014305115
1750560176184659500,8.637659423828126,-0.13089999556541443,-1.997462511062622,1.7632999420166016
1750560176194264000,8.64726416015625,-0.15661250054836273,-2.142937421798706,2.0700623989105225
1750560176203868700,8.65686865234375,-0.10037499666213989,-1.7824125289916992,2.024825096130371
1750560176213473300,8.666473388671875,0.025437500327825546,-1.056825041770935,1.8232499361038208
1750560176223077600,8.67607763671875,0.10491249710321426,-0.3763374984264374,1.6277250051498413
1750560176232682200,8.68568212890625,0.14024999737739563,0.2870999872684479,1.620437502861023
1750560176242286800,8.695286865234374,0.13667500019073486,0.7110124826431274,1.7927249670028687
1750560176251891200,8.70489111328125,0.10491249710321426,0.8760125041007996,2.132349967956543
1750560176261495800,8.714495849609374,-0.01979999989271164,0.7892500162124634,2.557499885559082
1750560176271100400,8.724100341796875,-0.23361249268054962,0.6841999888420105,3.0717499256134033
1750560176280705000,8.733705078125,-0.43271249532699585,0.6951999664306641,3.56784987449646
1750560176290309600,8.7433095703125,-0.5744749903678894,0.7537750005722046,3.870762586593628
1750560176299914000,8.7529140625,-0.6355249881744385,0.9150624871253967,3.9770500659942627
1750560176309518300,8.762518310546875,-0.6380000114440918,0.9944000244140625,3.9489998817443848
1750560176319123000,8.772123046875,-0.5450500249862671,0.8662499785423279,3.9452874660491943
1750560176328727600,8.7817275390625,-0.4241875112056732,0.7147250175476074,3.991762399673462
1750560176338332200,8.791332275390625,-0.28971248865127563,0.6634374856948853,3.897712469100952
1750560176347936500,8.8009365234375,-0.17242500185966492,0.4581499993801117,3.4700875282287598
1750560176357540900,8.810540771484375,-0.13461250066757202,0.11357499659061432,2.754124879837036
1750560176367145700,8.820145751953126,-0.15661250054836273,-0.29809999465942383,1.9967750310897827
1750560176376750000,8.82975,-0.17366249859333038,-0.5119125247001648,1.5556750297546387
1750560176386354400,8.8393544921875,-0.15289999544620514,-0.5669124722480774,1.5446749925613403
1750560176395959000,8.848958984375,-0.1480875015258789,-0.5693874955177307,1.682724952697754
1750560176405563600,8.858563720703126,-0.09556250274181366,-0.2870999872684479,1.6644375324249268
1750560176415168300,8.868168212890625,0.03891250118613243,0.07081250101327896,1.3210999965667725
1750560176424772600,8.877772705078126,0.1574375033378601,0.3983374834060669,0.7749499678611755
1750560176434377200,8.887377197265625,0.21353749930858612,0.5961999893188477,0.2630375027656555
1750560176443981800,8.89698193359375,0.20019999146461487,0.5424374938011169,-0.07535000145435333
1750560176453586200,8.906586181640625,0.16101250052452087,0.32257500290870667,-0.19497500360012054
1750560176463190800,8.916190673828124,0.13048750162124634,0.0012374999932944775,-0.1461624950170517
1750560176472795400,8.92579541015625,0.09624999761581421,-0.2723875045776367,0.028599999845027924
1750560176482399700,8.935399658203124,0.07672499865293503,-0.3713875114917755,0.22769999504089355
1750560176492004400,8.94500439453125,0.06324999779462814,-0.32257500290870667,0.33274999260902405
1750560176501609000,8.95460888671875,0.06091250106692314,-0.14176249504089355,0.3375625014305115
1750560176511213300,8.96421337890625,0.08043749630451202,0.00494999997317791,0.2619374990463257
1750560176520818000,8.97381787109375,0.12072499841451645,0.07699999958276749,0.13598750531673431
1750560176530422500,8.983422607421875,0.13296249508857727,0.1013374999165535,-0.04839999973773956
1750560176540027100,8.993027099609375,0.1036750003695488,0.10257499665021896,-0.24873749911785126
1750560176549631700,9.0026318359375,0.0719124972820282,0.07576250284910202,-0.3770250082015991
1750560176559236400,9.012236328125,0.08524999767541885,0.054999999701976776,-0.37345001101493835
1750560176568840700,9.0218408203125,0.15001249313354492,0.04152499884366989,-0.2451625019311905
1750560176578445300,9.0314453125,0.2147749960422516,0.0147124994546175,-0.08016250282526016
1750560176588050000,9.0410498046875,0.25148749351501465,0.00494999997317791,0.04441250115633011
1750560176597654300,9.050654296875,0.24777500331401825,0.0317624993622303,0.10422500222921371
1750560176607259000,9.0602587890625,0.20624999701976776,0.08552499860525131,0.09446249902248383
1750560176616863200,9.06986328125,0.14877499639987946,0.0952875018119812,0.021175000816583633
1750560176626467800,9.0794677734375,0.08524999767541885,0.054999999701976776,-0.07535000145435333
1750560176636072200,9.089072265625,0.040150001645088196,0.01952499896287918,-0.14121249318122864
1750560176645676800,9.0986767578125,0.01691249944269657,-0.023237500339746475,-0.164450004696846
1750560176655281400,9.108281494140625,0.022962499409914017,-0.030524998903274536,-0.15592500567436218
1750560176664885800,9.1178857421875,0.05115000158548355,-0.006049999967217445,-0.12540000677108765
1750560176674490400,9.127490478515625,0.09501250088214874,0.05376249924302101,-0.09487500041723251
1750560176684095000,9.137094970703124,0.1256749927997589,0.14409999549388885,-0.0728750005364418
1750560176693699600,9.146699462890625,0.12925000488758087,0.23333749175071716,-0.05087500065565109
1750560176703304000,9.156303955078124,0.10724999755620956,0.2858625054359436,-0.020349999889731407
1750560176712908300,9.165908203125,0.06943749636411667,0.24433749914169312,0.010174999944865704
1750560176722513000,9.175512939453125,0.037675000727176666,0.0989999994635582,0.02736249938607216
1750560176732117500,9.185117431640625,-0.0038499999791383743,-0.09652499854564667,0.015124999918043613
1750560176741722000,9.19472216796875,-0.040562499314546585,-0.24928750097751617,-0.008112499490380287
1750560176751326500,9.204326416015626,-0.07713750004768372,-0.3151499927043915,-0.030112499371170998
1750560176760931000,9.21393115234375,-0.10766249895095825,-0.2773374915122986,-0.026399999856948853
1750560176770535700,9.22353564453125,-0.10037499666213989,-0.12952500581741333,0.01993750035762787
1750560176780140300,9.233140380859375,-0.043037500232458115,0.023237500339746475,0.09569999575614929
1750560176789744600,9.24274462890625,0.020487500354647636,0.12952500581741333,0.15441249310970306
1750560176799349200,9.252349365234375,0.08291249722242355,0.18081249296665192,0.16417500376701355
1750560176808953900,9.261953857421876,0.12691250443458557,0.16981250047683716,0.14093749225139618
1750560176818558200,9.27155810546875,0.12319999933242798,0.12333749979734421,0.09569999575614929
1750560176828162800,9.281162841796874,0.07919999957084656,0.05857500061392784,0.03217500075697899
1750560176837767400,9.290767333984375,0.025437500327825546,-0.01223750039935112,-0.03863750025629997
1750560176847371800,9.300371826171874,-0.018562499433755875,-0.0695749968290329,-0.09735000133514404
1750560176856976400,9.309976318359375,-0.04661250114440918,-0.047712501138448715,-0.12292499840259552
1750560176866581000,9.3195810546875,-0.050324998795986176,0.06599999964237213,-0.1424500048160553
1750560176876185600,9.329185546875,-0.016087500378489494,0.20762500166893005,-0.18645000457763672
1750560176885790000,9.3387900390625,0.02914999984204769,0.31638750433921814,-0.2157374918460846
1750560176895394600,9.34839453125,0.05472499877214432,0.3176249861717224,-0.21216249465942383
1750560176904999200,9.357999267578125,0.08167500048875809,0.19552500545978546,-0.1522125005722046
1750560176914603500,9.367603515625,0.10848750174045563,0.02199999988079071,-0.03135000169277191
1750560176924208000,9.3772080078125,0.09267500042915344,-0.12223749607801437,0.0798875018954277
1750560176933812700,9.386812744140625,0.05238749831914902,-0.17833749949932098,0.13846249878406525
1750560176943417300,9.396417236328125,0.01691249944269657,-0.15399999916553497,0.12870000302791595
1750560176953021700,9.406021728515626,-0.011274999938905239,-0.10999999940395355,0.057887498289346695
1750560176962626300,9.415626220703125,-0.02956249937415123,-0.05252499878406525,-0.027637500315904617
1750560176972231000,9.42523095703125,-0.04179999977350235,0.020762499421834946,-0.08868750184774399
1750560176981835300,9.434835205078125,-0.038087498396635056,0.06476250290870667,-0.10587500035762787
1750560176991440000,9.44443994140625,-0.013612499460577965,0.08181250095367432,-0.09487500041723251
1750560177001044500,9.45404443359375,0.014437500387430191,0.10023749619722366,-0.06792499870061874
1750560177010648800,9.46364892578125,0.04372499883174896,0.0989999994635582,-0.03382499888539314
1750560177020253200,9.473253173828125,0.062150001525878906,0.05857500061392784,-0.006874999962747097
1750560177029857800,9.48285791015625,0.06091250106692314,-0.01952499896287918,0.007699999958276749
1750560177039462400,9.49246240234375,0.037675000727176666,-0.09157499670982361,0.01759999990463257
1750560177049066800,9.502066650390624,-0.0002749999985098839,-0.13323749601840973,0.030937500298023224
1750560177058671400,9.51167138671875,-0.02213750034570694,-0.0989999994635582,0.052937500178813934
1750560177068276000,9.52127587890625,-0.038087498396635056,-0.0317624993622303,0.052937500178813934
1750560177077880300,9.53088037109375,-0.038087498396635056,0.03904999792575836,0.03217500075697899
1750560177087485000,9.54048486328125,-0.007562499959021807,0.08428750187158585,-0.004399999976158142
1750560177097089500,9.550089599609375,0.01691249944269657,0.09033749997615814,-0.03492499887943268
1750560177106694000,9.55969384765625,0.030387500301003456,0.07081250101327896,-0.030112499371170998
1750560177116298500,9.569298583984375,0.040150001645088196,0.023237500339746475,0.007699999958276749
1750560177125903000,9.578903076171875,0.04743750020861626,-0.04399999976158142,0.06146249920129776
1750560177135507700,9.5885078125,0.04372499883174896,-0.11481250077486038,0.09569999575614929
1750560177145112300,9.5981123046875,0.025437500327825546,-0.15028749406337738,0.10188750177621841
1750560177154716700,9.607716552734376,-0.0038499999791383743,-0.09157499670982361,0.08717499673366547
1750560177164321300,9.6173212890625,-0.033137500286102295,0.01223750039935112,0.04441250115633011
1750560177173926000,9.62692578125,-0.04413750022649765,0.09404999762773514,-0.019112499430775642
1750560177183530200,9.6365302734375,-0.038087498396635056,0.14533749222755432,-0.08758749812841415
1750560177193134800,9.646134765625,-0.033137500286102295,0.14300000667572021,-0.1303499937057495
1750560177202739500,9.655739501953125,-0.021037500351667404,0.08676250278949738,-0.11687500029802322
1750560177212344000,9.665343994140626,-0.016087500378489494,-0.00976249948143959,-0.06063750013709068
1750560177221948400,9.674948486328125,-0.012374999932944775,-0.08428750187158585,0.02488750033080578
1750560177231553000,9.684552978515624,-0.0013749999925494194,-0.10257499665021896,0.113987497985363
1750560177241157400,9.694157470703125,0.007149999961256981,-0.07081250101327896,0.15798750519752502
1750560177250762000,9.703761962890624,0.01691249944269657,-0.006049999967217445,0.14093749225139618
1750560177260366600,9.71336669921875,0.025437500327825546,0.059812501072883606,0.07493750005960464
1750560177269971000,9.722970947265624,0.01691249944269657,0.08923749625682831,-0.017875000834465027
1750560177279575800,9.732575927734375,-0.002612499985843897,0.07699999958276749,-0.10092499852180481
1750560177289180200,9.74218017578125,-0.013612499460577965,0.030524998903274536,-0.1326874941587448
1750560177298784800,9.75178466796875,-0.008799999952316284,-0.0317624993622303,-0.1106875017285347
1750560177308389400,9.761389404296875,-0.0002749999985098839,-0.07699999958276749,-0.06311249732971191
1750560177317993700,9.77099365234375,0.004674999974668026,-0.0672374963760376,0.008937500417232513
1750560177327598000,9.78059814453125,0.02419999986886978,-0.020762499421834946,0.10064999759197235
1750560177337202700,9.79020263671875,0.049912501126527786,0.0085249999538064,0.16775000095367432
1750560177346807300,9.799807373046875,0.05472499877214432,0.030524998903274536,0.17393749952316284
1750560177356412000,9.809411865234376,0.03519999980926514,0.047575000673532486,0.12622499465942383
1750560177366016300,9.819016357421875,0.004674999974668026,0.045237500220537186,0.055412501096725464
1750560177375620900,9.828620849609376,-0.01732499897480011,0.0170499999076128,-0.017875000834465027
1750560177385225200,9.83822509765625,-0.023375000804662704,-0.015949999913573265,-0.0765874981880188
1750560177394829800,9.847829833984376,-0.025849999859929085,-0.02681249938905239,-0.09858749806880951
1750560177404434400,9.857434326171875,-0.02461249940097332,-0.002474999986588955,-0.07411249727010727
1750560177414038800,9.867038818359376,-0.010037500411272049,0.047575000673532486,-0.022824998944997787
1750560177423643400,9.876643310546875,0.01691249944269657,0.09404999762773514,0.026124998927116394
1750560177433248000,9.886248046875,0.0424874983727932,0.1270499974489212,0.048124998807907104
1750560177442852600,9.8958525390625,0.05596249923110008,0.13199999928474426,0.03341250121593475
1750560177452457000,9.90545703125,0.04867500066757202,0.10628750175237656,0.005362499970942736
1750560177462061600,9.9150615234375,0.03396249935030937,0.05857500061392784,-0.017875000834465027
1750560177471666200,9.924666259765624,0.01691249944269657,0.007287499960511923,-0.026399999856948853
1750560177481270800,9.934270751953125,-0.0002749999985098839,-0.025712499395012856,-0.026399999856948853
1750560177490875100,9.943875244140624,-0.01484999991953373,0,-0.024062499403953552
1750560177500479700,9.953479736328125,-0.01979999989271164,0.042762499302625656,-0.03616249933838844
1750560177510084400,9.96308447265625,-0.0038499999791383743,0.06847500056028366,-0.06311249732971191
1750560177519688700,9.972688720703125,0.018149999901652336,0.0952875018119812,-0.08635000139474869
1750560177529293300,9.982293212890625,0.040150001645088196,0.09157499670982361,-0.08868750184774399
1750560177538898000,9.99189794921875,0.0424874983727932,0.0672374963760376,-0.07163749635219574
1750560177548502300,10.001502197265625,0.037675000727176666,0.04028749838471413,-0.03382499888539314
1750560177558107000,10.01110693359375,0.025437500327825546,0.015812499448657036,0.007699999958276749
1750560177567711500,10.02071142578125,0.014437500387430191,-0.002474999986588955,0.04441250115633011
1750560177577315800,10.03031591796875,0.013199999928474426,-0.0147124994546175,0.06393750011920929
1750560177586920400,10.03992041015625,0.005912499967962503,0.0012374999932944775,0.06393750011920929
1750560177596525000,10.049525146484376,-0.0038499999791383743,0.01952499896287918,0.040699999779462814
1750560177606129700,10.059129638671875,-0.016087500378489494,0.028049999848008156,-0.0008249999955296516
1750560177615734000,10.068734130859376,-0.02956249937415123,0.02447500079870224,-0.03258749842643738
1750560177625338400,10.07833837890625,-0.033137500286102295,0.00494999997317791,-0.03739999979734421
1750560177634943000,10.08794287109375,-0.018562499433755875,-0.0170499999076128,-0.004399999976158142
1750560177644547800,10.0975478515625,0.0193875003606081,-0.010999999940395355,0.07493750005960464
1750560177654152200,10.107152099609374,0.05115000158548355,0.02199999988079071,0.15441249310970306
1750560177663756800,10.1167568359375,0.06324999779462814,0.04647500067949295,0.17874999344348907
1750560177673361200,10.126361083984374,0.05596249923110008,0.057475000619888306,0.14588749408721924
1750560177682965800,10.1359658203125,0.03272499889135361,0.045237500220537186,0.08841250091791153
1750560177692570000,10.145570068359374,0.010724999941885471,0.0147124994546175,0.04193750023841858
1750560177702174700,10.1551748046875,-0.0038499999791383743,-0.0317624993622303,0.007699999958276749
1750560177711779000,10.164779052734374,-0.010037500411272049,-0.06599999964237213,-0.008112499490380287
1750560177721384000,10.174384033203125,-0.010037500411272049,-0.032999999821186066,-0.004399999976158142
1750560177730988300,10.18398828125,-0.006324999965727329,0.04647500067949295,-0.009349999949336052
1750560177740593000,10.193593017578126,0.014437500387430191,0.11481250077486038,-0.010587500408291817
1750560177750197200,10.203197265625,0.040150001645088196,0.12581250071525574,-0.010587500408291817
1750560177759801900,10.2128017578125,0.05967500060796738,0.08304999768733978,0.011412499472498894
1750560177769406500,10.222406494140625,0.05472499877214432,0.015812499448657036,0.0541750006377697
1750560177779010800,10.2320107421875,0.015675000846385956,-0.0635249987244606,0.06764999777078629
1750560177788615400,10.241615478515625,-0.016087500378489494,-0.11357499659061432,0.0541750006377697
1750560177798220000,10.251219970703126,-0.02956249937415123,-0.12457499653100967,0.023649999871850014
1750560177807824600,10.26082470703125,-0.02956249937415123,-0.08923749625682831,-0.008112499490380287
1750560177817429000,10.270428955078126,-0.016087500378489494,-0.007287499960511923,-0.016637500375509262
1750560177827033600,10.28003369140625,-0.005087499972432852,0.07204999774694443,-0.027637500315904617
1750560177836638200,10.28963818359375,0.0034374999813735485,0.12581250071525574,-0.04235000163316727
1750560177846242600,10.29924267578125,0.008387500420212746,0.12457499653100967,-0.04963750019669533
1750560177855847200,10.30884716796875,0.010724999941885471,0.08552499860525131,-0.027637500315904617
1750560177865451800,10.31845166015625,0.022962499409914017,0.006049999967217445,0.02488750033080578
1750560177875056400,10.328056396484374,0.0193875003606081,-0.08428750187158585,0.07012499868869781
1750560177884661000,10.337660888671875,0.002199999988079071,-0.15757499635219574,0.09322500228881836
1750560177894265300,10.347265380859374,-0.025849999859929085,-0.16499999165534973,0.07864999771118164
1750560177903869700,10.35686962890625,-0.05156249925494194,-0.10628750175237656,0.038362499326467514
1750560177913474300,10.366474365234374,-0.04661250114440918,-0.037812501192092896,-0.009349999949336052
1750560177923079000,10.376078857421875,-0.02956249937415123,0.007287499960511923,-0.03382499888539314
1750560177932683500,10.38568359375,0.009624999947845936,0.025712499395012856,0.004124999977648258
1750560177942288100,10.3952880859375,0.040150001645088196,0.0012374999932944775,0.08346249908208847
1750560177951892500,10.404892578125,0.03519999980926514,-0.035475000739097595,0.1629374921321869
1750560177961496800,10.414496826171876,0.007149999961256981,-0.05871250107884407,0.20817500352859497
1750560177971101400,10.424101318359375,-0.03684999793767929,-0.0672374963760376,0.23993749916553497
1750560177980706000,10.4337060546875,-0.055137500166893005,-0.04028749838471413,0.3217499852180481
1750560177990310700,10.443310546875,-0.07356250286102295,0.002474999986588955,0.3815625011920929
1750560177999915000,10.4529150390625,-0.10766249895095825,0.06847500056028366,0.38403749465942383
1750560178009519600,10.46251953125,-0.13832500576972961,0.2186249941587448,0.296037495136261
1750560178019124000,10.4721240234375,-0.15661250054836273,0.43367499113082886,0.10670000314712524
1750560178028728600,10.481728515625,-0.17242500185966492,0.6719624996185303,-0.15468749403953552
1750560178038333200,10.491333251953124,-0.2139499932527542,0.7953000068664551,-0.4907374978065491
1750560178047937500,10.5009375,-0.28366249799728394,0.7464874982833862,-0.9036499857902527
1750560178057542100,10.510542236328124,-0.38266250491142273,0.6267250180244446,-1.370324969291687
1750560178067146800,10.520146728515625,-0.5755749940872192,0.4300999939441681,-1.8968124389648438
1750560178076751000,10.529751220703124,-0.7943375110626221,0.3091000020503998,-2.51143741607666
1750560178086355700,10.539355712890625,-0.9836750030517578,0.42143750190734863,-3.3360249996185303
1750560178095960300,10.548960205078124,-1.0911999940872192,0.7720624804496765,-4.336612701416016
1750560178105565000,10.55856494140625,-1.03496253490448,0.8392999768257141,-5.328674793243408
1750560178115169300,10.568169189453124,-0.8188124895095825,0.48867499828338623,-6.171687602996826
1750560178124774000,10.57777392578125,-0.5402374863624573,-0.04647500067949295,-6.837462425231934
1750560178134378200,10.587378173828125,-0.2983750104904175,-0.6242499947547913,-7.201562404632568
1750560178143982800,10.59698291015625,-0.15289999544620514,-1.0775874853134155,-7.157562255859375
1750560178153587500,10.60658740234375,-0.06861250102519989,-1.3561625480651855,-6.652937412261963
1750560178163192000,10.616192138671876,0.049912501126527786,-1.5894999504089355,-5.702537536621094
1750560178172796400,10.62579638671875,0.19043749570846558,-1.7983624935150146,-4.300037384033203
1750560178182401000,10.635401123046876,0.2782999873161316,-1.7115999460220337,-2.5322000980377197
1750560178192005600,10.645005615234375,0.32106250524520874,-1.3744499683380127,-0.7253124713897705
1750560178201610200,10.6546103515625,0.2782999873161316,-1.1948750019073486,0.6601374745368958
1750560178211214800,10.66421484375,0.1695374995470047,-1.2839750051498413,1.3480499982833862
1750560178220819200,10.673819091796876,0.06696250289678574,-1.393975019454956,1.3943874835968018
1750560178230423800,10.683423828125,0.06091250106692314,-1.2949750423431396,0.9875249862670898
1750560178240028400,10.6930283203125,0.14396250247955322,-0.9235875010490417,0.37674999237060547
1750560178249632800,10.7026328125,0.24901250004768372,-0.3493874967098236,-0.1106875017285347
1750560178259237400,10.7122373046875,0.3712500035762787,0.3139125108718872,-0.16568750143051147
1750560178268841700,10.721841796875,0.45058751106262207,0.7269625067710876,0.21917499601840973
1750560178278446300,10.7314462890625,0.453062504529953,1.0335874557495117,0.9839500188827515
1750560178288051000,10.741051025390625,0.35282498598098755,1.1044000387191772,1.9062999486923218
1750560178297655000,10.750655029296874,0.14767499268054962,0.7477250099182129,2.7700750827789307
1750560178307260000,10.760260009765625,-0.04661250114440918,0.30662500858306885,3.5396625995635986
1750560178316864500,10.769864501953125,-0.23718750476837158,-0.0695749968290329,4.137099742889404
1750560178326469000,10.77946923828125,-0.4314749836921692,-0.06228749826550484,4.585487365722656
1750560178336073500,10.789073486328125,-0.5402374863624573,0.21504999697208405,4.842062473297119
1750560178345678000,10.798677978515625,-0.5414749979972839,0.5484874844551086,4.97763729095459
1750560178355282400,10.808282470703125,-0.45100000500679016,0.944350004196167,5.163400173187256
1750560178364887000,10.817886962890626,-0.2849000096321106,1.1764500141143799,5.427262306213379
1750560178374491600,10.82749169921875,0.0009624999947845936,1.255924940109253,5.758362293243408
1750560178384096300,10.83709619140625,0.2087250053882599,1.081162452697754,5.922124862670898
1750560178393700600,10.84670068359375,0.2087250053882599,0.6327750086784363,5.744887351989746
1750560178403305200,10.85630517578125,0.09019999951124191,-0.10752499848604202,5.202449798583984
1750560178412909800,10.865909912109375,-0.09913749992847443,-1.136162519454956,4.321624755859375
1750560178422514400,10.875514404296876,-0.34718748927116394,-1.8789374828338623,3.294224977493286
1750560178432118800,10.885118896484375,-0.550000011920929,-2.008462429046631,2.233687400817871
1750560178441723100,10.89472314453125,-0.554812490940094,-1.5442625284194946,1.366337537765503
1750560178451327700,10.90432763671875,-0.3704249858856201,-0.5289624929428101,0.8702374696731567
1750560178460932400,10.913932373046874,-0.09184999763965607,0.65972501039505,0.5953750014305115
1750560178470537000,10.923536865234375,0.21230000257492065,1.5455000400543213,0.271699994802475
1750560178480141300,10.933141357421874,0.4151124954223633,1.814175009727478,-0.13763749599456787
1750560178489746000,10.942745849609375,0.47382500767707825,1.5455000400543213,-0.454025000333786
1750560178499350500,10.9523505859375,0.36024999618530273,0.9235875010490417,-0.5665000081062317
1750560178508955100,10.961955078125,0.1060125008225441,0.2040500044822693,-0.48454999923706055
1750560178518559500,10.9715595703125,-0.1504250019788742,-0.3726249933242798,-0.3111625015735626
1750560178528164000,10.9811640625,-0.2946625053882599,-0.6890124678611755,-0.15839999914169312
1750560178537768700,10.990768798828125,-0.2531374990940094,-0.742775022983551,-0.0056374999694526196
1750560178547373000,11.000373046875,-0.08813749998807907,-0.5094375014305115,0.12870000302791595
1750560178556977700,11.009977783203125,0.08772499859333038,-0.1270499974489212,0.1592250019311905
1750560178566582300,11.019582275390626,0.2209624946117401,0.2798124849796295,0.07012499868869781
1750560178576186600,11.0291865234375,0.2747249901294708,0.5264874696731567,-0.1143999993801117
1750560178585791200,11.038791259765626,0.26372501254081726,0.5924875140190125,-0.29397499561309814
1750560178595395800,11.048395751953125,0.2172500044107437,0.4641999900341034,-0.4185499846935272
1750560178605000200,11.058000244140626,0.1695374995470047,0.16005000472068787,-0.46021249890327454
1750560178614604800,11.067604736328125,0.1574375033378601,-0.17833749949932098,-0.42721250653266907
1750560178624209400,11.07720947265625,0.17077499628067017,-0.41786250472068787,-0.3489750027656555
1750560178633813800,11.086813720703125,0.1989624947309494,-0.4300999939441681,-0.23045000433921814
1750560178643418400,11.09641845703125,0.2087250053882599,-0.2358125001192093,-0.11811249703168869
1750560178653022700,11.106022705078125,0.18177500367164612,0.010999999940395355,-0.05939999967813492
1750560178662627300,11.11562744140625,0.13296249508857727,0.1868624985218048,-0.07163749635219574
1750560178672232000,11.12523193359375,0.08167500048875809,0.24928750097751617,-0.13392500579357147
1750560178681836500,11.13483642578125,0.04619999974966049,0.2003374993801117,-0.19139999151229858
1750560178691441200,11.144441162109375,0.025437500327825546,0.10628750175237656,-0.2414499968290329
1750560178701045200,11.154045166015624,0.020487500354647636,0.0012374999932944775,-0.2854500114917755
1750560178710650000,11.163650146484375,0.0193875003606081,-0.047712501138448715,-0.3392125070095062
1750560178720254700,11.173254638671875,0.018149999901652336,-0.02681249938905239,-0.3722124993801117
1750560178729859000,11.182859130859375,0.015675000846385956,0.06476250290870667,-0.3086875081062317
1750560178739463700,11.192463623046875,0.025437500327825546,0.18933749198913574,-0.15963749587535858
1750560178749068000,11.202068115234376,0.06943749636411667,0.25905001163482666,-0.020349999889731407
1750560178758672600,11.211672607421875,0.13048750162124634,0.2761000096797943,0.06270000338554382
1750560178768277200,11.22127734375,0.17077499628067017,0.25286251306533813,0.07493750005960464
1750560178777881600,11.230881591796875,0.16596250236034393,0.14781250059604645,0.03341250121593475
1750560178787486200,11.240486328125,0.10724999755620956,0.018287500366568565,-0.03382499888539314
1750560178797090800,11.2500908203125,0.022962499409914017,-0.06599999964237213,-0.08758749812841415
1750560178806695200,11.259695068359376,-0.045375000685453415,-0.1013374999165535,-0.1083500012755394
1750560178816299800,11.2692998046875,-0.06861250102519989,-0.07328750193119049,-0.09239999949932098
1750560178825904400,11.278904296875,-0.030799999833106995,0.020762499421834946,-0.0448249988257885
1750560178835508700,11.2885087890625,0.03519999980926514,0.14781250059604645,0.01759999990463257
1750560178845113300,11.29811328125,0.08896250277757645,0.23086249828338623,0.082225002348423
1750560178854718000,11.307718017578125,0.11343749612569809,0.22728750109672546,0.133650004863739
1750560178864322300,11.317322265625,0.10724999755620956,0.1368124932050705,0.16775000095367432
1750560178873927000,11.326927001953125,0.05596249923110008,-0.01347499992698431,0.16898749768733978
1750560178883531500,11.336531494140624,-0.008799999952316284,-0.1588124930858612,0.133650004863739
1750560178893136100,11.34613623046875,-0.057612501084804535,-0.2503874897956848,0.08112499862909317
1750560178902740500,11.355740478515624,-0.07713750004768372,-0.2638624906539917,0.02969999983906746
1750560178912345000,11.365344970703125,-0.06379999965429306,-0.16499999165534973,-0.015399999916553497
1750560178921949400,11.374949462890624,-0.03203750029206276,0.025712499395012856,-0.05939999967813492
1750560178931554300,11.38455419921875,-0.0038499999791383743,0.23704999685287476,-0.08992499858140945
1750560178941158700,11.39415869140625,0.015675000846385956,0.3359124958515167,-0.1143999993801117
1750560178950763000,11.403762939453125,0.03272499889135361,0.32862499356269836,-0.10092499852180481
1750560178960367600,11.41336767578125,0.03396249935030937,0.22481249272823334,-0.0471624992787838
1750560178969972000,11.422971923828126,0.01691249944269657,0.04881250113248825,0.012649999931454659
1750560178979576800,11.432576904296875,-0.010037500411272049,-0.14657500386238098,0.057887498289346695
1750560178989181400,11.442181396484376,-0.025849999859929085,-0.26633748412132263,0.07369999587535858
1750560178998785500,11.45178564453125,-0.04661250114440918,-0.2358125001192093,0.055412501096725464
1750560179008390100,11.46139013671875,-0.057612501084804535,-0.06847500056028366,0.0004124999977648258
1750560179017994800,11.470994873046875,-0.03932499885559082,0.10752499848604202,-0.08016250282526016
1750560179027599400,11.480599365234376,-0.0013749999925494194,0.2223374992609024,-0.14368750154972076
1750560179037203700,11.49020361328125,0.03148749843239784,0.22605000436306,-0.1621125042438507
1750560179046808300,11.499808349609374,0.04867500066757202,0.14657500386238098,-0.1303499937057495
1750560179056413000,11.509412841796875,0.04372499883174896,0.025712499395012856,-0.0826374962925911
1750560179066017300,11.519017333984374,0.02914999984204769,-0.1013374999165535,-0.03863750025629997
1750560179075622000,11.528621826171875,0.022962499409914017,-0.17586250603199005,-0.0031624999828636646
1750560179085226500,11.5382265625,0.007149999961256981,-0.17833749949932098,0.008937500417232513
1750560179094830800,11.547830810546875,-0.006324999965727329,-0.09047500044107437,-0.0008249999955296516
1750560179104435500,11.557435546875,-0.01979999989271164,0.02928750030696392,-0.026399999856948853
1750560179114040000,11.5670400390625,-0.030799999833106995,0.10876250267028809,-0.05816249921917915
1750560179123644700,11.576644775390625,-0.025849999859929085,0.12099999934434891,-0.08387500047683716
1750560179133249000,11.5862490234375,-0.016087500378489494,0.08304999768733978,-0.07768750190734863
1750560179142853600,11.595853515625,-0.007562499959021807,0.0170499999076128,-0.0448249988257885
1750560179152458200,11.605458251953126,0.008387500420212746,-0.0672374963760376,-0.0031624999828636646
1750560179162062600,11.6150625,0.018149999901652336,-0.08676250278949738,0.01993750035762787
1750560179171667200,11.624667236328126,0.01691249944269657,-0.0317624993622303,0.007699999958276749
1750560179181271800,11.634271728515625,0.009624999947845936,0.07328750193119049,-0.011824999935925007
1750560179190876400,11.64387646484375,0.0034374999813735485,0.1368124932050705,-0.030112499371170998
1750560179200481000,11.65348095703125,0.005912499967962503,0.1368124932050705,-0.04235000163316727
1750560179210085400,11.66308544921875,0.002199999988079071,0.09281250089406967,-0.04358749836683273
1750560179219690000,11.67268994140625,-0.0013749999925494194,0.054999999701976776,-0.03382499888539314
1750560179229294600,11.682294677734374,-0.0038499999791383743,0.020762499421834946,-0.03258749842643738
1750560179238899000,11.69189892578125,-0.002612499985843897,-0.030524998903274536,-0.0471624992787838
1750560179248503300,11.70150341796875,0.015675000846385956,-0.07452499866485596,-0.05582499876618385
1750560179258108000,11.71110791015625,0.03396249935030937,-0.08923749625682831,-0.0448249988257885
1750560179267712500,11.72071240234375,0.04867500066757202,-0.06847500056028366,-0.020349999889731407
1750560179277316900,11.73031689453125,0.05348749831318855,0.00494999997317791,0.010174999944865704
1750560179286921500,11.73992138671875,0.0424874983727932,0.10628750175237656,0.02969999983906746
1750560179296525800,11.74952587890625,0.02667500078678131,0.16128750145435333,0.010174999944865704
1750560179306130400,11.75913037109375,0.015675000846385956,0.17104999721050262,-0.021587500348687172
1750560179315735000,11.768735107421875,0.007149999961256981,0.12209999561309814,-0.0471624992787838
1750560179325339400,11.77833935546875,-0.0002749999985098839,0.02447500079870224,-0.05816249921917915
1750560179334944000,11.787944091796875,-0.01732499897480011,-0.08057499676942825,-0.0448249988257885
1750560179344548600,11.797548583984375,-0.02213750034570694,-0.16005000472068787,-0.0031624999828636646
1750560179354153000,11.807153076171875,-0.005087499972432852,-0.17586250603199005,0.060362499207258224
