time,seconds_elapsed,z,y,x
1750560167646249000,0.0992490234375,-0.38417500257492065,-0.3414124846458435,-0.011549999937415123
1750560167655853600,0.108853515625,-0.22165000438690186,0.022687500342726707,-0.012787500396370888
1750560167665458000,0.1184580078125,-0.015124999918043613,0.24502499401569366,-0.0030249999836087227
1750560167675062500,0.1280625,0.08992499858140945,0.34402498602867126,-0.031075000762939453
1750560167684667000,0.1376669921875,0.13392500579357147,0.5113624930381775,-0.12031249701976776
1750560167694271500,0.147271484375,0.1522125005722046,0.754462480545044,-0.29493749141693115
1750560167703876000,0.1568759765625,0.2340250015258789,0.9707499742507935,-0.5112249851226807
1750560167713480400,0.16648046875,0.33178749680519104,1.1185624599456787,-0.5992249846458435
1750560167723084800,0.176084716796875,0.334262490272522,1.1758999824523926,-0.4512749910354614
1750560167732689400,0.185689453125,0.23897500336170197,0.9107999801635742,-0.18012499809265137
1750560167742293800,0.195293701171875,0.19744999706745148,0.46254998445510864,0.05444999784231186
1750560167751898400,0.2048984375,0.19002500176429749,0.19249999523162842,0.17173749208450317
1750560167761502700,0.214502685546875,0.20845000445842743,0.17902499437332153,0.17297500371932983
1750560167771107300,0.224107421875,0.279262512922287,0.3012624979019165,0.07768750190734863
1750560167780711700,0.233711669921875,0.3623124957084656,0.4295499920845032,-0.03355000168085098
1750560167790316300,0.24331640625,0.43683749437332153,0.4881249964237213,-0.06283749639987946
1750560167799920600,0.252920654296875,0.526075005531311,0.4380750060081482,0.014162499457597733
1750560167809525200,0.262525146484375,0.5626500248908997,0.32202500104904175,0.08621250092983246
1750560167819129600,0.272129638671875,0.4442625045776367,0.196212500333786,0.06297499686479568
1750560167828734200,0.281734130859375,0.20350000262260437,0.05197500064969063,-0.048124998807907104
1750560167838338600,0.291338623046875,-0.02488750033080578,-0.1190750002861023,-0.22893749177455902
1750560167847943200,0.300943115234375,-0.1153625026345253,-0.2326499968767166,-0.2937000095844269
1750560167857547500,0.310547607421875,-0.01759999990463257,-0.22165000438690186,-0.15207499265670776
1750560167867152000,0.32015185546875,0.1289750039577484,-0.2644124925136566,0.05816249921917915
1750560167876756200,0.329756103515625,0.259737491607666,-0.2913624942302704,0.2670249938964844
1750560167886360800,0.33936083984375,0.3465000092983246,-0.19717499613761902,0.3623124957084656
1750560167895965400,0.34896533203125,0.35378751158714294,0.018975000828504562,0.3244999945163727
1750560167905569800,0.35856982421875,0.2975499927997589,0.28283751010894775,0.19978749752044678
1750560167915174400,0.36817431640625,0.2512125074863434,0.40507498383522034,0.03368749842047691
1750560167924778800,0.37777880859375,0.2535499930381775,0.4025999903678894,-0.07878749817609787
1750560167934383400,0.38738330078125,0.29878750443458557,0.259737491607666,-0.13612499833106995
1750560167943987700,0.39698779296875,0.3390749990940094,0.10573749989271164,-0.16307500004768372
1750560167953592300,0.40659228515625,0.3244999945163727,0.05692499876022339,-0.20212499797344208
1750560167963196700,0.41619677734375,0.2475000023841858,0.11921250075101852,-0.20941250026226044
1750560167972801000,0.425801025390625,0.2194499969482422,0.27073749899864197,-0.10064999759197235
1750560167982405600,0.435405517578125,0.2535499930381775,0.30250000953674316,0.05321250110864639
1750560167992010200,0.44501025390625,0.31831249594688416,0.2475000023841858,0.2377374917268753
1750560168001614300,0.4546142578125,0.342787504196167,0.14368750154972076,0.3647874891757965
1750560168011219200,0.46421923828125,0.31226250529289246,0.11797499656677246,0.40507498383522034
1750560168020823600,0.473823486328125,0.279262512922287,0.17778749763965607,0.36726251244544983
1750560168030428200,0.48342822265625,0.2560249865055084,0.14121249318122864,0.295074999332428
1750560168040032500,0.493032470703125,0.2475000023841858,-0.260699987411499,0.2083124965429306
1750560168049637000,0.50263720703125,0.196212500333786,-0.5467000007629395,0.07768750190734863
1750560168059241500,0.512241455078125,0.16926249861717224,-0.6639875173568726,-0.016362499445676804
1750560168068845800,0.521845703125,0.116737499833107,-0.6432250142097473,-0.045787498354911804
1750560168078450400,0.531450439453125,0.031212499365210533,-0.38788750767707825,-0.050599999725818634
1750560168088055000,0.541054931640625,-0.0028874999843537807,-0.07259999960660934,-0.009074999950826168
1750560168097659400,0.550659423828125,0.026399999856948853,0.11550000309944153,0.0494999997317791
1750560168107263700,0.560263671875,0.08139999955892563,0.1742125004529953,0.05692499876022339
1750560168116868000,0.5698681640625,0.1424500048160553,0.1289750039577484,0.022687500342726707
1750560168126472700,0.57947265625,0.15468749403953552,0.04221250116825104,-0.031075000762939453
1750560168136077300,0.589077392578125,0.10216250270605087,-0.01759999990463257,-0.08236250281333923
1750560168145681700,0.598681640625,0.021449999883770943,-0.048124998807907104,-0.10188750177621841
1750560168155286300,0.608286376953125,-0.07741250097751617,-0.10436250269412994,-0.09583749622106552
1750560168164890600,0.617890625,-0.1508374959230423,-0.1825999915599823,-0.07259999960660934
1750560168174495200,0.6274951171875,-0.18369999527931213,-0.2741749882698059,-0.028599999845027924
1750560168184099600,0.637099609375,-0.19112500548362732,-0.33646249771118164,0.03616249933838844
1750560168193704200,0.6467041015625,-0.17036250233650208,-0.32065001130104065,0.06792499870061874
1750560168203308500,0.65630859375,-0.11041250079870224,-0.19607499241828918,0.03973750025033951
1750560168212913200,0.6659130859375,-0.02488750033080578,0.010449999943375587,0.017737500369548798
1750560168222517800,0.675517822265625,0.03863750025629997,0.11921250075101852,0.010449999943375587
1750560168232122000,0.6851220703125,0.09968750178813934,0.11426249891519547,0.0056374999694526196
1750560168241726700,0.694726806640625,0.1461624950170517,0.06173750013113022,0.0031624999828636646
1750560168251331300,0.704331298828125,0.16073749959468842,-0.010312499478459358,0.0031624999828636646
1750560168260935700,0.713935791015625,0.148499995470047,-0.07012499868869781,0.010449999943375587
1750560168270540300,0.723540283203125,0.11316250264644623,-0.09707500040531158,-0.005362499970942736
1750560168280144600,0.73314453125,0.05444999784231186,-0.09212499856948853,-0.03478749841451645
1750560168289749200,0.742749267578125,-0.009074999950826168,-0.07259999960660934,-0.060362499207258224
1750560168299353600,0.752353515625,-0.05555000156164169,-0.04702499881386757,-0.08236250281333923
1750560168308958000,0.7619580078125,-0.07864999771118164,-0.036024998873472214,-0.10188750177621841
1750560168318562600,0.7715625,-0.07383749634027481,-0.02983750030398369,-0.1116499975323677
1750560168328167000,0.7811669921875,-0.03464999794960022,0.012924999929964542,-0.10188750177621841
1750560168337771300,0.790771240234375,0.006874999962747097,0.06173750013113022,-0.06283749639987946
1750560168347375900,0.8003759765625,0.021449999883770943,0.05073750019073486,-0.03231250122189522
1750560168356980500,0.80998046875,0.05073750019073486,0.04592499881982803,-0.02502499893307686
1750560168366584800,0.819584716796875,0.10092499852180481,0.05816249921917915,-0.03959999978542328
1750560168376189400,0.829189453125,0.1264999955892563,0.05926249921321869,-0.05678749829530716
1750560168385793800,0.838793701171875,0.11550000309944153,0.06297499686479568,-0.053075000643730164
1750560168395398400,0.8483984375,0.06668750196695328,0.0752125009894371,-0.02502499893307686
1750560168405002800,0.858002685546875,0.0031624999828636646,0.10821250081062317,0.027499999850988388
1750560168414607400,0.867607421875,-0.028599999845027924,0.0849749967455864,0.06916250288486481
1750560168424211700,0.877211669921875,-0.02983750030398369,-0.0005499999970197678,0.07273750007152557
1750560168433816300,0.88681640625,-0.020075000822544098,-0.06283749639987946,0.043449997901916504
1750560168443420700,0.896420654296875,-0.01759999990463257,-0.05678749829530716,0.0006874999962747097
1750560168453025300,0.906025390625,-0.006599999964237213,0.009212499484419823,-0.02736249938607216
1750560168462629600,0.915629638671875,0.021449999883770943,0.07768750190734863,-0.040837500244379044
1750560168472234000,0.92523388671875,0.05692499876022339,0.09102500230073929,-0.048124998807907104
1750560168481838600,0.934838623046875,0.08868750184774399,0.05926249921321869,-0.04331250116229057
1750560168491443200,0.944443115234375,0.10216250270605087,0.026399999856948853,-0.03712499886751175
1750560168501047600,0.954047607421875,0.07768750190734863,0.021449999883770943,-0.04936249926686287
1750560168510652200,0.963652099609375,0.028875000774860382,0.07150000333786011,-0.0798875018954277
1750560168520256500,0.973256591796875,-0.03355000168085098,0.13750000298023224,-0.12031249701976776
1750560168529861000,0.982861083984375,-0.07864999771118164,0.18754999339580536,-0.14464999735355377
1750560168539465700,0.9924658203125,-0.08483749628067017,0.18273749947547913,-0.1373624950647354
1750560168549069800,1.00206982421875,-0.06888750195503235,0.11921250075101852,-0.09831249713897705
1750560168558674400,1.01167431640625,-0.04936249926686287,0.0494999997317791,-0.05431250110268593
1750560168568279000,1.021279052734375,-0.03231250122189522,-0.010312499478459358,-0.022549999877810478
1750560168577883400,1.03088330078125,-0.035887498408555984,-0.04702499881386757,-0.010312499478459358
1750560168587487700,1.04048779296875,-0.050599999725818634,-0.050599999725818634,-0.012787500396370888
1750560168597092400,1.05009228515625,-0.0518375001847744,-0.009074999950826168,-0.010312499478459358
1750560168606696700,1.05969677734375,-0.04331250116229057,0.048262499272823334,-0.0005499999970197678
1750560168616301300,1.06930126953125,-0.005362499970942736,0.1289750039577484,0.018975000828504562
1750560168625905700,1.07890576171875,0.04963750019669533,0.2022625058889389,0.05073750019073486
1750560168635510300,1.08851025390625,0.07768750190734863,0.2437874972820282,0.08992499858140945
1750560168645115000,1.098114990234375,0.06063750013709068,0.22302499413490295,0.10573749989271164
1750560168654719200,1.10771923828125,0.03244999796152115,0.1424500048160553,0.10092499852180481
1750560168664323800,1.11732373046875,-0.004124999977648258,0.018975000828504562,0.08249999582767487
1750560168673928200,1.12692822265625,-0.050599999725818634,-0.08112499862909317,0.05321250110864639
1750560168683532500,1.136532470703125,-0.08483749628067017,-0.1190750002861023,0.03492499887943268
1750560168693137400,1.146137451171875,-0.089649997651577,-0.133650004863739,0.04468749836087227
1750560168702741800,1.15574169921875,-0.06531249731779099,-0.1116499975323677,0.07150000333786011
1750560168712346000,1.16534619140625,-0.011549999937415123,-0.04702499881386757,0.08373750001192093
1750560168721950700,1.17495068359375,0.05073750019073486,0.016499999910593033,0.07273750007152557
1750560168731555300,1.184555419921875,0.08373750001192093,0.06544999778270721,0.04468749836087227
1750560168741159400,1.194159423828125,0.09473749995231628,0.09102500230073929,0.0019249999895691872
1750560168750764000,1.203763916015625,0.10449999570846558,0.0849749967455864,-0.031075000762939453
1750560168760368600,1.21336865234375,0.09721250087022781,0.027499999850988388,-0.04702499881386757
1750560168769973000,1.222972900390625,0.07768750190734863,-0.05431250110268593,-0.03959999978542328
1750560168779577600,1.23257763671875,0.055687498301267624,-0.09707500040531158,-0.026124998927116394
1750560168789182200,1.24218212890625,0.028875000774860382,-0.06778749823570251,-0.023787500336766243
1750560168798786600,1.25178662109375,0.004399999976158142,0.043449997901916504,-0.05555000156164169
1750560168808391200,1.26139111328125,-0.012787500396370888,0.1742125004529953,-0.12388750165700912
1750560168817995500,1.27099560546875,-0.02983750030398369,0.2657875120639801,-0.18136249482631683
1750560168827600100,1.28060009765625,-0.038362499326467514,0.2633124887943268,-0.20212499797344208
1750560168837204500,1.29020458984375,-0.021312499418854713,0.16926249861717224,-0.16788749396800995
1750560168846809000,1.29980908203125,0.020212499424815178,0.03492499887943268,-0.08483749628067017
1750560168856413700,1.30941357421875,0.05073750019073486,-0.07383749634027481,0.011687500402331352
1750560168866018000,1.31901806640625,0.04592499881982803,-0.13255000114440918,0.0849749967455864
1750560168875622700,1.32862255859375,0.018975000828504562,-0.1691250056028366,0.13021250069141388
1750560168885227000,1.33822705078125,-0.0028874999843537807,-0.19965000450611115,0.1522125005722046
1750560168894831400,1.347831298828125,-0.020075000822544098,-0.20941250026226044,0.14121249318122864
1750560168904435700,1.357435791015625,-0.04331250116229057,-0.19607499241828918,0.09597499668598175
1750560168914040300,1.367040283203125,-0.06641250103712082,-0.15331250429153442,0.04592499881982803
1750560168923645000,1.37664501953125,-0.07864999771118164,-0.06655000150203705,0.009212499484419823
1750560168933249500,1.38624951171875,-0.07507500052452087,0.03973750025033951,-0.021312499418854713
1750560168942854000,1.39585400390625,-0.04207500070333481,0.10821250081062317,-0.04702499881386757
1750560168952458500,1.40545849609375,0.0006874999962747097,0.1106875017285347,-0.07259999960660934
1750560168962062800,1.415062744140625,0.023924998939037323,0.0494999997317791,-0.0835999995470047
1750560168971667200,1.424667236328125,0.016637500375509262,-0.021312499418854713,-0.03959999978542328
1750560168981272000,1.43427197265625,-0.0005499999970197678,-0.09336250275373459,0.03849999979138374
1750560168990876400,1.44387646484375,-0.006599999964237213,-0.12759999930858612,0.11797499656677246
1750560169000481000,1.45348095703125,-0.015124999918043613,-0.09583749622106552,0.15468749403953552
1750560169010085400,1.46308544921875,-0.020075000822544098,-0.04702499881386757,0.12773749232292175
1750560169019690000,1.47268994140625,-0.009074999950826168,-0.005362499970942736,0.07150000333786011
1750560169029294600,1.482294677734375,0.0031624999828636646,0.03616249933838844,0.0056374999694526196
1750560169038899000,1.49189892578125,0.0056374999694526196,0.05197500064969063,-0.05555000156164169
1750560169048503000,1.5015029296875,0.009212499484419823,0.03492499887943268,-0.07878749817609787
1750560169058107600,1.511107666015625,0.011687500402331352,-0.0030249999836087227,-0.07383749634027481
1750560169067712300,1.520712158203125,0.015399999916553497,-0.036024998873472214,-0.053075000643730164
1750560169077316600,1.530316650390625,0.017875000834465027,-0.04207500070333481,-0.03478749841451645
1750560169086921200,1.539921142578125,0.010449999943375587,-0.04455000162124634,-0.028599999845027924
1750560169096525800,1.54952587890625,0.0031624999828636646,-0.036024998873472214,-0.012787500396370888
1750560169106130200,1.559130126953125,0.011687500402331352,-0.010312499478459358,0.018975000828504562
1750560169115734800,1.56873486328125,0.022687500342726707,-0.015262499451637268,0.04221250116825104
1750560169125339100,1.578339111328125,0.03244999796152115,-0.023787500336766243,0.0494999997317791
1750560169134943700,1.58794384765625,0.05073750019073486,-0.012787500396370888,0.03492499887943268
1750560169144548000,1.597548095703125,0.055687498301267624,0.010449999943375587,-0.0030249999836087227
1750560169154152700,1.607152587890625,0.04592499881982803,0.0471624992787838,-0.04331250116229057
1750560169163757300,1.61675732421875,0.028875000774860382,0.05816249921917915,-0.06159999966621399
1750560169173362000,1.62636181640625,0.016637500375509262,0.05073750019073486,-0.048124998807907104
1750560169182966300,1.63596630859375,0.008112499490380287,0.0494999997317791,-0.020075000822544098
1750560169192570600,1.645570556640625,0.008112499490380287,0.05926249921321869,0.0031624999828636646
1750560169202175200,1.65517529296875,0.018975000828504562,0.07150000333786011,0.006737499963492155
1750560169211779600,1.664779541015625,0.03368749842047691,0.07150000333786011,-0.014024999924004078
1750560169221384200,1.67438427734375,0.03739999979734421,0.05692499876022339,-0.04702499881386757
1750560169230988800,1.68398876953125,0.025162499397993088,0.03492499887943268,-0.06159999966621399
1750560169240593200,1.69359326171875,0.0056374999694526196,-0.005362499970942736,-0.048124998807907104
1750560169250197500,1.703197509765625,-0.016362499445676804,-0.04331250116229057,-0.010312499478459358
1750560169259802000,1.712802001953125,-0.02983750030398369,-0.05555000156164169,0.020212499424815178
1750560169269406700,1.72240673828125,-0.031075000762939453,-0.04207500070333481,0.023924998939037323
1750560169279011000,1.732010986328125,-0.015124999918043613,-0.023787500336766243,0.007974999956786633
1750560169288615700,1.74161572265625,0.0019249999895691872,-0.01759999990463257,-0.012787500396370888
1750560169298220000,1.751219970703125,-0.0017874999903142452,-0.01759999990463257,-0.020075000822544098
1750560169307824600,1.76082470703125,-0.018837500363588333,-0.038362499326467514,-0.012787500396370888
1750560169317429000,1.770428955078125,-0.03355000168085098,-0.058024998754262924,0.007974999956786633
1750560169327033600,1.78003369140625,-0.038362499326467514,-0.03959999978542328,0.023924998939037323
1750560169336638200,1.78963818359375,-0.028599999845027924,0.017737500369548798,0.014162499457597733
1750560169346242600,1.79924267578125,-0.015124999918043613,0.09844999760389328,-0.022549999877810478
1750560169355847200,1.80884716796875,-0.013887500390410423,0.15826250612735748,-0.07878749817609787
1750560169365451500,1.818451416015625,-0.028599999845027924,0.1839749962091446,-0.12759999930858612
1750560169375056100,1.82805615234375,-0.048124998807907104,0.1765500009059906,-0.15207499265670776
1750560169384660500,1.837660400390625,-0.060362499207258224,0.13626250624656677,-0.141075000166893
1750560169394265000,1.84726513671875,-0.05555000156164169,0.06916250288486481,-0.09831249713897705
1750560169403869400,1.856869384765625,-0.03231250122189522,0.006737499963492155,-0.03959999978542328
1750560169413473800,1.866473876953125,0.0019249999895691872,-0.018837500363588333,0.010449999943375587
1750560169423078400,1.876078369140625,0.025162499397993088,-0.020075000822544098,0.031212499365210533
1750560169432683000,1.88568310546875,0.023924998939037323,0.007974999956786633,0.03492499887943268
1750560169442287400,1.895287353515625,0.006874999962747097,0.05692499876022339,0.03244999796152115
1750560169451892000,1.90489208984375,-0.013887500390410423,0.06668750196695328,0.028737500309944153
1750560169461496600,1.91449658203125,-0.01759999990463257,0.04221250116825104,0.04468749836087227
1750560169471101000,1.924100830078125,-0.005362499970942736,0.009212499484419823,0.07768750190734863
1750560169480705500,1.93370556640625,0.010449999943375587,-0.031075000762939453,0.10326249897480011
1750560169490310000,1.943309814453125,0.021449999883770943,-0.04702499881386757,0.11302500218153
1750560169499914500,1.95291455078125,0.018975000828504562,-0.048124998807907104,0.09968750178813934
1750560169509519000,1.96251904296875,0.0056374999694526196,-0.04702499881386757,0.07397499680519104
1750560169519123500,1.97212353515625,0.0031624999828636646,-0.05678749829530716,0.06544999778270721
1750560169528728000,1.98172802734375,0.014162499457597733,-0.07012499868869781,0.08016250282526016
1750560169538332700,1.991332763671875,0.011687500402331352,-0.05555000156164169,0.08373750001192093
1750560169547937000,2.00093701171875,0.004399999976158142,0.011687500402331352,0.06297499686479568
1750560169557541600,2.010541748046875,0.0019249999895691872,0.0789249986410141,0.018975000828504562
1750560169567146000,2.02014599609375,0.0019249999895691872,0.10573749989271164,-0.03959999978542328
1750560169576750600,2.02975048828125,0.006874999962747097,0.09350000321865082,-0.07507500052452087
1750560169586355000,2.03935498046875,0.010449999943375587,0.05444999784231186,-0.06888750195503235
1750560169595959600,2.04895947265625,-0.0028874999843537807,-0.015262499451637268,-0.03478749841451645
1750560169605564200,2.058564208984375,-0.01759999990463257,-0.07631249725818634,0.017737500369548798
1750560169615168500,2.06816845703125,-0.021312499418854713,-0.0873124971985817,0.07150000333786011
1750560169624772900,2.07777294921875,-0.02736249938607216,-0.05431250110268593,0.10202500224113464
1750560169634377500,2.08737744140625,-0.03231250122189522,0.0031624999828636646,0.10326249897480011
1750560169643982000,2.096982177734375,-0.02736249938607216,0.04592499881982803,0.08373750001192093
1750560169653586400,2.10658642578125,-0.012787500396370888,0.06668750196695328,0.055687498301267624
1750560169663190800,2.116190673828125,-0.0005499999970197678,0.05321250110864639,0.017737500369548798
1750560169672795400,2.12579541015625,-0.0017874999903142452,0.005499999970197678,-0.014024999924004078
1750560169682400000,2.13539990234375,-0.013887500390410423,-0.04207500070333481,-0.022549999877810478
1750560169692004400,2.14500439453125,-0.03464999794960022,-0.06283749639987946,-0.015124999918043613
1750560169701609000,2.15460888671875,-0.048124998807907104,-0.04331250116229057,-0.0005499999970197678
1750560169711213600,2.164213623046875,-0.05431250110268593,-0.0017874999903142452,0.007974999956786633
1750560169720818200,2.173818115234375,-0.05912499874830246,0.03726249933242798,-0.0030249999836087227
1750560169730422500,2.183422607421875,-0.050599999725818634,0.06173750013113022,-0.020075000822544098
1750560169740027100,2.193027099609375,-0.02488750033080578,0.06297499686479568,-0.02983750030398369
1750560169749631500,2.202631591796875,0.0006874999962747097,0.043449997901916504,-0.026124998927116394
1750560169759236000,2.212236083984375,0.020212499424815178,0.031212499365210533,-0.016362499445676804
1750560169768840400,2.22184033203125,0.025162499397993088,0.027499999850988388,-0.021312499418854713
1750560169778445000,2.231445068359375,0.014162499457597733,0.025162499397993088,-0.03231250122189522
1750560169788049700,2.241049560546875,-0.016362499445676804,0.020212499424815178,-0.03959999978542328
1750560169797654000,2.250654052734375,-0.03959999978542328,-0.012787500396370888,-0.031075000762939453
1750560169807258600,2.260258544921875,-0.03464999794960022,-0.0518375001847744,0.011687500402331352
1750560169816863200,2.26986328125,-0.021312499418854713,-0.07383749634027481,0.06297499686479568
1750560169826467600,2.279467529296875,-0.0005499999970197678,-0.06531249731779099,0.10092499852180481
1750560169836072000,2.289072021484375,0.011687500402331352,-0.045787498354911804,0.08992499858140945
1750560169845676500,2.298676513671875,0.010449999943375587,-0.021312499418854713,0.0494999997317791
1750560169855281000,2.308281005859375,0.0031624999828636646,0.0006874999962747097,0.007974999956786633
1750560169864885500,2.317885498046875,-0.0017874999903142452,-0.0017874999903142452,-0.023787500336766243
1750560169874490000,2.327489990234375,0.0006874999962747097,-0.02983750030398369,-0.036024998873472214
1750560169884094500,2.337094482421875,0.004399999976158142,-0.05678749829530716,-0.023787500336766243
1750560169893698800,2.34669873046875,-0.0005499999970197678,-0.058024998754262924,0.0006874999962747097
1750560169903303400,2.356303466796875,-0.011549999937415123,-0.04936249926686287,0.017737500369548798
1750560169912908000,2.365907958984375,-0.016362499445676804,-0.031075000762939453,0.026399999856948853
1750560169922512600,2.3755126953125,-0.007837500423192978,-0.012787500396370888,0.022687500342726707
1750560169932117000,2.385116943359375,0.006874999962747097,0.004399999976158142,0.015399999916553497
1750560169941721600,2.3947216796875,0.020212499424815178,0.006737499963492155,0.017737500369548798
1750560169951326000,2.404325927734375,0.026399999856948853,-0.0017874999903142452,0.031212499365210533
1750560169960930600,2.4139306640625,0.026399999856948853,-0.018837500363588333,0.03973750025033951
1750560169970535200,2.42353515625,0.021449999883770943,-0.036024998873472214,0.03616249933838844
1750560169980139500,2.433139404296875,0.014162499457597733,-0.0518375001847744,0.017737500369548798
1750560169989744000,2.442744140625,0.008112499490380287,-0.08112499862909317,-0.018837500363588333
1750560169999348700,2.4523486328125,0.0056374999694526196,-0.10807500034570694,-0.05678749829530716
1750560170008953000,2.461953125,0.0031624999828636646,-0.09707500040531158,-0.07383749634027481
1750560170018557400,2.471557373046875,-0.004124999977648258,-0.050599999725818634,-0.06655000150203705
1750560170028162000,2.481162109375,0.0006874999962747097,-0.0005499999970197678,-0.036024998873472214
1750560170037766700,2.4907666015625,0.021449999883770943,0.03368749842047691,0.0056374999694526196
1750560170047371000,2.50037109375,0.04221250116825104,0.04468749836087227,0.03492499887943268
1750560170056975600,2.5099755859375,0.05692499876022339,0.022687500342726707,0.05321250110864639
1750560170066580000,2.519580078125,0.06792499870061874,-0.020075000822544098,0.06421250104904175
1750560170076184300,2.529184326171875,0.06916250288486481,-0.05431250110268593,0.07026249915361404
1750560170085789000,2.538788818359375,0.04839999973773956,-0.0798875018954277,0.06792499870061874
1750560170095393500,2.5483935546875,0.021449999883770943,-0.0835999995470047,0.07273750007152557
1750560170104998100,2.557998046875,-0.0017874999903142452,-0.08236250281333923,0.08992499858140945
1750560170114602500,2.5676025390625,-0.009074999950826168,-0.0873124971985817,0.116737499833107
1750560170124207000,2.57720703125,0.009212499484419823,-0.04936249926686287,0.12526249885559082
1750560170133811500,2.5868115234375,0.03492499887943268,0.017737500369548798,0.08016250282526016
1750560170143416000,2.596416015625,0.04839999973773956,0.07644999772310257,0.006737499963492155
1750560170153020700,2.606020751953125,0.04221250116825104,0.10821250081062317,-0.05678749829530716
1750560170162625000,2.615625,0.025162499397993088,0.09844999760389328,-0.0835999995470047
1750560170172229600,2.625229736328125,0.011687500402331352,0.055687498301267624,-0.06283749639987946
1750560170181834200,2.634834228515625,0.008112499490380287,-0.0005499999970197678,-0.010312499478459358
1750560170191438600,2.6444384765625,0.004399999976158142,-0.045787498354911804,0.03973750025033951
1750560170201043200,2.654043212890625,-0.0028874999843537807,-0.05431250110268593,0.05816249921917915
1750560170210647800,2.663647705078125,-0.009074999950826168,-0.02502499893307686,0.043449997901916504
1750560170220252200,2.673252197265625,-0.009074999950826168,0.010449999943375587,0.016637500375509262
1750560170229856800,2.682856689453125,0.006874999962747097,0.023924998939037323,0.004399999976158142
1750560170239461400,2.69246142578125,0.023924998939037323,0.007974999956786633,0.021449999883770943
1750560170249065700,2.702065673828125,0.028875000774860382,-0.018837500363588333,0.05816249921917915
1750560170258670000,2.711670166015625,0.025162499397993088,-0.038362499326467514,0.09116250276565552
1750560170268274700,2.721274658203125,0.014162499457597733,-0.038362499326467514,0.09473749995231628
1750560170277879000,2.730879150390625,-0.0017874999903142452,-0.01759999990463257,0.05444999784231186
1750560170287483600,2.740483642578125,-0.01759999990463257,0.020212499424815178,-0.005362499970942736
1750560170297088000,2.750087890625,-0.023787500336766243,0.04221250116825104,-0.048124998807907104
1750560170306692600,2.759692626953125,-0.013887500390410423,0.03244999796152115,-0.04702499881386757
1750560170316297200,2.769297119140625,0.009212499484419823,0.0019249999895691872,-0.0042624999769032
1750560170325901600,2.778901611328125,0.028875000774860382,-0.02502499893307686,0.05444999784231186
1750560170335506200,2.788506103515625,0.03492499887943268,-0.03478749841451645,0.10944999754428864
1750560170345110800,2.79811083984375,0.029975000768899918,-0.040837500244379044,0.13144999742507935
1750560170354715100,2.807715087890625,0.023924998939037323,-0.036024998873472214,0.11921250075101852
1750560170364319700,2.81731982421875,0.022687500342726707,-0.021312499418854713,0.0849749967455864
1750560170373924000,2.826924072265625,0.015399999916553497,-0.011549999937415123,0.03739999979734421
1750560170383528700,2.83652880859375,0.0019249999895691872,0.012924999929964542,-0.014024999924004078
1750560170393133300,2.84613330078125,-0.006599999964237213,0.03849999979138374,-0.06159999966621399
1750560170402737700,2.855737548828125,-0.010312499478459358,0.06668750196695328,-0.089649997651577
1750560170412342300,2.86534228515625,0.0019249999895691872,0.07768750190734863,-0.09088750183582306
1750560170421947000,2.87494677734375,0.027637500315904617,0.06668750196695328,-0.06407500058412552
1750560170431551200,2.88455126953125,0.04468749836087227,0.04221250116825104,-0.015124999918043613
1750560170441155800,2.89415576171875,0.055687498301267624,0.020212499424815178,0.03616249933838844
1750560170450760200,2.90376025390625,0.05939999967813492,-0.0005499999970197678,0.07397499680519104
1750560170460364800,2.91336474609375,0.04839999973773956,-0.014024999924004078,0.07768750190734863
1750560170469969400,2.922969482421875,0.026399999856948853,-0.012787500396370888,0.04839999973773956
1750560170479573800,2.93257373046875,0.004399999976158142,-0.0017874999903142452,0.014162499457597733
1750560170489178400,2.942178466796875,-0.0028874999843537807,0.015399999916553497,-0.007837500423192978
1750560170498782700,2.95178271484375,-0.004124999977648258,0.03492499887943268,-0.015124999918043613
1750560170508387000,2.961386962890625,0.0006874999962747097,0.05197500064969063,-0.010312499478459358
1750560170517991700,2.97099169921875,-0.0005499999970197678,0.06173750013113022,-0.0030249999836087227
1750560170527596500,2.980596435546875,-0.007837500423192978,0.05444999784231186,-0.0030249999836087227
1750560170537201000,2.990200927734375,-0.016362499445676804,0.03973750025033951,-0.011549999937415123
1750560170546805200,2.99980517578125,-0.028599999845027924,0.026399999856948853,-0.02736249938607216
1750560170556409900,3.009409912109375,-0.03231250122189522,0.031212499365210533,-0.03231250122189522
1750560170566014500,3.019014404296875,-0.026124998927116394,0.03726249933242798,-0.026124998927116394
1750560170575618800,3.028618896484375,-0.009074999950826168,0.016499999910593033,-0.011549999937415123
1750560170585223400,3.038223388671875,0.010449999943375587,-0.020075000822544098,0.0056374999694526196
1750560170594827800,3.047827880859375,0.015399999916553497,-0.04936249926686287,0.006737499963492155
1750560170604432400,3.057432373046875,0.006874999962747097,-0.05912499874830246,-0.006599999964237213
1750560170614037000,3.067037109375,-0.004124999977648258,-0.06655000150203705,-0.02502499893307686
1750560170623641300,3.076641357421875,-0.006599999964237213,-0.07136250287294388,-0.036024998873472214
1750560170633246000,3.086245849609375,0.0019249999895691872,-0.050599999725818634,-0.03478749841451645
1750560170642850600,3.0958505859375,0.010449999943375587,-0.0030249999836087227,-0.03959999978542328
1750560170652455200,3.105455078125,0.015399999916553497,0.05926249921321869,-0.05431250110268593
1750560170662059500,3.1150595703125,0.025162499397993088,0.08744999766349792,-0.06888750195503235
1750560170671664000,3.1246640625,0.028875000774860382,0.07150000333786011,-0.07507500052452087
1750560170681268500,3.1342685546875,0.03244999796152115,0.022687500342726707,-0.05912499874830246
1750560170690873000,3.143873046875,0.023924998939037323,-0.02983750030398369,-0.03355000168085098
1750560170700477700,3.153477783203125,0.010449999943375587,-0.05678749829530716,-0.005362499970942736
1750560170710082300,3.163082275390625,0.0006874999962747097,-0.05912499874830246,0.020212499424815178
1750560170719686700,3.172686767578125,-0.0017874999903142452,-0.05555000156164169,0.03739999979734421
1750560170729291300,3.182291259765625,-0.004124999977648258,-0.04702499881386757,0.043449997901916504
1750560170738896000,3.191895751953125,-0.006599999964237213,-0.04207500070333481,0.03368749842047691
1750560170748500000,3.2015,-0.0028874999843537807,0.005499999970197678,0.016637500375509262
1750560170758104600,3.2111044921875,0.006874999962747097,0.05816249921917915,-0.015124999918043613
1750560170767709200,3.220709228515625,0.014162499457597733,0.08373750001192093,-0.053075000643730164
1750560170777313800,3.230313720703125,0.016637500375509262,0.08373750001192093,-0.08112499862909317
1750560170786918100,3.239918212890625,0.014162499457597733,0.05444999784231186,-0.08236250281333923
1750560170796522500,3.2495224609375,0.011687500402331352,0.009212499484419823,-0.05431250110268593
1750560170806127000,3.259127197265625,0.009212499484419823,-0.040837500244379044,-0.006599999964237213
1750560170815731700,3.268731689453125,0.0056374999694526196,-0.08483749628067017,0.03973750025033951
1750560170825336000,3.278336181640625,0.012924999929964542,-0.10078749805688858,0.07026249915361404
1750560170834940700,3.287940673828125,0.025162499397993088,-0.09212499856948853,0.0752125009894371
1750560170844545000,3.297544921875,0.028875000774860382,-0.06655000150203705,0.06173750013113022
1750560170854149600,3.307149658203125,0.028875000774860382,-0.02736249938607216,0.03849999979138374
1750560170863754200,3.316754150390625,0.018975000828504562,0.012924999929964542,0.004399999976158142
1750560170873358800,3.32635888671875,0.010449999943375587,0.04468749836087227,-0.03478749841451645
1750560170882963200,3.335963134765625,0.0031624999828636646,0.055687498301267624,-0.057887498289346695
1750560170892567800,3.34556787109375,-0.0017874999903142452,0.043449997901916504,-0.053075000643730164
1750560170902172400,3.35517236328125,0.0019249999895691872,0.014162499457597733,-0.016362499445676804
1750560170911776800,3.36477685546875,0.006874999962747097,-0.03231250122189522,0.03244999796152115
1750560170921381400,3.37438134765625,0.016637500375509262,-0.06778749823570251,0.08016250282526016
1750560170930986000,3.383986083984375,0.023924998939037323,-0.07259999960660934,0.10449999570846558
1750560170940590300,3.39359033203125,0.016637500375509262,-0.058024998754262924,0.09968750178813934
1750560170950195000,3.40319482421875,0.0056374999694526196,-0.04331250116229057,0.0812624990940094
1750560170959799600,3.412799560546875,-0.007837500423192978,-0.021312499418854713,0.04468749836087227
1750560170969404200,3.422404052734375,-0.011549999937415123,0.012924999929964542,0.0031624999828636646
1750560170979008300,3.43200830078125,-0.007837500423192978,0.0471624992787838,-0.028599999845027924
1750560170988612900,3.44161279296875,0.0019249999895691872,0.06173750013113022,-0.04331250116229057
1750560170998217200,3.45121728515625,0.015399999916553497,0.05444999784231186,-0.038362499326467514
1750560171007821800,3.46082177734375,0.023924998939037323,0.03973750025033951,-0.022549999877810478
1750560171017426200,3.47042626953125,0.022687500342726707,0.021449999883770943,-0.0017874999903142452
1750560171027030800,3.48003076171875,0.011687500402331352,-0.0005499999970197678,0.014162499457597733
1750560171036635400,3.489635498046875,0.0031624999828636646,-0.018837500363588333,0.021449999883770943
1750560171046239700,3.49923974609375,-0.005362499970942736,-0.02983750030398369,0.012924999929964542
1750560171055844400,3.50884423828125,-0.011549999937415123,-0.02502499893307686,0.014162499457597733
1750560171065449000,3.518448974609375,-0.013887500390410423,-0.006599999964237213,0.025162499397993088
1750560171075053300,3.52805322265625,-0.020075000822544098,0.014162499457597733,0.022687500342726707
1750560171084658000,3.537657958984375,-0.015124999918043613,0.028737500309944153,0.006737499963492155
1750560171094262500,3.547262451171875,-0.005362499970942736,0.04221250116825104,-0.012787500396370888
1750560171103867100,3.5568671875,-0.0017874999903142452,0.0494999997317791,-0.026124998927116394
1750560171113471500,3.566471435546875,0.0056374999694526196,0.048262499272823334,-0.016362499445676804
1750560171123076000,3.576076171875,0.011687500402331352,0.031212499365210533,0.011687500402331352
1750560171132680400,3.585680419921875,0.014162499457597733,0.010449999943375587,0.05073750019073486
1750560171142285000,3.59528515625,0.015399999916553497,-0.005362499970942736,0.07768750190734863
1750560171151889700,3.6048896484375,0.010449999943375587,-0.01759999990463257,0.0789249986410141
1750560171161494000,3.614493896484375,0.012924999929964542,-0.015262499451637268,0.06173750013113022
1750560171171098600,3.6240986328125,0.022687500342726707,-0.018837500363588333,0.03368749842047691
1750560171180703200,3.633703125,0.03244999796152115,-0.023787500336766243,0.0031624999828636646
1750560171190307600,3.6433076171875,0.03739999979734421,-0.0030249999836087227,-0.007837500423192978
1750560171199912000,3.652911865234375,0.026399999856948853,0.017737500369548798,-0.005362499970942736
1750560171209516800,3.662516845703125,0.012924999929964542,0.015399999916553497,-0.0017874999903142452
1750560171219121200,3.67212109375,0.012924999929964542,0.017737500369548798,0.014162499457597733
1750560171228725500,3.6817255859375,0.015399999916553497,0.022687500342726707,0.027499999850988388
1750560171238330000,3.691330078125,0.011687500402331352,0.023924998939037323,0.03492499887943268
1750560171247934500,3.7009345703125,0.0056374999694526196,0.020212499424815178,0.03368749842047691
1750560171257539000,3.7105390625,-0.0028874999843537807,0.004399999976158142,0.031212499365210533
1750560171267143700,3.720143798828125,-0.005362499970942736,-0.011549999937415123,0.04097500070929527
1750560171276748000,3.729748046875,-0.006599999964237213,-0.03712499886751175,0.04468749836087227
1750560171286352600,3.7393525390625,-0.0005499999970197678,-0.03959999978542328,0.03973750025033951
1750560171295957200,3.748957275390625,0.009212499484419823,-0.01759999990463257,0.021449999883770943
1750560171305561900,3.758561767578125,0.006874999962747097,0.012924999929964542,-0.009074999950826168
1750560171315166200,3.768166259765625,0.004399999976158142,0.029975000768899918,-0.03712499886751175
1750560171324770800,3.777770751953125,0.0056374999694526196,0.03368749842047691,-0.0518375001847744
1750560171334375400,3.78737548828125,0.012924999929964542,0.03244999796152115,-0.04455000162124634
1750560171343979800,3.796979736328125,0.021449999883770943,0.028737500309944153,-0.020075000822544098
1750560171353584400,3.80658447265625,0.028875000774860382,0.03368749842047691,0.014162499457597733
1750560171363189000,3.81618896484375,0.021449999883770943,0.025162499397993088,0.031212499365210533
1750560171372793300,3.82579345703125,0.0019249999895691872,0.0019249999895691872,0.031212499365210533
1750560171382398000,3.83539794921875,-0.016362499445676804,-0.02502499893307686,0.026399999856948853
1750560171392002600,3.84500244140625,-0.02488750033080578,-0.04207500070333481,0.016637500375509262
1750560171401607000,3.85460693359375,-0.01759999990463257,-0.045787498354911804,0.007974999956786633
1750560171411211500,3.86421142578125,-0.007837500423192978,-0.02983750030398369,0.010449999943375587
1750560171420816100,3.873816162109375,0.0019249999895691872,0.004399999976158142,0.015399999916553497
1750560171430420700,3.883420654296875,0.012924999929964542,0.0494999997317791,0.018975000828504562
1750560171440025000,3.893025146484375,0.017875000834465027,0.06297499686479568,0.007974999956786633
1750560171449629700,3.902629638671875,0.017875000834465027,0.05073750019073486,-0.010312499478459358
1750560171459234000,3.912234130859375,0.009212499484419823,0.022687500342726707,-0.031075000762939453
1750560171468838700,3.921838623046875,-0.011549999937415123,-0.011549999937415123,-0.036024998873472214
1750560171478443300,3.931443359375,-0.02983750030398369,-0.028599999845027924,-0.012787500396370888
1750560171488047400,3.94104736328125,-0.035887498408555984,-0.045787498354911804,0.011687500402331352
1750560171497652000,3.95065185546875,-0.031075000762939453,-0.03231250122189522,0.028737500309944153
1750560171507256600,3.960256591796875,-0.01759999990463257,-0.0017874999903142452,0.021449999883770943
1750560171516861000,3.96986083984375,-0.0028874999843537807,0.03492499887943268,-0.012787500396370888
1750560171526465500,3.979465576171875,0.010449999943375587,0.06544999778270721,-0.05678749829530716
1750560171536070100,3.989070068359375,0.012924999929964542,0.07150000333786011,-0.08112499862909317
1750560171545674500,3.998674560546875,0.015399999916553497,0.048262499272823334,-0.06159999966621399
1750560171555279000,4.008279052734375,0.016637500375509262,0.006737499963492155,-0.010312499478459358
1750560171564883700,4.0178837890625,0.018975000828504562,-0.03478749841451645,0.055687498301267624
1750560171574488000,4.027488037109375,0.021449999883770943,-0.06407500058412552,0.09597499668598175
1750560171584092700,4.0370927734375,0.017875000834465027,-0.058024998754262924,0.0849749967455864
1750560171593697300,4.046697265625,0.0056374999694526196,-0.028599999845027924,0.03492499887943268
1750560171603302000,4.056302001953125,-0.011549999937415123,0.006737499963492155,-0.010312499478459358
1750560171612906200,4.06590625,-0.022549999877810478,0.023924998939037323,-0.02736249938607216
1750560171622510800,4.0755107421875,-0.020075000822544098,0.014162499457597733,-0.01759999990463257
1750560171632115500,4.085115478515625,-0.005362499970942736,0.010449999943375587,0.004399999976158142
1750560171641719800,4.0947197265625,0.008112499490380287,0.009212499484419823,0.011687500402331352
1750560171651324400,4.104324462890625,0.009212499484419823,0.020212499424815178,0.0031624999828636646
1750560171660929000,4.113928955078125,0.0006874999962747097,0.031212499365210533,-0.010312499478459358
1750560171670533400,4.123533447265625,-0.016362499445676804,0.021449999883770943,-0.007837500423192978
1750560171680138000,4.133137939453125,-0.021312499418854713,-0.007837500423192978,0.023924998939037323
1750560171689742600,4.14274267578125,-0.016362499445676804,-0.05912499874830246,0.04468749836087227
1750560171699347200,4.15234716796875,-0.005362499970942736,-0.07383749634027481,0.04468749836087227
1750560171708951600,4.16195166015625,0.0019249999895691872,-0.050599999725818634,0.020212499424815178
1750560171718556000,4.171555908203125,-0.010312499478459358,0.0006874999962747097,0.0006874999962747097
1750560171728160500,4.181160400390625,-0.023787500336766243,0.029975000768899918,-0.012787500396370888
1750560171737764900,4.190764892578125,-0.031075000762939453,0.0031624999828636646,-0.012787500396370888
1750560171747369500,4.200369384765625,-0.021312499418854713,-0.020075000822544098,0.028737500309944153
1750560171756973800,4.209973876953125,-0.011549999937415123,-0.03355000168085098,0.0812624990940094
1750560171766578700,4.21957861328125,0.0006874999962747097,-0.02736249938607216,0.11797499656677246
1750560171776183000,4.22918310546875,0.026399999856948853,-0.023787500336766243,0.11550000309944153
1750560171785787400,4.238787353515625,0.04097500070929527,-0.02736249938607216,0.08744999766349792
1750560171795392000,4.24839208984375,0.04468749836087227,-0.02736249938607216,0.06297499686479568
1750560171804996600,4.25799658203125,0.03368749842047691,-0.04207500070333481,0.03739999979734421
1750560171814601000,4.26760107421875,0.012924999929964542,-0.05912499874830246,0.021449999883770943
1750560171824205600,4.27720556640625,-0.004124999977648258,-0.040837500244379044,0.012924999929964542
1750560171833810200,4.28681005859375,-0.01759999990463257,0.009212499484419823,-0.007837500423192978
1750560171843414800,4.296414794921875,-0.016362499445676804,0.07026249915361404,-0.02736249938607216
1750560171853019100,4.30601904296875,-0.0017874999903142452,0.09350000321865082,-0.03959999978542328
1750560171862623700,4.315623779296875,0.014162499457597733,0.07768750190734863,-0.026124998927116394
1750560171872228000,4.32522802734375,0.017875000834465027,0.009212499484419823,0.009212499484419823
1750560171881832700,4.334832763671875,0.018975000828504562,-0.07631249725818634,0.06792499870061874
1750560171891437300,4.344437255859375,0.014162499457597733,-0.13488750159740448,0.13997499644756317
1750560171901042000,4.3540419921875,0.0019249999895691872,-0.17159999907016754,0.21326249837875366
1750560171910646500,4.363646484375,-0.0028874999843537807,-0.18507499992847443,0.29026249051094055
1750560171920251000,4.3732509765625,-0.010312499478459358,-0.20817500352859497,0.36602500081062317
1750560171929855500,4.38285546875,-0.031075000762939453,-0.22783750295639038,0.44907498359680176
1750560171939460000,4.392460205078125,-0.038362499326467514,-0.2961750030517578,0.5064125061035156
1750560171949064400,4.402064453125,-0.040837500244379044,-0.3511750102043152,0.5871250033378601
1750560171958669000,4.4116689453125,-0.06531249731779099,-0.39765000343322754,0.7019374966621399
1750560171968273400,4.4212734375,-0.09459999948740005,-0.44151249527931213,0.854699969291687
1750560171977878000,4.4308779296875,-0.1153625026345253,-0.3854124844074249,1.0708500146865845
1750560171987482600,4.440482666015625,-0.1568875014781952,-0.3438875079154968,1.3030874729156494
1750560171997087000,4.4500869140625,-0.20212499797344208,-0.24736249446868896,1.5021874904632568
1750560172006691600,4.459691650390625,-0.2241249978542328,-0.1153625026345253,1.5779500007629395
1750560172016296000,4.4692958984375,-0.20336249470710754,0.04468749836087227,1.5192375183105469
1750560172025900500,4.478900634765625,-0.19965000450611115,0.25850000977516174,1.36166250705719
1750560172035505200,4.488505126953125,-0.19965000450611115,0.49059998989105225,1.1148500442504883
1750560172045109500,4.498109619140625,-0.21917499601840973,0.7019374966621399,0.744700014591217
1750560172054714000,4.507714111328125,-0.26688748598098755,0.8265125155448914,0.21697500348091125
1750560172064318500,4.517318359375,-0.3499374985694885,0.9084625244140625,-0.4207499921321869
1750560172073923000,4.526923095703125,-0.42803749442100525,0.9072250127792358,-1.012137532234192
1750560172083527700,4.536527587890625,-0.4879874885082245,0.5370749831199646,-1.4898124933242798
1750560172093132000,4.546132080078125,-0.5990874767303467,-0.18136249482631683,-1.9760124683380127
1750560172102736600,4.555736572265625,-0.7750874757766724,-0.8898999691009521,-2.646737575531006
1750560172112341200,4.56534130859375,-0.8313249945640564,-1.1416624784469604,-3.538562536239624
1750560172121945600,4.574945556640625,-0.6797999739646912,-0.8826124668121338,-4.664962291717529
1750560172131550200,4.58455029296875,-0.3217499852180481,-0.3511750102043152,-5.850074768066406
1750560172141154800,4.59415478515625,0.055687498301267624,-0.14464999735355377,-6.977712631225586
1750560172150759400,4.603759521484375,0.3770250082015991,-0.2595999836921692,-7.990537643432617
1750560172160363800,4.61336376953125,0.6421250104904175,-0.6517499685287476,-8.816362380981445
1750560172169968400,4.622968505859375,0.8864625096321106,-1.3847625255584717,-9.192700386047363
1750560172179573000,4.632572998046875,1.2713249921798706,-1.9320124387741089,-8.647787094116211
1750560172189177600,4.642177490234375,1.5767124891281128,-1.8147250413894653,-7.000949859619141
1750560172198782000,4.651781982421875,1.478950023651123,-0.9926124811172485,-4.469574928283691
1750560172208386600,4.661386474609375,1.0782749652862549,-0.06159999966621399,-1.7426749467849731
1750560172217991000,4.670990966796875,0.5198875069618225,0.10449999570846558,0.47107499837875366
1750560172227595500,4.680595458984375,0.022687500342726707,-0.5564625263214111,1.9431500434875488
1750560172237200000,4.690199951171875,-0.33646249771118164,-1.5265250205993652,2.6578750610351562
1750560172246804500,4.699804443359375,-0.5148000121116638,-2.1898250579833984,2.653062582015991
1750560172256409000,4.7094091796875,-0.4390375018119812,-2.169062376022339,2.081199884414673
1750560172266013400,4.719013427734375,-0.2264624983072281,-1.4348125457763672,1.2346124649047852
1750560172275618000,4.7286181640625,-0.023787500336766243,-0.30717501044273376,0.4465999901294708
1750560172285222700,4.73822265625,0.09844999760389328,0.6824125051498413,0.03368749842047691
1750560172294827000,4.747826904296875,0.1424500048160553,1.3763749599456787,0.13626250624656677
1750560172304431600,4.757431640625,0.16692499816417694,1.607237458229065,0.5846499800682068
1750560172314036000,4.767035888671875,0.148499995470047,1.3359500169754028,1.1368499994277954
1750560172323640600,4.776640625,0.06173750013113022,0.7044125199317932,1.610949993133545
1750560172333245200,4.7862451171875,-0.1116499975323677,-0.010312499478459358,1.9468624591827393
1750560172342849500,4.795849609375,-0.31693750619888306,-0.4916999936103821,2.183912515640259
1750560172352454100,4.8054541015625,-0.5368000268936157,-0.8178499937057495,2.3072500228881836
1750560172362058800,4.815058837890625,-0.7653250098228455,-0.8325625061988831,2.4037749767303467
1750560172371663400,4.824663330078125,-0.8801375031471252,-0.5698000192642212,2.466062545776367
1750560172381267700,4.834267822265625,-0.8568999767303467,-0.20583750307559967,2.4795374870300293
1750560172390872300,4.843872314453125,-0.7115625143051147,0.23526249825954437,2.4807748794555664
1750560172400477000,4.853476806640625,-0.5062749981880188,0.6652249693870544,2.477062463760376
1750560172410081300,4.863081298828125,-0.3217499852180481,1.10385000705719,2.4990625381469727
1750560172419686000,4.872685791015625,-0.15812499821186066,1.3518999814987183,2.54182505607605
1750560172429290500,4.88229052734375,0.010449999943375587,1.1148500442504883,2.507587432861328
1750560172438895000,4.89189501953125,0.13626250624656677,0.4503124952316284,2.2937750816345215
1750560172448499500,4.90149951171875,0.14368750154972076,-0.23512500524520874,1.8638124465942383
1750560172458104000,4.91110400390625,0.04097500070929527,-0.6150375008583069,1.3261874914169312
1750560172467708400,4.92070849609375,-0.07259999960660934,-0.5992249846458435,0.9365124702453613
1750560172477313000,4.93031298828125,-0.13983750343322754,-0.22893749177455902,0.9425625205039978
1750560172486917600,4.939917724609375,-0.08607500046491623,0.3195500075817108,1.36166250705719
1750560172496522000,4.94952197265625,0.07273750007152557,0.7434625029563904,1.8088124990463257
1750560172506126600,4.959126708984375,0.32202500104904175,0.6762250065803528,1.999387502670288
1750560172515731200,4.968731201171875,0.489362508058548,0.19978749752044678,1.790524959564209
1750560172525335800,4.978335693359375,0.4123624861240387,-0.3096500039100647,1.3018499612808228
1750560172534940200,4.987940185546875,0.16197499632835388,-0.5905625224113464,0.7704125046730042
1750560172544544500,4.99754443359375,-0.09212499856948853,-0.5979874730110168,0.3305499851703644
1750560172554149000,5.007149169921875,-0.2461249977350235,-0.43793749809265137,0.08744999766349792
1750560172563753700,5.016753662109375,-0.27665001153945923,-0.09336250275373459,0.11302500218153
1750560172573358300,5.0263583984375,-0.17641249299049377,0.2437874972820282,0.25478750467300415
1750560172582963000,5.035962890625,0.017875000834465027,0.4661250114440918,0.34759998321533203
1750560172592567300,5.0455673828125,0.22550000250339508,0.44288748502731323,0.33660000562667847
1750560172602172000,5.055171875,0.30250000953674316,0.22426250576972961,0.16802500188350677
1750560172611776300,5.0647763671875,0.23649999499320984,0.05816249921917915,-0.06283749639987946
1750560172621380900,5.074380859375,0.11797499656677246,-0.058024998754262924,-0.25341248512268066
1750560172630985200,5.083985107421875,0.03368749842047691,-0.14231249690055847,-0.31817498803138733
1750560172640590000,5.093590087890625,0.03244999796152115,-0.16664999723434448,-0.2046000063419342
1750560172650194400,5.1031943359375,0.06668750196695328,-0.11659999936819077,0.004399999976158142
1750560172659798800,5.112798828125,0.12416250258684158,-0.04455000162124634,0.14368750154972076
1750560172669403400,5.1224033203125,0.1704999953508377,0.026399999856948853,0.12292499840259552
1750560172679008000,5.132008056640625,0.1522125005722046,0.1289750039577484,-0.02502499893307686
1750560172688612600,5.141612548828125,0.0752125009894371,0.2475000023841858,-0.2204124927520752
1750560172698217000,5.151217041015625,0.0031624999828636646,0.2975499927997589,-0.3596999943256378
1750560172707821600,5.160821533203125,-0.023787500336766243,0.24873749911785126,-0.3792249858379364
1750560172717426000,5.170426025390625,-0.012787500396370888,0.13750000298023224,-0.2961750030517578
1750560172727030500,5.180030517578125,0.043449997901916504,0.07026249915361404,-0.16183750331401825
1750560172736635100,5.18963525390625,0.10449999570846558,0.10092499852180481,-0.05555000156164169
1750560172746239700,5.19923974609375,0.13626250624656677,0.19002500176429749,-0.006599999964237213
1750560172755844000,5.208843994140625,0.1424500048160553,0.227974995970726,-0.0030249999836087227
1750560172765448700,5.21844873046875,0.1069749966263771,0.20350000262260437,-0.023787500336766243
1750560172775053300,5.22805322265625,0.020212499424815178,0.148499995470047,-0.03712499886751175
1750560172784657700,5.23765771484375,-0.07864999771118164,0.05692499876022339,-0.03355000168085098
1750560172794262300,5.24726220703125,-0.1508374959230423,-0.014024999924004078,-0.012787500396370888
1750560172803867000,5.256866943359375,-0.15812499821186066,-0.0518375001847744,0.0006874999962747097
1750560172813471200,5.26647119140625,-0.12017499655485153,-0.028599999845027924,-0.009074999950826168
1750560172823075800,5.276075927734375,-0.06531249731779099,0.06297499686479568,-0.04207500070333481
1750560172832680400,5.285680419921875,-0.016362499445676804,0.1522125005722046,-0.089649997651577
1750560172842285000,5.29528515625,-0.004124999977648258,0.19249999523162842,-0.141075000166893
1750560172851889400,5.304889404296875,-0.009074999950826168,0.2059749960899353,-0.16788749396800995
1750560172861494000,5.314493896484375,-0.021312499418854713,0.19002500176429749,-0.1691250056028366
1750560172871098600,5.3240986328125,-0.031075000762939453,0.16321249306201935,-0.1313125044107437
1750560172880703200,5.333703125,-0.040837500244379044,0.12044999748468399,-0.089649997651577
1750560172890307600,5.3433076171875,-0.05555000156164169,0.08373750001192093,-0.07507500052452087
1750560172899912000,5.352911865234375,-0.06531249731779099,0.04592499881982803,-0.07878749817609787
1750560172909516500,5.3625166015625,-0.05555000156164169,-0.0030249999836087227,-0.08112499862909317
1750560172919121000,5.372120849609375,-0.03231250122189522,-0.05431250110268593,-0.07878749817609787
1750560172928725500,5.3817255859375,-0.007837500423192978,-0.09336250275373459,-0.05431250110268593
1750560172938330000,5.391330078125,0.022687500342726707,-0.09583749622106552,0.011687500402331352
1750560172947934500,5.4009345703125,0.04963750019669533,-0.06531249731779099,0.10326249897480011
1750560172957539000,5.4105390625,0.05939999967813492,-0.02502499893307686,0.15344999730587006
1750560172967143700,5.420143798828125,0.05692499876022339,0.03244999796152115,0.12773749232292175
1750560172976748000,5.429748046875,0.04592499881982803,0.06544999778270721,0.05692499876022339
1750560172986352600,5.4393525390625,0.025162499397993088,0.05926249921321869,-0.007837500423192978
1750560172995957200,5.448957275390625,-0.0005499999970197678,0.03368749842047691,-0.028599999845027924
1750560173005561900,5.458561767578125,-0.021312499418854713,-0.0017874999903142452,-0.006599999964237213
1750560173015166200,5.468166259765625,-0.028599999845027924,-0.021312499418854713,0.022687500342726707
1750560173024770800,5.477770751953125,-0.013887500390410423,0.007974999956786633,0.03849999979138374
1750560173034375200,5.487375244140625,0.0056374999694526196,0.05321250110864639,0.025162499397993088
1750560173043979800,5.496979736328125,0.016637500375509262,0.13750000298023224,0.007974999956786633
1750560173053584400,5.50658447265625,0.025162499397993088,0.20102499425411224,-0.011549999937415123
1750560173063188700,5.516188720703125,0.026399999856948853,0.18878750503063202,-0.02736249938607216
1750560173072793300,5.52579345703125,0.021449999883770943,0.09844999760389328,-0.03355000168085098
1750560173082398000,5.53539794921875,0.006874999962747097,-0.009074999950826168,-0.02983750030398369
1750560173092002300,5.545002197265625,-0.013887500390410423,-0.07012499868869781,-0.021312499418854713
1750560173101606700,5.554606689453125,-0.02488750033080578,-0.09088750183582306,-0.012787500396370888
1750560173111211300,5.564211181640625,-0.018837500363588333,-0.05678749829530716,-0.0017874999903142452
1750560173120816000,5.573816162109375,-0.010312499478459358,-0.0042624999769032,-0.0030249999836087227
1750560173130420700,5.583420654296875,0.008112499490380287,0.04097500070929527,-0.0030249999836087227
1750560173140025300,5.593025390625,0.028875000774860382,0.0752125009894371,0.004399999976158142
1750560173149629400,5.60262939453125,0.043449997901916504,0.08373750001192093,0.017737500369548798
1750560173159234000,5.612234130859375,0.04963750019669533,0.06421250104904175,0.018975000828504562
1750560173168838700,5.621838623046875,0.04097500070929527,0.014162499457597733,-0.022549999877810478
1750560173178443300,5.631443359375,0.016637500375509262,-0.02983750030398369,-0.06407500058412552
1750560173188047600,5.641047607421875,-0.021312499418854713,-0.06902500241994858,-0.07507500052452087
1750560173197652000,5.65065185546875,-0.03355000168085098,-0.10436250269412994,-0.02736249938607216
1750560173207256600,5.660256591796875,-0.022549999877810478,-0.10188750177621841,0.06297499686479568
1750560173216861200,5.669861083984375,-0.0028874999843537807,-0.07259999960660934,0.1350249946117401
1750560173226466000,5.679466064453125,0.017875000834465027,-0.026262499392032623,0.1447875052690506
1750560173236070400,5.6890703125,0.023924998939037323,0.03616249933838844,0.07397499680519104
1750560173245674800,5.6986748046875,0.022687500342726707,0.08992499858140945,-0.02736249938607216
1750560173255279400,5.708279296875,0.018975000828504562,0.10944999754428864,-0.09831249713897705
1750560173264884000,5.717884033203125,0.015399999916553497,0.08249999582767487,-0.10559999942779541
1750560173274488300,5.72748828125,0.0019249999895691872,0.0471624992787838,-0.06531249731779099
1750560173284093000,5.737093017578125,-0.010312499478459358,0.022687500342726707,-0.006599999964237213
1750560173293697300,5.746697265625,-0.02488750033080578,0.012924999929964542,0.04097500070929527
1750560173303302000,5.756302001953125,-0.026124998927116394,0.011687500402331352,0.055687498301267624
1750560173312906500,5.765906494140625,-0.007837500423192978,0.031212499365210533,0.03973750025033951
1750560173322510800,5.7755107421875,0.025162499397993088,0.048262499272823334,0.020212499424815178
1750560173332115500,5.785115478515625,0.04839999973773956,0.05321250110864639,-0.0005499999970197678
1750560173341720000,5.794719970703125,0.04592499881982803,0.025162499397993088,-0.020075000822544098
1750560173351324700,5.80432470703125,0.025162499397993088,-0.016362499445676804,-0.04207500070333481
1750560173360929300,5.81392919921875,0.0019249999895691872,-0.038362499326467514,-0.048124998807907104
1750560173370533600,5.82353369140625,-0.015124999918043613,-0.02983750030398369,-0.03959999978542328
1750560173380138200,5.83313818359375,-0.013887500390410423,0.0006874999962747097,-0.018837500363588333
1750560173389742800,5.842742919921875,-0.0028874999843537807,0.031212499365210533,-0.014024999924004078
1750560173399347500,5.852347412109375,0.0031624999828636646,0.05926249921321869,-0.03355000168085098
1750560173408951800,5.861951904296875,-0.005362499970942736,0.08744999766349792,-0.03355000168085098
1750560173418556400,5.871556396484375,-0.015124999918043613,0.07397499680519104,-0.015124999918043613
1750560173428160800,5.881160888671875,-0.006599999964237213,0.022687500342726707,0.017737500369548798
1750560173437765000,5.89076513671875,0.014162499457597733,-0.02983750030398369,0.06421250104904175
1750560173447370000,5.900369873046875,0.023924998939037323,-0.05555000156164169,0.08868750184774399
1750560173456974300,5.909974365234375,0.016637500375509262,-0.03478749841451645,0.07397499680519104
1750560173466579000,5.919578857421875,-0.004124999977648258,0.021449999883770943,0.016637500375509262
1750560173476183300,5.929183349609375,-0.035887498408555984,0.07768750190734863,-0.060362499207258224
1750560173485787600,5.93878759765625,-0.053075000643730164,0.09597499668598175,-0.11783749610185623
1750560173495392300,5.948392333984375,-0.053075000643730164,0.0789249986410141,-0.12388750165700912
1750560173504996900,5.957996826171875,-0.03355000168085098,0.048262499272823334,-0.07012499868869781
1750560173514601500,5.9676015625,-0.007837500423192978,0.0031624999828636646,0.010449999943375587
1750560173524205800,5.977205810546875,0.010449999943375587,-0.016362499445676804,0.07397499680519104
1750560173533810400,5.986810546875,0.022687500342726707,0.0031624999828636646,0.09226249903440475
1750560173543415000,5.9964150390625,0.018975000828504562,0.05073750019073486,0.06173750013113022
1750560173553019600,6.00601953125,0.016637500375509262,0.09968750178813934,0.011687500402331352
1750560173562624000,6.0156240234375,0.017875000834465027,0.11426249891519547,-0.02502499893307686
1750560173572228600,6.025228515625,0.0056374999694526196,0.0752125009894371,-0.03712499886751175
1750560173581833200,6.034833251953125,-0.004124999977648258,0.025162499397993088,-0.016362499445676804
1750560173591437600,6.0444375,-0.01759999990463257,-0.026262499392032623,0.004399999976158142
1750560173601042200,6.054042236328125,-0.04331250116229057,-0.05678749829530716,-0.0017874999903142452
1750560173610646800,6.063646728515625,-0.06159999966621399,-0.040837500244379044,-0.02983750030398369
1750560173620251100,6.073251220703125,-0.06888750195503235,-0.0030249999836087227,-0.05555000156164169
1750560173629855700,6.082855712890625,-0.05664999783039093,0.017737500369548798,-0.03712499886751175
1750560173639460400,6.09246044921875,-0.035887498408555984,0.022687500342726707,0.016637500375509262
1750560173649064700,6.102064697265625,-0.006599999964237213,0.03973750025033951,0.09116250276565552
1750560173658669300,6.11166943359375,0.010449999943375587,0.05321250110864639,0.14973749220371246
1750560173668274000,6.12127392578125,0.010449999943375587,0.06173750013113022,0.15702499449253082
1750560173677878500,6.13087841796875,-0.0005499999970197678,0.027499999850988388,0.1106875017285347
1750560173687483000,6.14048291015625,-0.02488750033080578,-0.026262499392032623,0.03492499887943268
1750560173697087500,6.15008740234375,-0.04455000162124634,-0.05555000156164169,-0.026124998927116394
1750560173706692000,6.159692138671875,-0.05431250110268593,-0.053075000643730164,-0.053075000643730164
1750560173725901000,6.178901123046875,-0.006599999964237213,0.043449997901916504,-0.036024998873472214
1750560173735505700,6.188505615234375,0.023924998939037323,0.10092499852180481,-0.023787500336766243
1750560173745110000,6.198110107421875,0.04221250116825104,0.14973749220371246,-0.015124999918043613
1750560173754714600,6.207714599609375,0.03244999796152115,0.1765500009059906,-0.020075000822544098
1750560173764319200,6.2173193359375,0.011687500402331352,0.15578749775886536,-0.022549999877810478
1750560173773923800,6.226923828125,-0.0028874999843537807,0.08002500236034393,-0.020075000822544098
1750560173783528400,6.236528564453125,-0.015124999918043613,-0.009074999950826168,-0.015124999918043613
1750560173793132800,6.2461328125,-0.02736249938607216,-0.07631249725818634,-0.0030249999836087227
1750560173802737400,6.2557373046875,-0.03464999794960022,-0.09212499856948853,0.014162499457597733
1750560173812341800,6.265341796875,-0.038362499326467514,-0.04455000162124634,0.043449997901916504
1750560173821946400,6.2749462890625,-0.026124998927116394,0.009212499484419823,0.07026249915361404
1750560173831551000,6.284551025390625,0.004399999976158142,0.03492499887943268,0.09721250087022781
1750560173841155600,6.294155517578125,0.043449997901916504,0.03726249933242798,0.11426249891519547
1750560173850760200,6.30376025390625,0.06792499870061874,0.04221250116825104,0.12044999748468399
1750560173860364500,6.313364501953125,0.05692499876022339,0.03973750025033951,0.10326249897480011
1750560173869969200,6.32296923828125,0.014162499457597733,-0.0005499999970197678,0.07026249915361404
1750560173879573800,6.33257373046875,-0.020075000822544098,-0.04331250116229057,0.05926249921321869
1750560173889178000,6.34217822265625,-0.04331250116229057,-0.07136250287294388,0.07273750007152557
1750560173908387300,6.36138720703125,-0.05664999783039093,0.020212499424815178,0.1447875052690506
1750560173917991700,6.37099169921875,-0.02736249938607216,0.05073750019073486,0.21697500348091125
1750560173927596000,6.380595947265625,0.004399999976158142,0.0471624992787838,0.3255999982357025
1750560173937200600,6.39020068359375,-0.0017874999903142452,0.016499999910593033,0.42336249351501465
1750560173946805200,6.39980517578125,-0.06407500058412552,-0.006599999964237213,0.48454999923706055
1750560173956409900,6.409409912109375,-0.14588749408721924,-0.011549999937415123,0.5003625154495239
1750560173966014200,6.41901416015625,-0.22288750112056732,-0.006599999964237213,0.4758875072002411
1750560173975618600,6.42861865234375,-0.26922500133514404,0.08249999582767487,0.4355999827384949
1750560173985223200,6.43822314453125,-0.2839374840259552,0.25478750467300415,0.3880249857902527
1750560173994827800,6.447827880859375,-0.27665001153945923,0.47712498903274536,0.3207874894142151
1750560174004432400,6.457432373046875,-0.25093749165534973,0.6934124827384949,0.19744999706745148
1750560174014037000,6.467037109375,-0.24365000426769257,0.8204625248908997,-0.0030249999836087227
1750560174023641300,6.476641357421875,-0.29122498631477356,0.8852249979972839,-0.28146249055862427
1750560174033246000,6.486245849609375,-0.3657499849796295,0.9304624795913696,-0.6065124869346619
1750560174042850300,6.495850341796875,-0.46970000863075256,0.9304624795913696,-0.9473749995231628
1750560174052455000,6.505454833984375,-0.593037486076355,0.8680375218391418,-1.3517625331878662
1750560174062059500,6.5150595703125,-0.7836124897003174,0.6921749711036682,-1.8929624557495117
1750560174071664000,6.5246640625,-1.016950011253357,0.406312495470047,-2.630924940109253
1750560174081268500,6.5342685546875,-1.1721874475479126,0.24997499585151672,-3.450700044631958
1750560174090873000,6.543873046875,-1.1232374906539917,0.3330250084400177,-4.220287322998047
1750560174100477400,6.5534775390625,-0.9278500080108643,0.36602500081062317,-4.908199787139893
1750560174110082000,6.56308203125,-0.7335624694824219,0.07768750190734863,-5.5471625328063965
1750560174119686700,6.572686767578125,-0.6052749752998352,-0.46351251006126404,-6.133462429046631
1750560174129291300,6.582291259765625,-0.5955125093460083,-0.9926124811172485,-6.590374946594238
1750560174138895600,6.5918955078125,-0.6590374708175659,-1.6608624458312988,-6.809137344360352
1750560174148500000,6.6015,-0.6858500242233276,-2.6137375831604004,-6.6661376953125
1750560174158104600,6.6111044921875,-0.4390375018119812,-3.1879374980926514,-5.758500099182129
1750560174167709000,6.620708984375,-0.2046000063419342,-2.827549934387207,-3.918612480163574
1750560174177313500,6.6303134765625,-0.10917499661445618,-1.8489625453948975,-1.6229125261306763
1750560174186918100,6.639918212890625,-0.006599999964237213,-1.038949966430664,0.2817375063896179
1750560174196522800,6.649522705078125,0.1143999993801117,-0.7360374927520752,1.466712474822998
1750560174206127000,6.659127197265625,0.1839749962091446,-0.7653250098228455,2.125200033187866
1750560174215731700,6.668731689453125,0.3367374837398529,-0.8960874676704407,2.352487564086914
1750560174225336300,6.67833642578125,0.5040749907493591,-0.9608500003814697,2.0690999031066895
1750560174234941000,6.68794091796875,0.600600004196167,-0.8080874681472778,1.3323750495910645
1750560174244545300,6.697545166015625,0.6433625221252441,-0.3499374985694885,0.3940750062465668
1750560174254150000,6.70714990234375,0.6274124979972839,0.26826250553131104,-0.3596999943256378
1750560174263754200,6.716754150390625,0.5516499876976013,0.7532249689102173,-0.596750020980835
1750560174273358800,6.72635888671875,0.4258374869823456,0.9022749662399292,-0.24488750100135803
1750560174282963500,6.73596337890625,0.29026249051094055,0.8412249684333801,0.605412483215332
1750560174292568000,6.745568115234375,0.09968750178813934,0.5626500248908997,1.5852375030517578
1750560174302172400,6.75517236328125,-0.11659999936819077,0.25478750467300415,2.3610124588012695
1750560174311777000,6.764777099609375,-0.2241249978542328,0.18878750503063202,2.8264498710632324
1750560174321381600,6.774381591796875,-0.2069374918937683,0.4123624861240387,3.0329749584198
1750560174330986200,6.783986328125,-0.12759999930858612,0.7214624881744385,3.0806875228881836
1750560174340590600,6.793590576171875,-0.012787500396370888,0.792412519454956,3.009737491607666
1750560174350195200,6.8031953125,0.08373750001192093,0.5785999894142151,2.909637451171875
1750560174359799800,6.8127998046875,0.05444999784231186,0.34759998321533203,2.885162591934204
1750560174369404400,6.822404296875,-0.02983750030398369,0.4025999903678894,3.062262535095215
1750560174379008800,6.8320087890625,-0.048124998807907104,0.5113624930381775,3.390887498855591
1750560174388613400,6.84161328125,-0.023787500336766243,0.5578374862670898,3.7146999835968018
1750560174398217700,6.8512177734375,-0.011549999937415123,0.5981249809265137,3.7354624271392822
1750560174407822300,6.860822265625,-0.021312499418854713,0.43188750743865967,3.33231258392334
1750560174417426700,6.8704267578125,-0.04207500070333481,-0.04331250116229057,2.6493499279022217
1750560174427031300,6.88003125,-0.05431250110268593,-0.6015625,1.9053374528884888
1750560174436636000,6.889635986328125,-0.089649997651577,-0.7983250021934509,1.2676124572753906
1750560174446240500,6.899240478515625,-0.12759999930858612,-0.5820375084877014,0.7484124898910522
1750560174455845000,6.90884521484375,-0.1691250056028366,-0.20941250026226044,0.32807499170303345
1750560174465449500,6.918449462890625,-0.13859999179840088,0.21931250393390656,0.10821250081062317
1750560174475053800,6.9280537109375,-0.05912499874830246,0.47341248393058777,0.07273750007152557
1750560174484658400,6.937658447265625,0.03987500071525574,0.522362470626831,0.1424500048160553
1750560174494263000,6.947262939453125,0.10944999754428864,0.3525499999523163,0.1522125005722046
1750560174503867400,6.956867431640625,0.09844999760389328,0.07150000333786011,0.03739999979734421
1750560174513472000,6.966471923828125,0.04097500070929527,-0.13488750159740448,-0.1434125006198883
1750560174523076600,6.97607666015625,-0.016362499445676804,-0.22165000438690186,-0.3548874855041504
1750560174532681200,6.98568115234375,-0.026124998927116394,-0.21793749928474426,-0.5246999859809875
1750560174542285600,6.99528564453125,-0.006599999964237213,-0.19965000450611115,-0.5735124945640564
1750560174551890200,7.00489013671875,0.04221250116825104,-0.06778749823570251,-0.391462504863739
1750560174561494800,7.014494873046875,0.08992499858140945,0.09473749995231628,-0.07136250287294388
1750560174571099100,7.02409912109375,0.116737499833107,0.17173749208450317,0.1839749962091446
1750560174580703700,7.033703857421875,0.13392500579357147,0.16321249306201935,0.2475000023841858
1750560174590308400,7.043308349609375,0.13392500579357147,0.08249999582767487,0.15578749775886536
1750560174599912700,7.05291259765625,0.10339999943971634,-0.012787500396370888,-0.0005499999970197678
1750560174609517300,7.062517333984375,0.08016250282526016,-0.08112499862909317,-0.1153625026345253
1750560174619122000,7.072121826171875,0.08249999582767487,-0.12388750165700912,-0.1288374960422516
1750560174628726300,7.081726318359375,0.0789249986410141,-0.15565000474452972,-0.07136250287294388
1750560174638331000,7.091330810546875,0.07644999772310257,-0.09707500040531158,0.0019249999895691872
1750560174647935500,7.100935546875,0.08992499858140945,-0.006599999964237213,0.027499999850988388
1750560174657540000,7.1105400390625,0.10339999943971634,0.03849999979138374,-0.01759999990463257
1750560174667144700,7.120144775390625,0.09721250087022781,0.04097500070929527,-0.10064999759197235
1750560174676749000,7.1297490234375,0.07273750007152557,0.03244999796152115,-0.16417500376701355
1750560174686353700,7.139353759765625,0.06544999778270721,0.03368749842047691,-0.16664999723434448
1750560174695958300,7.148958251953125,0.07039999961853027,-0.007837500423192978,-0.12031249701976776
1750560174705562400,7.158562255859375,0.08868750184774399,-0.048124998807907104,-0.050599999725818634
1750560174715167000,7.1681669921875,0.1106875017285347,-0.03959999978542328,-0.0030249999836087227
1750560174724771600,7.177771484375,0.1143999993801117,0.03492499887943268,0.016637500375509262
1750560174734376200,7.187376220703125,0.09844999760389328,0.12044999748468399,0.011687500402331352
1750560174743980500,7.19698046875,0.06063750013709068,0.16802500188350677,-0.009074999950826168
1750560174753585200,7.206585205078125,0.026399999856948853,0.1264999955892563,-0.022549999877810478
1750560174763189500,7.216189453125,0.012924999929964542,-0.0042624999769032,-0.009074999950826168
1750560174772794000,7.225794189453125,0.009212499484419823,-0.1373624950647354,0.03492499887943268
1750560174782398700,7.235398681640625,0.004399999976158142,-0.18136249482631683,0.10092499852180481
1750560174792003000,7.245003173828125,-0.004124999977648258,-0.17036250233650208,0.14368750154972076
1750560174801607700,7.254607666015625,-0.0028874999843537807,-0.1313125044107437,0.14726249873638153
1750560174811212300,7.26421240234375,0.0056374999694526196,-0.048124998807907104,0.10573749989271164
1750560174820817000,7.27381689453125,0.012924999929964542,0.03973750025033951,0.031212499365210533
1750560174830421500,7.28342138671875,0.009212499484419823,0.12044999748468399,-0.031075000762939453
1750560174840025900,7.29302587890625,0.0031624999828636646,0.13144999742507935,-0.060362499207258224
1750560174849630500,7.30263037109375,0.009212499484419823,0.09473749995231628,-0.045787498354911804
1750560174859235000,7.312235107421875,0.015399999916553497,0.0031624999828636646,-0.005362499970942736
1750560174868839400,7.32183935546875,0.010449999943375587,-0.04455000162124634,0.03739999979734421
1750560174878444000,7.331444091796875,0.006874999962747097,-0.03478749841451645,0.05692499876022339
1750560174888048600,7.341048583984375,0.010449999943375587,-0.016362499445676804,0.05073750019073486
1750560174897653000,7.350653076171875,0.027637500315904617,0.005499999970197678,0.04839999973773956
1750560174907257600,7.360257568359375,0.03244999796152115,0.028737500309944153,0.0471624992787838
1750560174916862200,7.3698623046875,0.031212499365210533,0.06297499686479568,0.05444999784231186
1750560174926466600,7.379466552734375,0.03616249933838844,0.09350000321865082,0.0494999997317791
1750560174936071200,7.3890712890625,0.03616249933838844,0.09597499668598175,0.023924998939037323
1750560174945675800,7.39867578125,0.022687500342726707,0.07397499680519104,-0.01759999990463257
1750560174955280100,7.408280029296875,0.009212499484419823,0.03492499887943268,-0.048124998807907104
1750560174964884700,7.417884765625,0.004399999976158142,0.012924999929964542,-0.03355000168085098
1750560174974489000,7.427489013671875,0.011687500402331352,0.006737499963492155,0.017737500369548798
1750560174984093700,7.43709375,0.025162499397993088,0.0006874999962747097,0.09226249903440475
1750560174993698300,7.4466982421875,0.03368749842047691,0.026399999856948853,0.15826250612735748
1750560175003302700,7.456302734375,0.03368749842047691,0.06792499870061874,0.16926249861717224
1750560175012907300,7.4659072265625,0.012924999929964542,0.09226249903440475,0.11921250075101852
1750560175022511900,7.475511962890625,-0.021312499418854713,0.10092499852180481,0.0494999997317791
1750560175032116200,7.4851162109375,-0.0518375001847744,0.08373750001192093,-0.015124999918043613
1750560175041720800,7.494720947265625,-0.07383749634027481,0.03849999979138374,-0.05678749829530716
1750560175051325400,7.504325439453125,-0.08112499862909317,-0.0017874999903142452,-0.060362499207258224
1750560175060930000,7.513929931640625,-0.053075000643730164,-0.023787500336766243,-0.026124998927116394
1750560175070534700,7.52353466796875,-0.007837500423192978,-0.03231250122189522,0.021449999883770943
1750560175080139300,7.53313916015625,0.03739999979734421,-0.0030249999836087227,0.055687498301267624
1750560175089743600,7.54274365234375,0.06916250288486481,0.07397499680519104,0.07397499680519104
1750560175099348200,7.55234814453125,0.05939999967813492,0.14602500200271606,0.07644999772310257
1750560175108952600,7.56195263671875,0.028875000774860382,0.15950000286102295,0.06916250288486481
1750560175118557200,7.57155712890625,-0.0017874999903142452,0.10449999570846558,0.05692499876022339
1750560175128161500,7.58116162109375,-0.026124998927116394,0.0006874999962747097,0.04839999973773956
1750560175137766100,7.59076611328125,-0.035887498408555984,-0.09831249713897705,0.04468749836087227
1750560175147370800,7.600370849609375,-0.031075000762939453,-0.12759999930858612,0.04592499881982803
1750560175156975000,7.60997509765625,-0.013887500390410423,-0.09707500040531158,0.0494999997317791
1750560175166579700,7.619579833984375,0.006874999962747097,0.0006874999962747097,0.06668750196695328
1750560175176184300,7.629184326171875,0.031212499365210533,0.07273750007152557,0.08373750001192093
1750560175185789000,7.638788818359375,0.05197500064969063,0.08002500236034393,0.09844999760389328
1750560175195393300,7.648393310546875,0.06668750196695328,0.0471624992787838,0.11426249891519547
1750560175204998000,7.657997802734375,0.08016250282526016,0.015399999916553497,0.13021250069141388
1750560175214602500,7.6676025390625,0.08016250282526016,-0.009074999950826168,0.12526249885559082
1750560175224206800,7.677206787109375,0.06792499870061874,-0.03712499886751175,0.07644999772310257
1750560175233811500,7.6868115234375,0.04468749836087227,-0.040837500244379044,0.007974999956786633
1750560175243416000,7.696416015625,0.009212499484419823,-0.028599999845027924,-0.053075000643730164
1750560175253020400,7.7060205078125,-0.031075000762939453,0.022687500342726707,-0.08483749628067017
1750560175262625000,7.715625,-0.053075000643730164,0.09721250087022781,-0.07507500052452087
1750560175272229400,7.7252294921875,-0.04688749834895134,0.1447875052690506,-0.03959999978542328
1750560175281834000,7.734833984375,-0.007837500423192978,0.14368750154972076,0.009212499484419823
1750560175291438800,7.74443896484375,0.03368749842047691,0.08744999766349792,0.05444999784231186
1750560175301043200,7.754043212890625,0.06544999778270721,-0.0030249999836087227,0.0849749967455864
1750560175310647600,7.7636474609375,0.06792499870061874,-0.07631249725818634,0.09844999760389328
1750560175320252200,7.773252197265625,0.05073750019073486,-0.12155000120401382,0.08868750184774399
1750560175329856800,7.782856689453125,0.020212499424815178,-0.1508374959230423,0.04592499881982803
1750560175339461400,7.79246142578125,-0.012787500396370888,-0.1373624950647354,0.0006874999962747097
1750560175349065700,7.802065673828125,-0.03959999978542328,-0.053075000643730164,-0.03231250122189522
1750560175358670300,7.81167041015625,-0.03712499886751175,0.06421250104904175,-0.06159999966621399
1750560175368274700,7.821274658203125,-0.007837500423192978,0.1545500010251999,-0.0873124971985817
1750560175377879300,7.83087939453125,0.020212499424815178,0.20350000262260437,-0.09088750183582306
1750560175387484000,7.84048388671875,0.029975000768899918,0.18273749947547913,-0.06778749823570251
1750560175397088500,7.850088623046875,0.015399999916553497,0.08621250092983246,-0.02736249938607216
1750560175406692900,7.85969287109375,-0.016362499445676804,-0.03231250122189522,0.027499999850988388
1750560175416297200,7.869297119140625,-0.0518375001847744,-0.14836250245571136,0.0752125009894371
1750560175425901800,7.87890185546875,-0.07136250287294388,-0.2008875012397766,0.09473749995231628
1750560175435506700,7.888506591796875,-0.07864999771118164,-0.12155000120401382,0.08621250092983246
1750560175445111000,7.898111083984375,-0.06641250103712082,0.014162499457597733,0.03973750025033951
1750560175454715400,7.90771533203125,-0.03355000168085098,0.11550000309944153,-0.031075000762939453
1750560175464320300,7.9173203125,-0.0028874999843537807,0.148499995470047,-0.08607500046491623
1750560175473924600,7.926924560546875,0.011687500402331352,0.1069749966263771,-0.10188750177621841
1750560175483529200,7.936529296875,0.012924999929964542,0.027499999850988388,-0.05912499874830246
1750560175493133600,7.946133544921875,-0.0028874999843537807,-0.06407500058412552,0.006737499963492155
1750560175502738200,7.95573828125,-0.02488750033080578,-0.13983750343322754,0.060499999672174454
1750560175512342800,7.9653427734375,-0.04455000162124634,-0.1886499971151352,0.08016250282526016
1750560175521947100,7.974947021484375,-0.06159999966621399,-0.16307500004768372,0.07644999772310257
1750560175531551700,7.9845517578125,-0.05431250110268593,-0.10188750177621841,0.05816249921917915
1750560175541156400,7.99415625,-0.018837500363588333,-0.040837500244379044,0.020212499424815178
1750560175550761000,8.003760986328125,0.020212499424815178,0.022687500342726707,-0.026124998927116394
1750560175560365300,8.013365234375,0.05197500064969063,0.0812624990940094,-0.07012499868869781
1750560175569970000,8.022969970703125,0.06173750013113022,0.12402500212192535,-0.1116499975323677
1750560175579574500,8.032574462890626,0.05444999784231186,0.12773749232292175,-0.11659999936819077
1750560175589179100,8.04217919921875,0.03987500071525574,0.08744999766349792,-0.0775500014424324
1750560175598783500,8.051783447265626,0.018975000828504562,0.017737500369548798,-0.010312499478459358
1750560175608388000,8.06138818359375,0.0006874999962747097,-0.060362499207258224,0.05444999784231186
1750560175617992400,8.070992431640626,-0.005362499970942736,-0.09336250275373459,0.0849749967455864
1750560175627597000,8.08059716796875,-0.009074999950826168,-0.06778749823570251,0.06916250288486481
1750560175637201700,8.09020166015625,-0.013887500390410423,-0.0005499999970197678,0.006737499963492155
1750560175646806300,8.09980615234375,-0.015124999918043613,0.07273750007152557,-0.06283749639987946
1750560175656410600,8.10941064453125,-0.006599999964237213,0.116737499833107,-0.09459999948740005
1750560175666015200,8.11901513671875,-0.0017874999903142452,0.11797499656677246,-0.0775500014424324
1750560175675619600,8.12861962890625,0.006874999962747097,0.10449999570846558,-0.022549999877810478
1750560175685224200,8.13822412109375,0.016637500375509262,0.0752125009894371,0.028737500309944153
1750560175694828800,8.147828857421874,0.021449999883770943,0.03849999979138374,0.05816249921917915
1750560175704433200,8.15743310546875,0.021449999883770943,-0.006599999964237213,0.05816249921917915
1750560175714037800,8.167037841796875,0.006874999962747097,-0.03712499886751175,0.04839999973773956
1750560175723642000,8.17664208984375,-0.02983750030398369,-0.04702499881386757,0.04592499881982803
1750560175733246700,8.186246826171875,-0.06888750195503235,-0.02983750030398369,0.05321250110864639
1750560175742851300,8.195851318359376,-0.07741250097751617,0.007974999956786633,0.06544999778270721
1750560175752456000,8.2054560546875,-0.0518375001847744,0.043449997901916504,0.06668750196695328
1750560175771665000,8.224664794921875,0.021449999883770943,0.06792499870061874,0.05073750019073486
1750560175781269500,8.23426953125,0.04592499881982803,0.06668750196695328,0.04097500070929527
1750560175790874000,8.2438740234375,0.05197500064969063,0.04468749836087227,0.022687500342726707
1750560175800478500,8.253478515625,0.043449997901916504,0.025162499397993088,0.0006874999962747097
1750560175810083000,8.2630830078125,0.008112499490380287,0.03368749842047691,-0.015124999918043613
1750560175819687400,8.2726875,-0.03355000168085098,0.04221250116825104,-0.01759999990463257
1750560175829292000,8.2822919921875,-0.04331250116229057,0.029975000768899918,0.004399999976158142
1750560175838896600,8.291896728515624,-0.031075000762939453,0.0019249999895691872,0.03368749842047691
1750560175848501000,8.3015009765625,-0.011549999937415123,-0.009074999950826168,0.060499999672174454
1750560175858105600,8.311105712890624,0.0031624999828636646,-0.010312499478459358,0.0752125009894371
1750560175867710200,8.320710205078125,0.021449999883770943,-0.011549999937415123,0.09473749995231628
1750560175877314800,8.330314697265624,0.03863750025629997,-0.026262499392032623,0.13626250624656677
1750560175886919200,8.339919189453125,0.027637500315904617,-0.045787498354911804,0.1704999953508377
1750560175896523800,8.349523681640624,0.0056374999694526196,-0.048124998807907104,0.19744999706745148
1750560175906128400,8.35912841796875,-0.01759999990463257,-0.03478749841451645,0.19249999523162842
1750560175915732700,8.368732666015624,-0.040837500244379044,0.006737499963492155,0.18273749947547913
1750560175925337300,8.37833740234375,-0.050599999725818634,0.022687500342726707,0.18521249294281006
1750560175934942000,8.38794189453125,-0.04936249926686287,0.011687500402331352,0.2303124964237213
1750560175944546600,8.397546630859376,-0.048124998807907104,-0.04207500070333481,0.32202500104904175
1750560175954151000,8.40715087890625,-0.05912499874830246,-0.11783749610185623,0.4380750060081482
1750560175963755500,8.416755615234376,-0.07631249725818634,-0.133650004863739,0.5273125171661377
1750560175973360000,8.426360107421875,-0.08483749628067017,-0.0518375001847744,0.5296499729156494
1750560175982964700,8.43596484375,-0.08236250281333923,0.14121249318122864,0.4160749912261963
1750560175992569000,8.445569091796875,-0.06764999777078629,0.34759998321533203,0.2022625058889389
1750560176002173700,8.455173583984376,-0.08236250281333923,0.4918375015258789,-0.08607500046491623
1750560176011778300,8.4647783203125,-0.15936249494552612,0.526075005531311,-0.4684624969959259
1750560176021382700,8.474382568359376,-0.27293750643730164,0.4283125102519989,-0.9926124811172485
1750560176030987300,8.4839873046875,-0.40617498755455017,0.2890250086784363,-1.5960999727249146
1750560176040592000,8.493591796875,-0.5234624743461609,0.14368750154972076,-2.1788249015808105
1750560176050196200,8.5031962890625,-0.5770875215530396,0.15578749775886536,-2.7530250549316406
1750560176059800600,8.512800537109374,-0.6028000116348267,0.31349998712539673,-3.450700044631958
1750560176069405400,8.522405517578125,-0.6565625071525574,0.27431249618530273,-4.398624897003174
1750560176079009500,8.532009521484374,-0.723800003528595,0.17297500371932983,-5.417637348175049
1750560176088614100,8.5416142578125,-0.6395124793052673,-0.06531249731779099,-6.277699947357178
1750560176098218800,8.55121875,-0.4427500069141388,-0.37564998865127563,-6.83718729019165
1750560176107823600,8.56082373046875,-0.20817500352859497,-0.6980875134468079,-6.971662521362305
1750560176117428000,8.570427978515625,0.006874999962747097,-1.0879000425338745,-6.684562683105469
1750560176127032300,8.5800322265625,0.11550000309944153,-1.253999948501587,-6.090700149536133
1750560176136637000,8.589636962890625,0.06297499686479568,-1.0646624565124512,-5.234350204467773
1750560176146241500,8.599241455078126,-0.07012499868869781,-0.6199874877929688,-4.047999858856201
1750560176155846000,8.608845947265625,-0.07631249725818634,-0.382937490940094,-2.445162534713745
1750560176165450500,8.618450439453126,-0.031075000762939453,-0.7470374703407288,-0.6639875173568726
1750560176175055000,8.62805517578125,-0.07507500052452087,-1.458050012588501,0.8522250056266785
1750560176184659500,8.637659423828126,-0.133650004863739,-1.9967750310897827,1.7623374462127686
1750560176194264000,8.64726416015625,-0.15936249494552612,-2.1422500610351562,2.0690999031066895
1750560176203868700,8.65686865234375,-0.10312499850988388,-1.781862497329712,2.023862600326538
1750560176213473300,8.666473388671875,0.022687500342726707,-1.0561374425888062,1.8222874402999878
1750560176223077600,8.67607763671875,0.10216250270605087,-0.37564998865127563,1.6267625093460083
1750560176232682200,8.68568212890625,0.13750000298023224,0.2877874970436096,1.61947500705719
1750560176242286800,8.695286865234374,0.13392500579357147,0.7117000222206116,1.7917624711990356
1750560176251891200,8.70489111328125,0.10216250270605087,0.8766999840736389,2.13138747215271
1750560176261495800,8.714495849609374,-0.022549999877810478,0.7899374961853027,2.556537389755249
1750560176271100400,8.724100341796875,-0.2363625019788742,0.6848874688148499,3.0707874298095703
1750560176280705000,8.733705078125,-0.43546250462532043,0.6958875060081482,3.566887378692627
1750560176290309600,8.7433095703125,-0.5770875215530396,0.754462480545044,3.869800090789795
1750560176299914000,8.7529140625,-0.6382749676704407,0.9157499670982361,3.9760875701904297
1750560176309518300,8.762518310546875,-0.640749990940094,0.9950875043869019,3.9480373859405518
1750560176319123000,8.772123046875,-0.5478000044822693,0.866937518119812,3.9443249702453613
1750560176328727600,8.7817275390625,-0.4269374907016754,0.7154124975204468,3.990799903869629
1750560176338332200,8.791332275390625,-0.2924624979496002,0.6641250252723694,3.896749973297119
1750560176347936500,8.8009365234375,-0.1751749962568283,0.45883750915527344,3.4691250324249268
1750560176357540900,8.810540771484375,-0.1373624950647354,0.11426249891519547,2.753162384033203
1750560176367145700,8.820145751953126,-0.15936249494552612,-0.2974124848842621,1.995674967765808
1750560176376750000,8.82975,-0.17641249299049377,-0.5112249851226807,1.5547125339508057
1750560176386354400,8.8393544921875,-0.15565000474452972,-0.566224992275238,1.5437124967575073
1750560176395959000,8.848958984375,-0.1508374959230423,-0.5687000155448914,1.681762456893921
1750560176405563600,8.858563720703126,-0.09831249713897705,-0.2864125072956085,1.6634750366210938
1750560176415168300,8.868168212890625,0.03616249933838844,0.07150000333786011,1.3201375007629395
1750560176424772600,8.877772705078126,0.15468749403953552,0.39902499318122864,0.7739874720573425
1750560176434377200,8.887377197265625,0.21078750491142273,0.596887469291687,0.2620750069618225
1750560176443981800,8.89698193359375,0.19744999706745148,0.5431249737739563,-0.07631249725818634
1750560176453586200,8.906586181640625,0.15826250612735748,0.3232625126838684,-0.19593749940395355
1750560176463190800,8.916190673828124,0.12773749232292175,0.0019249999895691872,-0.1471250057220459
1750560176472795400,8.92579541015625,0.09350000321865082,-0.271699994802475,0.027499999850988388
1750560176482399700,8.935399658203124,0.07397499680519104,-0.37070000171661377,0.22673749923706055
1750560176492004400,8.94500439453125,0.06063750013709068,-0.3218874931335449,0.33178749680519104
1750560176501609000,8.95460888671875,0.05816249921917915,-0.141075000166893,0.33660000562667847
1750560176511213300,8.96421337890625,0.07768750190734863,0.005499999970197678,0.2609750032424927
1750560176520818000,8.97381787109375,0.11797499656677246,0.07768750190734863,0.1350249946117401
1750560176530422500,8.983422607421875,0.13021250069141388,0.10202500224113464,-0.04936249926686287
1750560176540027100,8.993027099609375,0.10092499852180481,0.10326249897480011,-0.24969999492168427
1750560176549631700,9.0026318359375,0.06916250288486481,0.07644999772310257,-0.37798750400543213
1750560176559236400,9.012236328125,0.08249999582767487,0.055687498301267624,-0.37441250681877136
1750560176568840700,9.0218408203125,0.14726249873638153,0.04221250116825104,-0.2461249977350235
1750560176578445300,9.0314453125,0.2120250016450882,0.015399999916553497,-0.08112499862909317
1750560176588050000,9.0410498046875,0.24873749911785126,0.005499999970197678,0.043449997901916504
1750560176597654300,9.050654296875,0.24502499401569366,0.03244999796152115,0.10326249897480011
1750560176607259000,9.0602587890625,0.20350000262260437,0.08621250092983246,0.09350000321865082
1750560176616863200,9.06986328125,0.1461624950170517,0.09597499668598175,0.020212499424815178
1750560176626467800,9.0794677734375,0.08249999582767487,0.055687498301267624,-0.07631249725818634
1750560176636072200,9.089072265625,0.03739999979734421,0.020212499424815178,-0.14231249690055847
1750560176645676800,9.0986767578125,0.014162499457597733,-0.022549999877810478,-0.16541250050067902
1750560176655281400,9.108281494140625,0.020212499424815178,-0.02983750030398369,-0.1568875014781952
1750560176664885800,9.1178857421875,0.04839999973773956,-0.005362499970942736,-0.12636250257492065
1750560176674490400,9.127490478515625,0.09239999949932098,0.05444999784231186,-0.09583749622106552
1750560176684095000,9.137094970703124,0.12292499840259552,0.1447875052690506,-0.07383749634027481
1750560176693699600,9.146699462890625,0.1264999955892563,0.2340250015258789,-0.0518375001847744
1750560176703304000,9.156303955078124,0.10449999570846558,0.28654998540878296,-0.021312499418854713
1750560176712908300,9.165908203125,0.06668750196695328,0.24502499401569366,0.009212499484419823
1750560176722513000,9.175512939453125,0.03492499887943268,0.09968750178813934,0.026399999856948853
1750560176732117500,9.185117431640625,-0.006599999964237213,-0.09583749622106552,0.014162499457597733
1750560176741722000,9.19472216796875,-0.04331250116229057,-0.24860000610351562,-0.009074999950826168
1750560176751326500,9.204326416015626,-0.0798875018954277,-0.3144625127315521,-0.031075000762939453
1750560176760931000,9.21393115234375,-0.11041250079870224,-0.27665001153945923,-0.02736249938607216
1750560176770535700,9.22353564453125,-0.10312499850988388,-0.1288374960422516,0.018975000828504562
1750560176780140300,9.233140380859375,-0.045649997889995575,0.023924998939037323,0.09473749995231628
1750560176789744600,9.24274462890625,0.017875000834465027,0.13021250069141388,0.15344999730587006
1750560176799349200,9.252349365234375,0.08016250282526016,0.18150000274181366,0.16321249306201935
1750560176808953900,9.261953857421876,0.12416250258684158,0.1704999953508377,0.13997499644756317
1750560176818558200,9.27155810546875,0.12044999748468399,0.12402500212192535,0.09473749995231628
1750560176828162800,9.281162841796874,0.07644999772310257,0.05926249921321869,0.031212499365210533
1750560176837767400,9.290767333984375,0.022687500342726707,-0.011549999937415123,-0.03959999978542328
1750560176847371800,9.300371826171874,-0.021312499418854713,-0.06902500241994858,-0.09831249713897705
1750560176856976400,9.309976318359375,-0.04936249926686287,-0.04702499881386757,-0.12388750165700912
1750560176866581000,9.3195810546875,-0.053075000643730164,0.06668750196695328,-0.1434125006198883
1750560176876185600,9.329185546875,-0.018837500363588333,0.2083124965429306,-0.18741250038146973
1750560176885790000,9.3387900390625,0.026399999856948853,0.3170749843120575,-0.21683749556541443
1750560176895394600,9.34839453125,0.05197500064969063,0.31831249594688416,-0.21312500536441803
1750560176904999200,9.357999267578125,0.0789249986410141,0.196212500333786,-0.15331250429153442
1750560176914603500,9.367603515625,0.10573749989271164,0.022687500342726707,-0.03231250122189522
1750560176924208000,9.3772080078125,0.08992499858140945,-0.12155000120401382,0.0789249986410141
1750560176933812700,9.386812744140625,0.04963750019669533,-0.17765000462532043,0.13750000298023224
1750560176943417300,9.396417236328125,0.014162499457597733,-0.15331250429153442,0.12773749232292175
1750560176953021700,9.406021728515626,-0.013887500390410423,-0.1093124970793724,0.05692499876022339
1750560176962626300,9.415626220703125,-0.03231250122189522,-0.0518375001847744,-0.028599999845027924
1750560176972231000,9.42523095703125,-0.04455000162124634,0.021449999883770943,-0.089649997651577
1750560176981835300,9.434835205078125,-0.040837500244379044,0.06544999778270721,-0.10683749616146088
1750560176991440000,9.44443994140625,-0.016362499445676804,0.08249999582767487,-0.09583749622106552
1750560177001044500,9.45404443359375,0.011687500402331352,0.10092499852180481,-0.06888750195503235
1750560177010648800,9.46364892578125,0.04097500070929527,0.09968750178813934,-0.03478749841451645
1750560177020253200,9.473253173828125,0.05939999967813492,0.05926249921321869,-0.007837500423192978
1750560177029857800,9.48285791015625,0.05816249921917915,-0.018837500363588333,0.006737499963492155
1750560177039462400,9.49246240234375,0.03492499887943268,-0.09088750183582306,0.016637500375509262
1750560177049066800,9.502066650390624,-0.0028874999843537807,-0.13255000114440918,0.029975000768899918
1750560177058671400,9.51167138671875,-0.02488750033080578,-0.09831249713897705,0.05197500064969063
1750560177068276000,9.52127587890625,-0.040837500244379044,-0.031075000762939453,0.05197500064969063
1750560177077880300,9.53088037109375,-0.040837500244379044,0.03973750025033951,0.031212499365210533
1750560177087485000,9.54048486328125,-0.010312499478459358,0.0849749967455864,-0.005362499970942736
1750560177097089500,9.550089599609375,0.014162499457597733,0.09102500230073929,-0.036024998873472214
1750560177106694000,9.55969384765625,0.027637500315904617,0.07150000333786011,-0.031075000762939453
1750560177116298500,9.569298583984375,0.03739999979734421,0.023924998939037323,0.006737499963492155
1750560177125903000,9.578903076171875,0.04468749836087227,-0.04331250116229057,0.060499999672174454
1750560177135507700,9.5885078125,0.04097500070929527,-0.11412499845027924,0.09473749995231628
1750560177145112300,9.5981123046875,0.022687500342726707,-0.14959999918937683,0.10092499852180481
1750560177154716700,9.607716552734376,-0.006599999964237213,-0.09088750183582306,0.08621250092983246
1750560177164321300,9.6173212890625,-0.035887498408555984,0.012924999929964542,0.043449997901916504
1750560177173926000,9.62692578125,-0.04688749834895134,0.09473749995231628,-0.020075000822544098
1750560177183530200,9.6365302734375,-0.040837500244379044,0.14602500200271606,-0.08855000138282776
1750560177193134800,9.646134765625,-0.035887498408555984,0.14368750154972076,-0.1313125044107437
1750560177202739500,9.655739501953125,-0.023787500336766243,0.08744999766349792,-0.11783749610185623
1750560177212344000,9.665343994140626,-0.018837500363588333,-0.009074999950826168,-0.06159999966621399
1750560177221948400,9.674948486328125,-0.015124999918043613,-0.0835999995470047,0.023924998939037323
1750560177231553000,9.684552978515624,-0.004124999977648258,-0.10188750177621841,0.11302500218153
1750560177241157400,9.694157470703125,0.004399999976158142,-0.07012499868869781,0.15702499449253082
1750560177250762000,9.703761962890624,0.014162499457597733,-0.005362499970942736,0.13997499644756317
1750560177260366600,9.71336669921875,0.022687500342726707,0.060499999672174454,0.07397499680519104
1750560177269971000,9.722970947265624,0.014162499457597733,0.08992499858140945,-0.018837500363588333
1750560177279575800,9.732575927734375,-0.005362499970942736,0.07768750190734863,-0.10188750177621841
1750560177289180200,9.74218017578125,-0.016362499445676804,0.031212499365210533,-0.133650004863739
1750560177298784800,9.75178466796875,-0.011549999937415123,-0.031075000762939453,-0.1116499975323677
1750560177308389400,9.761389404296875,-0.0028874999843537807,-0.07631249725818634,-0.06407500058412552
1750560177317993700,9.77099365234375,0.0019249999895691872,-0.06655000150203705,0.007974999956786633
1750560177327598000,9.78059814453125,0.021449999883770943,-0.020075000822544098,0.09968750178813934
1750560177337202700,9.79020263671875,0.0471624992787838,0.009212499484419823,0.1667875051498413
1750560177346807300,9.799807373046875,0.05197500064969063,0.031212499365210533,0.17297500371932983
1750560177356412000,9.809411865234376,0.03244999796152115,0.048262499272823334,0.12526249885559082
1750560177366016300,9.819016357421875,0.0019249999895691872,0.04592499881982803,0.05444999784231186
1750560177375620900,9.828620849609376,-0.020075000822544098,0.017737500369548798,-0.018837500363588333
1750560177385225200,9.83822509765625,-0.026124998927116394,-0.015262499451637268,-0.0775500014424324
1750560177394829800,9.847829833984376,-0.028599999845027924,-0.026262499392032623,-0.09955000132322311
1750560177404434400,9.857434326171875,-0.02736249938607216,-0.0017874999903142452,-0.07507500052452087
1750560177414038800,9.867038818359376,-0.012787500396370888,0.048262499272823334,-0.023787500336766243
1750560177423643400,9.876643310546875,0.014162499457597733,0.09473749995231628,0.025162499397993088
1750560177433248000,9.886248046875,0.03987500071525574,0.12773749232292175,0.0471624992787838
1750560177442852600,9.8958525390625,0.05321250110864639,0.1326874941587448,0.03244999796152115
1750560177452457000,9.90545703125,0.04592499881982803,0.1069749966263771,0.004399999976158142
1750560177462061600,9.9150615234375,0.031212499365210533,0.05926249921321869,-0.018837500363588333
1750560177471666200,9.924666259765624,0.014162499457597733,0.007974999956786633,-0.02736249938607216
1750560177481270800,9.934270751953125,-0.0028874999843537807,-0.02502499893307686,-0.02736249938607216
1750560177490875100,9.943875244140624,-0.01759999990463257,0.0006874999962747097,-0.02502499893307686
1750560177500479700,9.953479736328125,-0.022549999877810478,0.043449997901916504,-0.03712499886751175
1750560177510084400,9.96308447265625,-0.006599999964237213,0.06916250288486481,-0.06407500058412552
1750560177519688700,9.972688720703125,0.015399999916553497,0.09597499668598175,-0.0873124971985817
1750560177529293300,9.982293212890625,0.03739999979734421,0.09226249903440475,-0.089649997651577
1750560177538898000,9.99189794921875,0.03987500071525574,0.06792499870061874,-0.07259999960660934
1750560177548502300,10.001502197265625,0.03492499887943268,0.04097500070929527,-0.03478749841451645
1750560177558107000,10.01110693359375,0.022687500342726707,0.016499999910593033,0.006737499963492155
1750560177567711500,10.02071142578125,0.011687500402331352,-0.0017874999903142452,0.043449997901916504
1750560177577315800,10.03031591796875,0.010449999943375587,-0.014024999924004078,0.06297499686479568
1750560177586920400,10.03992041015625,0.0031624999828636646,0.0019249999895691872,0.06297499686479568
1750560177596525000,10.049525146484376,-0.006599999964237213,0.020212499424815178,0.03973750025033951
1750560177606129700,10.059129638671875,-0.018837500363588333,0.028737500309944153,-0.0017874999903142452
1750560177615734000,10.068734130859376,-0.03231250122189522,0.025162499397993088,-0.03355000168085098
1750560177625338400,10.07833837890625,-0.035887498408555984,0.005499999970197678,-0.038362499326467514
1750560177634943000,10.08794287109375,-0.021312499418854713,-0.016362499445676804,-0.005362499970942736
1750560177644547800,10.0975478515625,0.016637500375509262,-0.010312499478459358,0.07397499680519104
1750560177654152200,10.107152099609374,0.04839999973773956,0.022687500342726707,0.15344999730587006
1750560177663756800,10.1167568359375,0.06063750013709068,0.0471624992787838,0.17778749763965607
1750560177673361200,10.126361083984374,0.05321250110864639,0.05816249921917915,0.1447875052690506
1750560177682965800,10.1359658203125,0.029975000768899918,0.04592499881982803,0.08744999766349792
1750560177692570000,10.145570068359374,0.008112499490380287,0.015399999916553497,0.04097500070929527
1750560177702174700,10.1551748046875,-0.006599999964237213,-0.031075000762939453,0.006737499963492155
1750560177711779000,10.164779052734374,-0.012787500396370888,-0.06531249731779099,-0.009074999950826168
1750560177721384000,10.174384033203125,-0.012787500396370888,-0.03231250122189522,-0.005362499970942736
1750560177730988300,10.18398828125,-0.009074999950826168,0.0471624992787838,-0.010312499478459358
1750560177740593000,10.193593017578126,0.011687500402331352,0.11550000309944153,-0.011549999937415123
1750560177750197200,10.203197265625,0.03739999979734421,0.1264999955892563,-0.011549999937415123
1750560177759801900,10.2128017578125,0.05692499876022339,0.08373750001192093,0.010449999943375587
1750560177769406500,10.222406494140625,0.05197500064969063,0.016499999910593033,0.05321250110864639
1750560177779010800,10.2320107421875,0.012924999929964542,-0.06283749639987946,0.06668750196695328
1750560177788615400,10.241615478515625,-0.018837500363588333,-0.11288750171661377,0.05321250110864639
1750560177798220000,10.251219970703126,-0.03231250122189522,-0.12388750165700912,0.022687500342726707
1750560177807824600,10.26082470703125,-0.03231250122189522,-0.08855000138282776,-0.009074999950826168
1750560177817429000,10.270428955078126,-0.018837500363588333,-0.006599999964237213,-0.01759999990463257
1750560177827033600,10.28003369140625,-0.007837500423192978,0.07273750007152557,-0.028599999845027924
1750560177836638200,10.28963818359375,0.0006874999962747097,0.1264999955892563,-0.04331250116229057
1750560177846242600,10.29924267578125,0.0056374999694526196,0.12526249885559082,-0.050599999725818634
1750560177855847200,10.30884716796875,0.008112499490380287,0.08621250092983246,-0.028599999845027924
1750560177865451800,10.31845166015625,0.020212499424815178,0.006737499963492155,0.023924998939037323
1750560177875056400,10.328056396484374,0.016637500375509262,-0.0835999995470047,0.06916250288486481
1750560177884661000,10.337660888671875,-0.0005499999970197678,-0.1568875014781952,0.09226249903440475
1750560177894265300,10.347265380859374,-0.028599999845027924,-0.16431249678134918,0.07768750190734863
1750560177903869700,10.35686962890625,-0.05431250110268593,-0.10559999942779541,0.03739999979734421
1750560177913474300,10.366474365234374,-0.04936249926686287,-0.03712499886751175,-0.010312499478459358
1750560177923079000,10.376078857421875,-0.03231250122189522,0.007974999956786633,-0.03478749841451645
1750560177932683500,10.38568359375,0.006874999962747097,0.026399999856948853,0.0031624999828636646
1750560177942288100,10.3952880859375,0.03739999979734421,0.0019249999895691872,0.08249999582767487
1750560177951892500,10.404892578125,0.03244999796152115,-0.03478749841451645,0.16197499632835388
1750560177961496800,10.414496826171876,0.004399999976158142,-0.058024998754262924,0.20721249282360077
1750560177971101400,10.424101318359375,-0.03959999978542328,-0.06655000150203705,0.23897500336170197
1750560177980706000,10.4337060546875,-0.057887498289346695,-0.03959999978542328,0.3207874894142151
1750560177990310700,10.443310546875,-0.07631249725818634,0.0031624999828636646,0.3806000053882599
1750560177999915000,10.4529150390625,-0.11041250079870224,0.06916250288486481,0.3830749988555908
1750560178009519600,10.46251953125,-0.14093749225139618,0.21931250393390656,0.295074999332428
1750560178019124000,10.4721240234375,-0.15936249494552612,0.4343625009059906,0.10573749989271164
1750560178028728600,10.481728515625,-0.1751749962568283,0.6726499795913696,-0.15565000474452972
1750560178038333200,10.491333251953124,-0.2167000025510788,0.7959874868392944,-0.4916999936103821
1750560178047937500,10.5009375,-0.2864125072956085,0.7471749782562256,-0.9046124815940857
1750560178057542100,10.510542236328124,-0.3854124844074249,0.6274124979972839,-1.37128746509552
1750560178067146800,10.520146728515625,-0.5783249735832214,0.43078750371932983,-1.8979125022888184
1750560178076751000,10.529751220703124,-0.7970874905586243,0.3097875118255615,-2.512399911880493
1750560178086355700,10.539355712890625,-0.98642498254776,0.4221250116825104,-3.3369874954223633
1750560178095960300,10.548960205078124,-1.0939500331878662,0.7727500200271606,-4.3375749588012695
1750560178105565000,10.55856494140625,-1.0377124547958374,0.8399875164031982,-5.32963752746582
1750560178115169300,10.568169189453124,-0.8215624690055847,0.489362508058548,-6.17264986038208
1750560178124774000,10.57777392578125,-0.5429875254631042,-0.045787498354911804,-6.838425159454346
1750560178134378200,10.587378173828125,-0.30098751187324524,-0.6235625147819519,-7.2025251388549805
1750560178143982800,10.59698291015625,-0.15565000474452972,-1.0769000053405762,-7.158524990081787
1750560178153587500,10.60658740234375,-0.07136250287294388,-1.3554749488830566,-6.653900146484375
1750560178163192000,10.616192138671876,0.0471624992787838,-1.5888124704360962,-5.703499794006348
1750560178172796400,10.62579638671875,0.18768750131130219,-1.7976750135421753,-4.301000118255615
1750560178182401000,10.635401123046876,0.2755500078201294,-1.7109124660491943,-2.5331625938415527
1750560178192005600,10.645005615234375,0.31831249594688416,-1.3737624883651733,-0.7262749671936035
1750560178201610200,10.6546103515625,0.2755500078201294,-1.1941875219345093,0.6591749787330627
1750560178211214800,10.66421484375,0.16692499816417694,-1.283287525177002,1.3469499349594116
1750560178220819200,10.673819091796876,0.06421250104904175,-1.3932875394821167,1.3934249877929688
1750560178230423800,10.683423828125,0.05816249921917915,-1.2942874431610107,0.9865624904632568
1750560178240028400,10.6930283203125,0.14121249318122864,-0.9229000210762024,0.37578749656677246
1750560178249632800,10.7026328125,0.24626250565052032,-0.34869998693466187,-0.1116499975323677
1750560178259237400,10.7122373046875,0.3684999942779541,0.31459999084472656,-0.16664999723434448
1750560178268841700,10.721841796875,0.4478375017642975,0.727649986743927,0.21821250021457672
1750560178278446300,10.7314462890625,0.4503124952316284,1.034274935722351,0.9829875230789185
1750560178288051000,10.741051025390625,0.35007500648498535,1.1050875186920166,1.9053374528884888
1750560178297655000,10.750655029296874,0.14492499828338623,0.7484124898910522,2.7691125869750977
1750560178307260000,10.760260009765625,-0.04936249926686287,0.3073124885559082,3.5386998653411865
1750560178316864500,10.769864501953125,-0.23993749916553497,-0.06902500241994858,4.13613748550415
1750560178326469000,10.77946923828125,-0.4342249929904938,-0.06159999966621399,4.584525108337402
1750560178336073500,10.789073486328125,-0.5429875254631042,0.2157374918460846,4.841099739074707
1750560178345678000,10.798677978515625,-0.5442249774932861,0.5491750240325928,4.976675033569336
1750560178355282400,10.808282470703125,-0.45374998450279236,0.9450374841690063,5.162437438964844
1750560178364887000,10.817886962890626,-0.2876499891281128,1.1771374940872192,5.426300048828125
1750560178374491600,10.82749169921875,-0.0017874999903142452,1.2566125392913818,5.757400035858154
1750560178384096300,10.83709619140625,0.2059749960899353,1.0818500518798828,5.9211626052856445
1750560178393700600,10.84670068359375,0.2059749960899353,0.6334624886512756,5.743925094604492
1750560178403305200,10.85630517578125,0.08744999766349792,-0.10683749616146088,5.2014875411987305
1750560178412909800,10.865909912109375,-0.10188750177621841,-1.1354750394821167,4.320662498474121
1750560178422514400,10.875514404296876,-0.3499374985694885,-1.878250002861023,3.293262481689453
1750560178432118800,10.885118896484375,-0.5527499914169312,-2.007775068283081,2.232724905014038
1750560178441723100,10.89472314453125,-0.5575624704360962,-1.5435750484466553,1.36537504196167
1750560178451327700,10.90432763671875,-0.3731749951839447,-0.5282750129699707,0.8692749738693237
1750560178460932400,10.913932373046874,-0.09459999948740005,0.6604124903678894,0.5944125056266785
1750560178470537000,10.923536865234375,0.2096875011920929,1.5461875200271606,0.27073749899864197
1750560178480141300,10.933141357421874,0.4123624861240387,1.8148624897003174,-0.13859999179840088
1750560178489746000,10.942745849609375,0.47107499837875366,1.5461875200271606,-0.454987496137619
1750560178499350500,10.9523505859375,0.35749998688697815,0.9242749810218811,-0.5674625039100647
1750560178508955100,10.961955078125,0.10339999943971634,0.20473749935626984,-0.48551249504089355
1750560178518559500,10.9715595703125,-0.1531749963760376,-0.37193748354911804,-0.31212499737739563
1750560178528164000,10.9811640625,-0.2974124848842621,-0.6883249878883362,-0.15936249494552612
1750560178537768700,10.990768798828125,-0.255887508392334,-0.7420874834060669,-0.006599999964237213
1750560178547373000,11.000373046875,-0.09088750183582306,-0.5087500214576721,0.12773749232292175
1750560178556977700,11.009977783203125,0.0849749967455864,-0.12636250257492065,0.15826250612735748
1750560178566582300,11.019582275390626,0.21821250021457672,0.28049999475479126,0.06916250288486481
1750560178576186600,11.0291865234375,0.27197501063346863,0.5271750092506409,-0.1153625026345253
1750560178585791200,11.038791259765626,0.2609750032424927,0.5931749939918518,-0.29493749141693115
1750560178595395800,11.048395751953125,0.21449999511241913,0.46488749980926514,-0.4195125102996826
1750560178605000200,11.058000244140626,0.16692499816417694,0.16073749959468842,-0.46117499470710754
1750560178614604800,11.067604736328125,0.15468749403953552,-0.17765000462532043,-0.4281750023365021
1750560178624209400,11.07720947265625,0.16802500188350677,-0.4171749949455261,-0.3499374985694885
1750560178633813800,11.086813720703125,0.196212500333786,-0.42941248416900635,-0.23141250014305115
1750560178643418400,11.09641845703125,0.2059749960899353,-0.23512500524520874,-0.1190750002861023
1750560178653022700,11.106022705078125,0.17902499437332153,0.011687500402331352,-0.060362499207258224
1750560178662627300,11.11562744140625,0.13021250069141388,0.18754999339580536,-0.07259999960660934
1750560178672232000,11.12523193359375,0.0789249986410141,0.24997499585151672,-0.13488750159740448
1750560178681836500,11.13483642578125,0.043449997901916504,0.20102499425411224,-0.19236250221729279
1750560178691441200,11.144441162109375,0.022687500342726707,0.1069749966263771,-0.2424124926328659
1750560178701045200,11.154045166015624,0.017875000834465027,0.0019249999895691872,-0.2864125072956085
1750560178710650000,11.163650146484375,0.016637500375509262,-0.04702499881386757,-0.34017500281333923
1750560178720254700,11.173254638671875,0.015399999916553497,-0.026262499392032623,-0.3731749951839447
1750560178729859000,11.182859130859375,0.012924999929964542,0.06544999778270721,-0.3096500039100647
1750560178739463700,11.192463623046875,0.022687500342726707,0.19002500176429749,-0.16060000658035278
1750560178749068000,11.202068115234376,0.06668750196695328,0.259737491607666,-0.021312499418854713
1750560178758672600,11.211672607421875,0.12773749232292175,0.27678748965263367,0.06173750013113022
1750560178768277200,11.22127734375,0.16802500188350677,0.2535499930381775,0.07397499680519104
1750560178777881600,11.230881591796875,0.16321249306201935,0.148499995470047,0.03244999796152115
1750560178787486200,11.240486328125,0.10449999570846558,0.018975000828504562,-0.03478749841451645
1750560178797090800,11.2500908203125,0.020212499424815178,-0.06531249731779099,-0.08855000138282776
1750560178806695200,11.259695068359376,-0.048124998807907104,-0.10078749805688858,-0.1093124970793724
1750560178816299800,11.2692998046875,-0.07136250287294388,-0.07259999960660934,-0.09336250275373459
1750560178825904400,11.278904296875,-0.03355000168085098,0.021449999883770943,-0.045787498354911804
1750560178835508700,11.2885087890625,0.03244999796152115,0.148499995470047,0.016637500375509262
1750560178845113300,11.29811328125,0.08621250092983246,0.23154999315738678,0.0812624990940094
1750560178854718000,11.307718017578125,0.1106875017285347,0.227974995970726,0.1326874941587448
1750560178864322300,11.317322265625,0.10449999570846558,0.13750000298023224,0.1667875051498413
1750560178873927000,11.326927001953125,0.05321250110864639,-0.012787500396370888,0.16802500188350677
1750560178883531500,11.336531494140624,-0.011549999937415123,-0.15812499821186066,0.1326874941587448
1750560178893136100,11.34613623046875,-0.060362499207258224,-0.2498375028371811,0.08016250282526016
1750560178902740500,11.355740478515624,-0.0798875018954277,-0.26317501068115234,0.028737500309944153
1750560178912345000,11.365344970703125,-0.06641250103712082,-0.16431249678134918,-0.016362499445676804
1750560178921949400,11.374949462890624,-0.03464999794960022,0.026399999856948853,-0.060362499207258224
1750560178931554300,11.38455419921875,-0.006599999964237213,0.2377374917268753,-0.09088750183582306
1750560178941158700,11.39415869140625,0.012924999929964542,0.33660000562667847,-0.1153625026345253
1750560178950763000,11.403762939453125,0.029975000768899918,0.3293125033378601,-0.10188750177621841
1750560178960367600,11.41336767578125,0.031212499365210533,0.22550000250339508,-0.048124998807907104
1750560178969972000,11.422971923828126,0.014162499457597733,0.0494999997317791,0.011687500402331352
1750560178979576800,11.432576904296875,-0.012787500396370888,-0.14588749408721924,0.05692499876022339
1750560178989181400,11.442181396484376,-0.028599999845027924,-0.2656500041484833,0.07273750007152557
1750560178998785500,11.45178564453125,-0.04936249926686287,-0.23512500524520874,0.05444999784231186
1750560179008390100,11.46139013671875,-0.060362499207258224,-0.06778749823570251,-0.0005499999970197678
1750560179017994800,11.470994873046875,-0.04207500070333481,0.10821250081062317,-0.08112499862909317
1750560179027599400,11.480599365234376,-0.004124999977648258,0.22302499413490295,-0.14464999735355377
1750560179037203700,11.49020361328125,0.028875000774860382,0.22673749923706055,-0.16307500004768372
1750560179046808300,11.499808349609374,0.04592499881982803,0.14726249873638153,-0.1313125044107437
1750560179056413000,11.509412841796875,0.04097500070929527,0.026399999856948853,-0.0835999995470047
1750560179066017300,11.519017333984374,0.026399999856948853,-0.10078749805688858,-0.03959999978542328
1750560179075622000,11.528621826171875,0.020212499424815178,-0.17531250417232513,-0.0042624999769032
1750560179085226500,11.5382265625,0.004399999976158142,-0.17765000462532043,0.007974999956786633
1750560179094830800,11.547830810546875,-0.009074999950826168,-0.08978749811649323,-0.0017874999903142452
1750560179104435500,11.557435546875,-0.022549999877810478,0.029975000768899918,-0.02736249938607216
1750560179114040000,11.5670400390625,-0.03355000168085098,0.10944999754428864,-0.05912499874830246
1750560179123644700,11.576644775390625,-0.028599999845027924,0.12168750166893005,-0.08483749628067017
1750560179133249000,11.5862490234375,-0.018837500363588333,0.08373750001192093,-0.07878749817609787
1750560179142853600,11.595853515625,-0.010312499478459358,0.017737500369548798,-0.045787498354911804
1750560179152458200,11.605458251953126,0.0056374999694526196,-0.06655000150203705,-0.0042624999769032
1750560179162062600,11.6150625,0.015399999916553497,-0.08607500046491623,0.018975000828504562
1750560179171667200,11.624667236328126,0.014162499457597733,-0.031075000762939453,0.006737499963492155
1750560179181271800,11.634271728515625,0.006874999962747097,0.07397499680519104,-0.012787500396370888
1750560179190876400,11.64387646484375,0.0006874999962747097,0.13750000298023224,-0.031075000762939453
1750560179200481000,11.65348095703125,0.0031624999828636646,0.13750000298023224,-0.04331250116229057
1750560179210085400,11.66308544921875,-0.0005499999970197678,0.09350000321865082,-0.04455000162124634
1750560179219690000,11.67268994140625,-0.004124999977648258,0.055687498301267624,-0.03478749841451645
1750560179229294600,11.682294677734374,-0.006599999964237213,0.021449999883770943,-0.03355000168085098
1750560179238899000,11.69189892578125,-0.005362499970942736,-0.02983750030398369,-0.048124998807907104
1750560179248503300,11.70150341796875,0.012924999929964542,-0.07383749634027481,-0.05678749829530716
1750560179258108000,11.71110791015625,0.031212499365210533,-0.08855000138282776,-0.045787498354911804
1750560179267712500,11.72071240234375,0.04592499881982803,-0.06778749823570251,-0.021312499418854713
1750560179277316900,11.73031689453125,0.05073750019073486,0.005499999970197678,0.009212499484419823
1750560179286921500,11.73992138671875,0.03987500071525574,0.1069749966263771,0.028737500309944153
1750560179296525800,11.74952587890625,0.023924998939037323,0.16197499632835388,0.009212499484419823
1750560179306130400,11.75913037109375,0.012924999929964542,0.17173749208450317,-0.022549999877810478
1750560179315735000,11.768735107421875,0.004399999976158142,0.12278749793767929,-0.048124998807907104
