time,seconds_elapsed,z,y,x
1750560167636644400,0.089644287109375,7.192950248718262,5.764050483703613,-0.3720000088214874
1750560167646249000,0.0992490234375,7.06695032119751,5.920050144195557,-1.4490001201629639
1750560167655853600,0.108853515625,7.252950191497803,6.337050437927246,-2.184000015258789
1750560167665458000,0.1184580078125,7.498050212860107,6.334050178527832,-1.5979501008987427
1750560167675062500,0.1280625,6.87000036239624,6.175950527191162,-0.9010500311851501
1750560167684667000,0.1376669921875,6.22605037689209,6.217050075531006,-0.5710500478744507
1750560167694271500,0.147271484375,5.878950119018555,6.255000114440918,-0.6880500316619873
1750560167703876000,0.1568759765625,6.901050090789795,6.157050132751465,-1.0830000638961792
1750560167713480400,0.16648046875,8.319000244140625,5.893950462341309,-0.6450000405311584
1750560167723084800,0.176084716796875,9.78600025177002,5.613000392913818,-0.17100000381469727
1750560167732689400,0.185689453125,10.380000114440918,5.685000419616699,-0.3739500045776367
1750560167742293800,0.195293701171875,9.528000831604004,5.848050117492676,-0.6280500292778015
1750560167751898400,0.2048984375,8.233050346374512,5.901000499725342,-0.7290000319480896
1750560167761502700,0.214502685546875,7.174050331115723,6.097050189971924,-0.987000048160553
1750560167771107300,0.224107421875,6.966000556945801,5.997000217437744,-1.4659500122070312
1750560167780711700,0.233711669921875,7.509000301361084,5.640000343322754,-1.6170001029968262
1750560167790316300,0.24331640625,8.452950477600098,5.428950309753418,-1.7530500888824463
1750560167799920600,0.252920654296875,8.731050491333008,5.836050510406494,-1.6170001029968262
1750560167809525200,0.262525146484375,8.047950744628906,5.587050437927246,-0.14400000870227814
1750560167819129600,0.272129638671875,7.210050106048584,5.38800048828125,1.2580500841140747
1750560167828734200,0.281734130859375,6.568950176239014,5.4910502433776855,1.4520000219345093
1750560167838338600,0.291338623046875,7.119000434875488,5.544000148773193,0.37905001640319824
1750560167847943200,0.300943115234375,8.391000747680664,5.938950061798096,-1.3420500755310059
1750560167857547500,0.310547607421875,9.372000694274902,5.854950428009033,-2.07705020904541
1750560167867152000,0.32015185546875,9.681000709533691,5.755050182342529,-2.199000120162964
1750560167876756200,0.329756103515625,8.886000633239746,5.869950294494629,-1.8919501304626465
1750560167886360800,0.33936083984375,7.723050594329834,5.767050266265869,-0.8800500631332397
1750560167895965400,0.34896533203125,6.712050437927246,5.689950466156006,-0.10095000267028809
1750560167905569800,0.35856982421875,6.307950496673584,5.652000427246094,-0.031950000673532486
1750560167915174400,0.36817431640625,6.682950496673584,5.728050231933594,-0.6210000514984131
1750560167924778800,0.37777880859375,7.215000152587891,5.865000247955322,-1.1670000553131104
1750560167934383400,0.38738330078125,7.609950542449951,5.865000247955322,-1.3300501108169556
1750560167943987700,0.39698779296875,7.372950553894043,5.926950454711914,-0.8239500522613525
1750560167953592300,0.40659228515625,7.360950469970703,5.9320502281188965,-0.17805001139640808
1750560167963196700,0.41619677734375,7.938000202178955,5.956050395965576,-0.24705001711845398
1750560167972801000,0.425801025390625,8.845050811767578,5.869950294494629,-0.42705002427101135
1750560167982405600,0.435405517578125,9.394050598144531,5.985000133514404,-1.0180500745773315
1750560167992010200,0.44501025390625,9.352950096130371,6.193050384521484,-1.1260499954223633
1750560168001614300,0.4546142578125,8.647050857543945,6.022950172424316,-0.7219500541687012
1750560168011219200,0.46421923828125,7.780050277709961,5.842950344085693,-0.39795002341270447
1750560168020823600,0.473823486328125,7.210050106048584,5.938950061798096,-0.30000001192092896
1750560168030428200,0.48342822265625,7.318050384521484,5.884050369262695,-0.44895002245903015
1750560168040032500,0.493032470703125,6.906000137329102,5.925000190734863,-0.6070500016212463
1750560168049637000,0.50263720703125,6.973050117492676,6.592950344085693,-0.6019500494003296
1750560168059241500,0.512241455078125,7.15500020980835,6.283950328826904,-0.2569500207901001
1750560168068845800,0.521845703125,7.231950283050537,6.049050331115723,0.25394999980926514
1750560168078450400,0.531450439453125,7.600050449371338,6.301050186157227,0.17295001447200775
1750560168088055000,0.541054931640625,8.08395004272461,6.195000171661377,-0.2760000228881836
1750560168097659400,0.550659423828125,7.81095027923584,6.088050365447998,-0.7480500340461731
1750560168107263700,0.560263671875,7.689000129699707,6.183000087738037,-0.9900000691413879
1750560168116868000,0.5698681640625,7.359000205993652,6.142950057983398,-0.8629500269889832
1750560168126472700,0.57947265625,7.192950248718262,6.058950424194336,-0.19200000166893005
1750560168136077300,0.589077392578125,7.2870001792907715,6.046950340270996,0.2179500162601471
1750560168145681700,0.598681640625,7.5859503746032715,6.021000385284424,0.41700002551078796
1750560168155286300,0.608286376953125,7.82295036315918,6.0610504150390625,0.22605000436306
1750560168164890600,0.617890625,8.038949966430664,6.219000339508057,-0.20205001533031464
1750560168174495200,0.6274951171875,8.158050537109375,6.32895040512085,-0.49605002999305725
1750560168184099600,0.637099609375,7.801950454711914,6.396000385284424,-0.6829500198364258
1750560168193704200,0.6467041015625,7.3969502449035645,6.103950500488281,-0.6469500064849854
1750560168203308500,0.65630859375,7.189050197601318,6.103950500488281,-0.8340000510215759
1750560168212913200,0.6659130859375,7.4160003662109375,6.082950115203857,-0.9679500460624695
1750560168222517800,0.675517822265625,7.693950176239014,6.147000312805176,-1.0830000638961792
1750560168232122000,0.6851220703125,7.737000465393066,6.135000228881836,-1.0060499906539917
1750560168241726700,0.694726806640625,7.758000373840332,6.0420002937316895,-0.753000020980835
1750560168251331300,0.704331298828125,7.806000232696533,6.037050247192383,-0.5040000081062317
1750560168260935700,0.713935791015625,7.653000354766846,6.021000385284424,-0.2950500249862671
1750560168270540300,0.723540283203125,7.540950298309326,6.0520501136779785,-0.08205000311136246
1750560168280144600,0.73314453125,7.521000385284424,6.0520501136779785,0.004950000438839197
1750560168289749200,0.742749267578125,7.498050212860107,6.091950416564941,-0.043950002640485764
1750560168299353600,0.752353515625,7.528950214385986,6.094950199127197,-0.31200000643730164
1750560168308958000,0.7619580078125,7.617000579833984,6.1120500564575195,-0.492000013589859
1750560168318562600,0.7715625,7.636050224304199,6.097050189971924,-0.6709500551223755
1750560168328167000,0.7811669921875,7.81095027923584,6.013050079345703,-0.6400500535964966
1750560168337771300,0.790771240234375,7.938000202178955,5.986950397491455,-0.6160500049591064
1750560168347375900,0.8003759765625,7.866000175476074,6.013050079345703,-0.7260000109672546
1750560168356980500,0.80998046875,7.681950569152832,6.013050079345703,-0.987000048160553
1750560168366584800,0.819584716796875,7.627050399780273,6.021000385284424,-0.8530500531196594
1750560168376189400,0.829189453125,7.702950477600098,5.965050220489502,-0.5730000138282776
1750560168385793800,0.838793701171875,7.840050220489502,5.91795015335083,-0.10905000567436218
1750560168395398400,0.8483984375,7.981050491333008,5.896050453186035,0.1680000126361847
1750560168405002800,0.858002685546875,8.006999969482422,5.922000408172607,-0.030000001192092896
1750560168414607400,0.867607421875,7.933050155639648,6.076050281524658,-0.4339500069618225
1750560168424211700,0.877211669921875,7.675050258636475,6.159000396728516,-0.6660000085830688
1750560168433816300,0.88681640625,7.411050319671631,6.049050331115723,-0.520050048828125
1750560168443420700,0.896420654296875,7.432950496673584,5.920050144195557,-0.42195001244544983
1750560168453025300,0.906025390625,7.519050121307373,5.874000072479248,-0.5520000457763672
1750560168462629600,0.915629638671875,7.653000354766846,5.865000247955322,-0.6660000085830688
1750560168472234000,0.92523388671875,7.8259501457214355,5.970000267028809,-0.7380000352859497
1750560168481838600,0.934838623046875,7.840050220489502,5.986950397491455,-0.597000002861023
1750560168491443200,0.944443115234375,7.701000213623047,5.989050388336182,-0.2639999985694885
1750560168501047600,0.954047607421875,7.471050262451172,5.982000350952148,0.11805000901222229
1750560168510652200,0.963652099609375,7.383000373840332,5.989050388336182,0.3169500231742859
1750560168520256500,0.973256591796875,7.488000392913818,6.022950172424316,0.2850000262260437
1750560168529861000,0.982861083984375,7.753950595855713,6.076050281524658,-0.07500000298023224
1750560168539465700,0.9924658203125,8.067000389099121,6.1210503578186035,-0.3930000066757202
1750560168549069800,1.00206982421875,8.151000022888184,6.174000263214111,-0.5629500150680542
1750560168558674400,1.01167431640625,8.050950050354004,6.2310004234313965,-0.5730000138282776
1750560168568279000,1.021279052734375,7.858950138092041,6.159000396728516,-0.4249500334262848
1750560168577883400,1.03088330078125,7.749000549316406,6.088050365447998,-0.208950012922287
1750560168587487700,1.04048779296875,7.761000156402588,6.118950366973877,-0.25200000405311584
1750560168597092400,1.05009228515625,7.809000492095947,6.055950164794922,-0.32895001769065857
1750560168606696700,1.05969677734375,7.969050407409668,6.021000385284424,-0.5659500360488892
1750560168616301300,1.06930126953125,8.11500072479248,6.043950080871582,-0.8050500154495239
1750560168625905700,1.07890576171875,8.248950004577637,6.025050163269043,-0.6520500183105469
1750560168635510300,1.08851025390625,8.173049926757812,5.962950229644775,-0.4320000112056732
1750560168645115000,1.098114990234375,7.945050239562988,5.934000492095947,-0.2740500271320343
1750560168654719200,1.10771923828125,7.8349504470825195,5.968050479888916,-0.2639999985694885
1750560168664323800,1.11732373046875,7.713000297546387,6.0319504737854,-0.1969500035047531
1750560168673928200,1.12692822265625,7.639050483703613,6.067950248718262,-0.2740500271320343
1750560168683532500,1.136532470703125,7.837050437927246,6.076050281524658,-0.5010000467300415
1750560168693137400,1.146137451171875,8.031000137329102,6.139950275421143,-0.7219500541687012
1750560168702741800,1.15574169921875,7.890000343322754,6.085050106048584,-0.8940000534057617
1750560168712346000,1.16534619140625,7.681950569152832,6.070950508117676,-1.0500000715255737
1750560168721950700,1.17495068359375,7.561950206756592,6.076050281524658,-0.9750000238418579
1750560168731555300,1.184555419921875,7.399050235748291,6.130950450897217,-0.7740000486373901
1750560168741159400,1.194159423828125,7.402050495147705,6.199950218200684,-0.7069500088691711
1750560168750764000,1.203763916015625,7.521000385284424,6.154950141906738,-0.6379500031471252
1750560168760368600,1.21336865234375,7.7440505027771,6.118950366973877,-0.6280500292778015
1750560168769973000,1.222972900390625,7.806000232696533,6.145050525665283,-0.5680500268936157
1750560168779577600,1.23257763671875,7.678950309753418,6.079950332641602,-0.4339500069618225
1750560168789182200,1.24218212890625,7.299000263214111,6.013050079345703,-0.28095000982284546
1750560168798786600,1.25178662109375,6.925050258636475,6.009000301361084,-0.17295001447200775
1750560168808391200,1.26139111328125,6.934950351715088,6.0319504737854,-0.2569500207901001
1750560168817995500,1.27099560546875,7.300950527191162,6.088050365447998,-0.4459500312805176
1750560168827600100,1.28060009765625,7.8949503898620605,6.088050365447998,-0.7380000352859497
1750560168837204500,1.29020458984375,8.37405014038086,6.0319504737854,-0.987000048160553
1750560168846809000,1.29980908203125,8.539050102233887,5.90595006942749,-0.9709500670433044
1750560168856413700,1.30941357421875,8.404950141906738,5.824050426483154,-0.6280500292778015
1750560168866018000,1.31901806640625,8.134050369262695,5.793000221252441,-0.37005001306533813
1750560168875622700,1.32862255859375,7.945050239562988,5.8030500411987305,-0.3340500295162201
1750560168885227000,1.33822705078125,7.70805025100708,5.913000106811523,-0.36000001430511475
1750560168894831400,1.347831298828125,7.462050437927246,5.962950229644775,-0.3139500021934509
1750560168904435700,1.357435791015625,7.414050579071045,5.989050388336182,-0.26205000281333923
1750560168914040300,1.367040283203125,7.452000141143799,5.946000099182129,-0.27900001406669617
1750560168923645000,1.37664501953125,7.459050178527832,5.841000080108643,-0.43695002794265747
1750560168933249500,1.38624951171875,7.564950466156006,5.968050479888916,-0.6859500408172607
1750560168942854000,1.39585400390625,7.564950466156006,6.085050106048584,-0.9030000567436218
1750560168952458500,1.40545849609375,7.657950401306152,6.028050422668457,-0.8629500269889832
1750560168962062800,1.415062744140625,8.043000221252441,6.03000020980835,-0.6619500517845154
1750560168971667200,1.424667236328125,8.403000831604004,5.946000099182129,-0.5560500025749207
1750560168981272000,1.43427197265625,8.565000534057617,5.962950229644775,-0.595050036907196
1750560168990876400,1.44387646484375,8.245050430297852,6.0010504722595215,-0.5370000004768372
1750560169000481000,1.45348095703125,7.699050426483154,5.961000442504883,-0.46095001697540283
1750560169010085400,1.46308544921875,7.384950160980225,6.009000301361084,-0.46995002031326294
1750560169019690000,1.47268994140625,7.2460503578186035,6.12600040435791,-0.5130000114440918
1750560169029294600,1.482294677734375,7.282050132751465,6.151950359344482,-0.46995002031326294
1750560169038899000,1.49189892578125,7.581000328063965,6.207000255584717,-0.4939500093460083
1750560169048503000,1.5015029296875,7.828050136566162,6.159000396728516,-0.5370000004768372
1750560169058107600,1.511107666015625,7.978950500488281,6.12600040435791,-0.5040000081062317
1750560169067712300,1.520712158203125,7.888050556182861,6.139950275421143,-0.5010000467300415
1750560169077316600,1.530316650390625,7.804050445556641,6.088050365447998,-0.42705002427101135
1750560169086921200,1.539921142578125,7.8760504722595215,6.090000152587891,-0.3859500288963318
1750560169096525800,1.54952587890625,8.005050659179688,6.079950332641602,-0.46995002031326294
1750560169106130200,1.559130126953125,8.019000053405762,6.025050163269043,-0.5989500284194946
1750560169115734800,1.56873486328125,7.933050155639648,5.884050369262695,-0.609000027179718
1750560169125339100,1.578339111328125,7.672050476074219,5.965050220489502,-0.5610000491142273
1750560169134943700,1.58794384765625,7.402050495147705,6.058950424194336,-0.37005001306533813
1750560169144548000,1.597548095703125,7.26300048828125,6.058950424194336,-0.17100000381469727
1750560169154152700,1.607152587890625,7.387050151824951,6.03000020980835,-0.17805001139640808
1750560169163757300,1.61675732421875,7.711050510406494,6.049050331115723,-0.25200000405311584
1750560169173362000,1.62636181640625,7.881000518798828,6.064050197601318,-0.3379500210285187
1750560169182966300,1.63596630859375,7.837050437927246,6.021000385284424,-0.42705002427101135
1750560169192570600,1.645570556640625,7.675050258636475,6.066000461578369,-0.5010000467300415
1750560169202175200,1.65517529296875,7.3969502449035645,6.1120500564575195,-0.5350500345230103
1750560169211779600,1.664779541015625,7.255950450897217,6.118950366973877,-0.48000001907348633
1750560169221384200,1.67438427734375,7.332000255584717,6.11400032043457,-0.35295000672340393
1750560169230988800,1.68398876953125,7.62000036239624,6.085050106048584,-0.31005001068115234
1750560169240593200,1.69359326171875,7.890000343322754,6.0420002937316895,-0.283050000667572
1750560169250197500,1.703197509765625,7.957050323486328,5.997000217437744,-0.32895001769065857
1750560169259802000,1.712802001953125,7.768050193786621,5.985000133514404,-0.41505002975463867
1750560169269406700,1.72240673828125,7.584000587463379,6.025050163269043,-0.47700002789497375
1750560169279011000,1.732010986328125,7.53795051574707,6.067950248718262,-0.5160000324249268
1750560169288615700,1.74161572265625,7.579050540924072,6.058950424194336,-0.3840000033378601
1750560169298220000,1.751219970703125,7.780050277709961,6.067950248718262,-0.36705002188682556
1750560169307824600,1.76082470703125,7.998000144958496,6.082950115203857,-0.3820500075817108
1750560169317429000,1.770428955078125,8.022000312805176,6.043950080871582,-0.44895002245903015
1750560169327033600,1.78003369140625,7.852050304412842,6.043950080871582,-0.5320500135421753
1750560169336638200,1.78963818359375,7.597950458526611,6.073050498962402,-0.5040000081062317
1750560169346242600,1.79924267578125,7.4160003662109375,6.054000377655029,-0.3820500075817108
1750560169355847200,1.80884716796875,7.450050354003906,6.076050281524658,-0.2670000195503235
1750560169365451500,1.818451416015625,7.666950225830078,6.123000144958496,-0.27900001406669617
1750560169375056100,1.82805615234375,8.017050743103027,6.133050441741943,-0.37005001306533813
1750560169384660500,1.837660400390625,8.359050750732422,6.100050449371338,-0.5899500250816345
1750560169394265000,1.84726513671875,8.557950019836426,6.058950424194336,-0.8119500279426575
1750560169403869400,1.856869384765625,8.508000373840332,6.040050506591797,-0.9510000348091125
1750560169413473800,1.866473876953125,8.290050506591797,6.004050254821777,-0.8839500546455383
1750560169423078400,1.876078369140625,8.110050201416016,5.956050395965576,-0.6420000195503235
1750560169432683000,1.88568310546875,7.962000370025635,5.94195032119751,-0.3930000066757202
1750560169442287400,1.895287353515625,7.951950550079346,5.944050312042236,-0.35805001854896545
1750560169451892000,1.90489208984375,8.11305046081543,5.926950454711914,-0.48000001907348633
1750560169461496600,1.91449658203125,8.158050537109375,5.937000274658203,-0.6570000052452087
1750560169471101000,1.924100830078125,8.13705062866211,5.914950370788574,-0.7219500541687012
1750560169480705500,1.93370556640625,7.950000286102295,5.956050395965576,-0.6739500164985657
1750560169490310000,1.943309814453125,7.689000129699707,5.937000274658203,-0.527999997138977
1750560169499914500,1.95291455078125,7.540950298309326,5.925000190734863,-0.41505002975463867
1750560169509519000,1.96251904296875,7.636050224304199,5.980050086975098,-0.48405003547668457
1750560169519123500,1.97212353515625,7.828050136566162,6.0520501136779785,-0.6349500417709351
1750560169528728000,1.98172802734375,7.806000232696533,5.989050388336182,-0.5659500360488892
1750560169538332700,1.991332763671875,7.5859503746032715,6.010950088500977,-0.37905001640319824
1750560169547937000,2.00093701171875,7.300950527191162,6.028050422668457,-0.3169500231742859
1750560169557541600,2.010541748046875,7.203000545501709,6.055950164794922,-0.35295000672340393
1750560169567146000,2.02014599609375,7.303950309753418,6.0420002937316895,-0.4249500334262848
1750560169576750600,2.02975048828125,7.663050174713135,6.070950508117676,-0.4410000145435333
1750560169586355000,2.03935498046875,7.950000286102295,6.049050331115723,-0.43695002794265747
1750560169595959600,2.04895947265625,8.166000366210938,6.025050163269043,-0.3910500109195709
1750560169605564200,2.058564208984375,8.182050704956055,6.0610504150390625,-0.4650000333786011
1750560169615168500,2.06816845703125,8.002950668334961,6.022950172424316,-0.38895002007484436
1750560169624772900,2.07777294921875,7.729950428009033,6.010950088500977,-0.31905001401901245
1750560169634377500,2.08737744140625,7.549950122833252,6.0010504722595215,-0.36195001006126404
1750560169643982000,2.096982177734375,7.459050178527832,6.049050331115723,-0.49605002999305725
1750560169653586400,2.10658642578125,7.368000507354736,6.079950332641602,-0.5989500284194946
1750560169663190800,2.116190673828125,7.408950328826904,6.130950450897217,-0.5560500025749207
1750560169672795400,2.12579541015625,7.540950298309326,6.1210503578186035,-0.46800002455711365
1750560169682400000,2.13539990234375,7.699050426483154,6.090000152587891,-0.3859500288963318
1750560169692004400,2.14500439453125,7.729950428009033,6.021000385284424,-0.3430500030517578
1750560169701609000,2.15460888671875,7.701000213623047,5.958000183105469,-0.36000001430511475
1750560169711213600,2.164213623046875,7.62000036239624,5.956050395965576,-0.40995001792907715
1750560169720818200,2.173818115234375,7.548000335693359,5.997000217437744,-0.5610000491142273
1750560169730422500,2.183422607421875,7.621950149536133,6.01800012588501,-0.7380000352859497
1750560169740027100,2.193027099609375,7.7149505615234375,6.037050247192383,-0.8389500379562378
1750560169749631500,2.202631591796875,7.750950336456299,5.977050304412842,-0.8479500412940979
1750560169759236000,2.212236083984375,7.624050140380859,5.980050086975098,-0.7099500298500061
1750560169768840400,2.22184033203125,7.552950382232666,5.985000133514404,-0.5010000467300415
1750560169778445000,2.231445068359375,7.5450005531311035,5.961000442504883,-0.31005001068115234
1750560169788049700,2.241049560546875,7.70805025100708,5.962950229644775,-0.30000001192092896
1750560169797654000,2.250654052734375,8.017050743103027,6.0420002937316895,-0.5560500025749207
1750560169807258600,2.260258544921875,8.158050537109375,6.013050079345703,-0.7069500088691711
1750560169816863200,2.26986328125,8.062950134277344,6.0420002937316895,-0.7500000596046448
1750560169826467600,2.279467529296875,7.7059502601623535,6.073050498962402,-0.7290000319480896
1750560169836072000,2.289072021484375,7.3969502449035645,6.088050365447998,-0.5560500025749207
1750560169845676500,2.298676513671875,7.243950366973877,6.076050281524658,-0.46095001697540283
1750560169855281000,2.308281005859375,7.311000347137451,6.090000152587891,-0.4990500211715698
1750560169864885500,2.317885498046875,7.501950263977051,6.082950115203857,-0.5490000247955322
1750560169874490000,2.327489990234375,7.773000240325928,6.076050281524658,-0.6210000514984131
1750560169884094500,2.337094482421875,7.878000259399414,6.03000020980835,-0.5400000214576721
1750560169893698800,2.34669873046875,7.878000259399414,6.009000301361084,-0.42195001244544983
1750560169903303400,2.356303466796875,7.773000240325928,5.998950481414795,-0.44895002245903015
1750560169912908000,2.365907958984375,7.678950309753418,6.0319504737854,-0.5400000214576721
1750560169922512600,2.3755126953125,7.651050567626953,6.055950164794922,-0.6619500517845154
1750560169932117000,2.385116943359375,7.73205041885376,6.025050163269043,-0.6709500551223755
1750560169941721600,2.3947216796875,7.845000267028809,6.049050331115723,-0.6570000052452087
1750560169951326000,2.404325927734375,7.8259501457214355,6.025050163269043,-0.6160500049591064
1750560169960930600,2.4139306640625,7.72005033493042,6.0610504150390625,-0.5490000247955322
1750560169970535200,2.42353515625,7.555050373077393,6.073050498962402,-0.48405003547668457
1750560169980139500,2.433139404296875,7.4350504875183105,6.118950366973877,-0.5350500345230103
1750560169989744000,2.442744140625,7.44195032119751,6.1620001792907715,-0.5710500478744507
1750560169999348700,2.4523486328125,7.561950206756592,6.1120500564575195,-0.5610000491142273
1750560170008953000,2.461953125,7.750950336456299,6.079950332641602,-0.48900002241134644
1750560170018557400,2.471557373046875,8.034000396728516,6.034950256347656,-0.5320500135421753
1750560170028162000,2.481162109375,8.175000190734863,6.022950172424316,-0.6349500417709351
1750560170037766700,2.4907666015625,8.158050537109375,6.010950088500977,-0.7050000429153442
1750560170047371000,2.50037109375,8.074950218200684,6.070950508117676,-0.6880500316619873
1750560170056975600,2.5099755859375,8.010000228881836,6.03000020980835,-0.6709500551223755
1750560170066580000,2.519580078125,7.9170002937316895,6.079950332641602,-0.5730000138282776
1750560170076184300,2.529184326171875,7.789950370788574,6.046950340270996,-0.40095001459121704
1750560170085789000,2.538788818359375,7.768050193786621,6.064050197601318,-0.208950012922287
1750560170095393500,2.5483935546875,7.797000408172607,6.123000144958496,-0.24300001561641693
1750560170104998100,2.557998046875,7.90500020980835,6.1620001792907715,-0.36195001006126404
1750560170114602500,2.5676025390625,7.753950595855713,6.223950386047363,-0.5590500235557556
1750560170124207000,2.57720703125,7.324950218200684,6.28095006942749,-0.6330000162124634
1750560170133811500,2.5868115234375,6.991950511932373,6.286050319671631,-0.5419500470161438
1750560170143416000,2.596416015625,6.934950351715088,6.315000534057617,-0.36195001006126404
1750560170153020700,2.606020751953125,7.215000152587891,6.277050495147705,-0.27900001406669617
1750560170162625000,2.615625,7.641000270843506,6.247950077056885,-0.2740500271320343
1750560170172229600,2.625229736328125,7.993050575256348,6.157050132751465,-0.3720000088214874
1750560170181834200,2.634834228515625,8.10105037689209,6.186000347137451,-0.3930000066757202
1750560170191438600,2.6444384765625,7.90500020980835,6.139950275421143,-0.31905001401901245
1750560170201043200,2.654043212890625,7.648050308227539,6.12600040435791,-0.25905001163482666
1750560170210647800,2.663647705078125,7.462050437927246,6.187950134277344,-0.283050000667572
1750560170220252200,2.673252197265625,7.552950382232666,6.187950134277344,-0.43905001878738403
1750560170229856800,2.682856689453125,7.794000148773193,6.195000171661377,-0.5629500150680542
1750560170239461400,2.69246142578125,7.984050273895264,6.166950225830078,-0.5520000457763672
1750560170249065700,2.702065673828125,7.951950550079346,6.115950107574463,-0.4630500078201294
1750560170258670000,2.711670166015625,7.737000465393066,6.1020002365112305,-0.3910500109195709
1750560170268274700,2.721274658203125,7.33905029296875,6.139950275421143,-0.2670000195503235
1750560170277879000,2.730879150390625,7.098000526428223,6.115950107574463,-0.2070000171661377
1750560170287483600,2.740483642578125,7.15500020980835,6.133050441741943,-0.2760000228881836
1750560170297088000,2.750087890625,7.5450005531311035,6.106950283050537,-0.4459500312805176
1750560170306692600,2.759692626953125,7.9860005378723145,6.064050197601318,-0.6310500502586365
1750560170316297200,2.769297119140625,8.155950546264648,6.070950508117676,-0.6949500441551208
1750560170325901600,2.778901611328125,8.143950462341309,6.046950340270996,-0.5920500159263611
1750560170335506200,2.788506103515625,7.900050163269043,6.016050338745117,-0.4939500093460083
1750560170345110800,2.79811083984375,7.627050399780273,6.070950508117676,-0.4410000145435333
1750560170354715100,2.807715087890625,7.3060503005981445,6.12600040435791,-0.42705002427101135
1750560170364319700,2.81731982421875,7.180950164794922,6.139950275421143,-0.3720000088214874
1750560170373924000,2.826924072265625,7.095000267028809,6.193050384521484,-0.3049500286579132
1750560170383528700,2.83652880859375,7.1170501708984375,6.175950527191162,-0.30000001192092896
1750560170393133300,2.84613330078125,7.27500057220459,6.193050384521484,-0.34800001978874207
1750560170402737700,2.855737548828125,7.512000560760498,6.150000095367432,-0.47505003213882446
1750560170412342300,2.86534228515625,7.813950538635254,6.1810503005981445,-0.597000002861023
1750560170421947000,2.87494677734375,8.05305004119873,6.169050216674805,-0.6400500535964966
1750560170431551200,2.88455126953125,8.079000473022461,6.163950443267822,-0.5920500159263611
1750560170441155800,2.89415576171875,7.969050407409668,6.166950225830078,-0.5299500226974487
1750560170450760200,2.90376025390625,7.717950344085693,6.175950527191162,-0.37905001640319824
1750560170460364800,2.91336474609375,7.423050403594971,6.187950134277344,-0.19500000774860382
1750560170469969400,2.922969482421875,7.2960004806518555,6.2220001220703125,-0.13500000536441803
1750560170479573800,2.93257373046875,7.3750505447387695,6.22605037689209,-0.20205001533031464
1750560170489178400,2.942178466796875,7.4569501876831055,6.217050075531006,-0.2740500271320343
1750560170498782700,2.95178271484375,7.584000587463379,6.246000289916992,-0.3430500030517578
1750560170508387000,2.961386962890625,7.6050004959106445,6.247950077056885,-0.34800001978874207
1750560170517991700,2.97099169921875,7.552950382232666,6.246000289916992,-0.3139500021934509
1750560170527596500,2.980596435546875,7.477950572967529,6.259950160980225,-0.3379500210285187
1750560170537201000,2.990200927734375,7.402050495147705,6.21405029296875,-0.322050005197525
1750560170546805200,2.99980517578125,7.45395040512085,6.193050384521484,-0.36000001430511475
1750560170556409900,3.009409912109375,7.5259504318237305,6.159000396728516,-0.42195001244544983
1750560170566014500,3.019014404296875,7.657950401306152,6.1020002365112305,-0.5800500512123108
1750560170575618800,3.028618896484375,7.701000213623047,6.11400032043457,-0.690000057220459
1750560170585223400,3.038223388671875,7.627050399780273,6.135000228881836,-0.6420000195503235
1750560170594827800,3.047827880859375,7.459050178527832,6.135000228881836,-0.49605002999305725
1750560170604432400,3.057432373046875,7.402050495147705,6.1210503578186035,-0.4320000112056732
1750560170614037000,3.067037109375,7.480950355529785,6.13800048828125,-0.49605002999305725
1750560170623641300,3.076641357421875,7.579050540924072,6.097050189971924,-0.5710500478744507
1750560170633246000,3.086245849609375,7.591050148010254,6.130950450897217,-0.5779500007629395
1750560170642850600,3.0958505859375,7.540950298309326,6.169050216674805,-0.4510500133037567
1750560170652455200,3.105455078125,7.5360002517700195,6.163950443267822,-0.43695002794265747
1750560170662059500,3.1150595703125,7.660050392150879,6.1810503005981445,-0.43695002794265747
1750560170671664000,3.1246640625,7.821000576019287,6.193050384521484,-0.44895002245903015
1750560170681268500,3.1342685546875,7.950000286102295,6.1810503005981445,-0.4050000309944153
1750560170690873000,3.143873046875,7.999950408935547,6.178950309753418,-0.36000001430511475
1750560170700477700,3.153477783203125,7.954950332641602,6.115950107574463,-0.34995001554489136
1750560170710082300,3.163082275390625,7.902000427246094,6.1020002365112305,-0.364950031042099
1750560170719686700,3.172686767578125,7.777950286865234,6.1120500564575195,-0.37905001640319824
1750560170729291300,3.182291259765625,7.6650004386901855,6.1210503578186035,-0.32895001769065857
1750560170738896000,3.191895751953125,7.531050205230713,6.147000312805176,-0.36705002188682556
1750560170748500000,3.2015,7.404000282287598,6.178950309753418,-0.3859500288963318
1750560170758104600,3.2111044921875,7.33905029296875,6.20205020904541,-0.4249500334262848
1750560170767709200,3.220709228515625,7.411050319671631,6.207000255584717,-0.4129500091075897
1750560170777313800,3.230313720703125,7.597950458526611,6.123000144958496,-0.3840000033378601
1750560170786918100,3.239918212890625,7.858950138092041,6.066000461578369,-0.3720000088214874
1750560170796522500,3.2495224609375,8.035950660705566,6.058950424194336,-0.3910500109195709
1750560170806127000,3.259127197265625,8.118000030517578,6.0610504150390625,-0.4129500091075897
1750560170815731700,3.268731689453125,8.0149507522583,6.066000461578369,-0.4410000145435333
1750560170825336000,3.278336181640625,7.8259501457214355,6.115950107574463,-0.492000013589859
1750560170834940700,3.287940673828125,7.639050483703613,6.151950359344482,-0.4129500091075897
1750560170844545000,3.297544921875,7.521000385284424,6.11400032043457,-0.3139500021934509
1750560170854149600,3.307149658203125,7.414050579071045,6.150000095367432,-0.21900001168251038
1750560170863754200,3.316754150390625,7.372950553894043,6.159000396728516,-0.17595000565052032
1750560170873358800,3.32635888671875,7.483050346374512,6.1620001792907715,-0.21900001168251038
1750560170882963200,3.335963134765625,7.689000129699707,6.157050132751465,-0.286050021648407
1750560170892567800,3.34556787109375,8.011950492858887,6.186000347137451,-0.3930000066757202
1750560170902172400,3.35517236328125,8.194050788879395,6.12600040435791,-0.4990500211715698
1750560170911776800,3.36477685546875,8.233050346374512,6.139950275421143,-0.5520000457763672
1750560170921381400,3.37438134765625,8.058000564575195,6.151950359344482,-0.5370000004768372
1750560170930986000,3.383986083984375,7.794000148773193,6.147000312805176,-0.3379500210285187
1750560170940590300,3.39359033203125,7.597950458526611,6.163950443267822,-0.2880000174045563
1750560170950195000,3.40319482421875,7.474050521850586,6.199950218200684,-0.2670000195503235
1750560170959799600,3.412799560546875,7.368000507354736,6.223950386047363,-0.2670000195503235
1750560170969404200,3.422404052734375,7.4160003662109375,6.234000205993652,-0.3360000252723694
1750560170979008300,3.43200830078125,7.52400016784668,6.243000507354736,-0.3840000033378601
1750560170988612900,3.44161279296875,7.675050258636475,6.193050384521484,-0.46095001697540283
1750560170998217200,3.45121728515625,7.780050277709961,6.211950302124023,-0.5010000467300415
1750560171007821800,3.46082177734375,7.81095027923584,6.235950469970703,-0.453000009059906
1750560171017426200,3.47042626953125,7.768050193786621,6.21405029296875,-0.31905001401901245
1750560171027030800,3.48003076171875,7.735050201416016,6.1710004806518555,-0.30300000309944153
1750560171036635400,3.489635498046875,7.6050004959106445,6.166950225830078,-0.31200000643730164
1750560171046239700,3.49923974609375,7.675050258636475,6.183000087738037,-0.31200000643730164
1750560171055844400,3.50884423828125,7.741950511932373,6.157050132751465,-0.3340500295162201
1750560171065449000,3.518448974609375,7.663050174713135,6.139950275421143,-0.3240000009536743
1750560171075053300,3.52805322265625,7.53795051574707,6.175950527191162,-0.3859500288963318
1750560171084658000,3.537657958984375,7.464000225067139,6.2310004234313965,-0.4650000333786011
1750560171094262500,3.547262451171875,7.501950263977051,6.210000514984131,-0.40995001792907715
1750560171103867100,3.5568671875,7.713000297546387,6.195000171661377,-0.44895002245903015
1750560171113471500,3.566471435546875,7.9069504737854,6.1210503578186035,-0.453000009059906
1750560171123076000,3.576076171875,8.002950668334961,6.090000152587891,-0.4510500133037567
1750560171132680400,3.585680419921875,7.938000202178955,6.094950199127197,-0.48000001907348633
1750560171142285000,3.59528515625,7.7149505615234375,6.094950199127197,-0.42900002002716064
1750560171151889700,3.6048896484375,7.519050121307373,6.118950366973877,-0.4440000355243683
1750560171161494000,3.614493896484375,7.348950386047363,6.159000396728516,-0.520050048828125
1750560171171098600,3.6240986328125,7.33905029296875,6.2220001220703125,-0.5800500512123108
1750560171180703200,3.633703125,7.44195032119751,6.205050468444824,-0.4440000355243683
1750560171190307600,3.6433076171875,7.560000419616699,6.151950359344482,-0.2760000228881836
1750560171199912000,3.652911865234375,7.666950225830078,6.142950057983398,-0.23295001685619354
1750560171209516800,3.662516845703125,7.777950286865234,6.193050384521484,-0.29100000858306885
1750560171219121200,3.67212109375,7.7149505615234375,6.147000312805176,-0.30300000309944153
1750560171228725500,3.6817255859375,7.681950569152832,6.178950309753418,-0.27105000615119934
1750560171238330000,3.691330078125,7.579050540924072,6.174000263214111,-0.31200000643730164
1750560171247934500,3.7009345703125,7.5960001945495605,6.1810503005981445,-0.26205000281333923
1750560171257539000,3.7105390625,7.627050399780273,6.154950141906738,-0.32895001769065857
1750560171267143700,3.720143798828125,7.629000186920166,6.13800048828125,-0.38895002007484436
1750560171276748000,3.729748046875,7.560000419616699,6.205050468444824,-0.4729500114917755
1750560171286352600,3.7393525390625,7.420950412750244,6.246000289916992,-0.48900002241134644
1750560171295957200,3.748957275390625,7.294050216674805,6.259950160980225,-0.38895002007484436
1750560171305561900,3.758561767578125,7.294050216674805,6.259950160980225,-0.3769500255584717
1750560171315166200,3.768166259765625,7.41795015335083,6.279000282287598,-0.3820500075817108
1750560171324770800,3.777770751953125,7.617000579833984,6.229050159454346,-0.4129500091075897
1750560171334375400,3.78737548828125,7.846950531005859,6.186000347137451,-0.4410000145435333
1750560171343979800,3.796979736328125,7.942950248718262,6.207000255584717,-0.40995001792907715
1750560171353584400,3.80658447265625,7.846950531005859,6.199950218200684,-0.3360000252723694
1750560171363189000,3.81618896484375,7.702950477600098,6.20205020904541,-0.20205001533031464
1750560171372793300,3.82579345703125,7.612050533294678,6.210000514984131,-0.21405000984668732
1750560171382398000,3.83539794921875,7.531050205230713,6.234000205993652,-0.2880000174045563
1750560171392002600,3.84500244140625,7.53795051574707,6.207000255584717,-0.40995001792907715
1750560171401607000,3.85460693359375,7.573950290679932,6.198000431060791,-0.4459500312805176
1750560171411211500,3.86421142578125,7.603050231933594,6.1620001792907715,-0.42195001244544983
1750560171420816100,3.873816162109375,7.600050449371338,6.198000431060791,-0.42900002002716064
1750560171430420700,3.883420654296875,7.552950382232666,6.211950302124023,-0.40095001459121704
1750560171440025000,3.893025146484375,7.507050514221191,6.265050411224365,-0.40095001459121704
1750560171449629700,3.902629638671875,7.426050186157227,6.286050319671631,-0.3430500030517578
1750560171459234000,3.912234130859375,7.483050346374512,6.2410502433776855,-0.24495001137256622
1750560171468838700,3.921838623046875,7.678950309753418,6.210000514984131,-0.2550000250339508
1750560171478443300,3.931443359375,7.7989501953125,6.186000347137451,-0.2760000228881836
1750560171488047400,3.94104736328125,7.785000324249268,6.190950393676758,-0.325950026512146
1750560171497652000,3.95065185546875,7.593000411987305,6.166950225830078,-0.39795002341270447
1750560171507256600,3.960256591796875,7.3560004234313965,6.205050468444824,-0.4339500069618225
1750560171516861000,3.96986083984375,7.23900032043457,6.205050468444824,-0.45795002579689026
1750560171526465500,3.979465576171875,7.324950218200684,6.187950134277344,-0.3930000066757202
1750560171536070100,3.989070068359375,7.666950225830078,6.190950393676758,-0.4650000333786011
1750560171545674500,3.998674560546875,7.999950408935547,6.166950225830078,-0.48405003547668457
1750560171555279000,4.008279052734375,8.166000366210938,6.145050525665283,-0.4819500148296356
1750560171564883700,4.0178837890625,8.086950302124023,6.139950275421143,-0.48705002665519714
1750560171574488000,4.027488037109375,7.64400053024292,6.139950275421143,-0.35295000672340393
1750560171584092700,4.0370927734375,7.255950450897217,6.20205020904541,-0.1879500150680542
1750560171593697300,4.046697265625,7.192950248718262,6.246000289916992,-0.10095000267028809
1750560171603302000,4.056302001953125,7.3750505447387695,6.253050327301025,-0.1879500150680542
1750560171612906200,4.06590625,7.639050483703613,6.267000198364258,-0.31905001401901245
1750560171622510800,4.0755107421875,7.785000324249268,6.277050495147705,-0.48405003547668457
1750560171632115500,4.085115478515625,7.666950225830078,6.247950077056885,-0.46095001697540283
1750560171641719800,4.0947197265625,7.5360002517700195,6.234000205993652,-0.37905001640319824
1750560171651324400,4.104324462890625,7.426050186157227,6.247950077056885,-0.29295000433921814
1750560171660929000,4.113928955078125,7.593000411987305,6.211950302124023,-0.24495001137256622
1750560171670533400,4.123533447265625,7.786950588226318,6.2220001220703125,-0.36000001430511475
1750560171680138000,4.133137939453125,7.842000484466553,6.186000347137451,-0.4939500093460083
1750560171689742600,4.14274267578125,7.678950309753418,6.20205020904541,-0.5320500135421753
1750560171699347200,4.15234716796875,7.44705057144165,6.223950386047363,-0.47700002789497375
1750560171708951600,4.16195166015625,7.368000507354736,6.2310004234313965,-0.25005000829696655
1750560171718556000,4.171555908203125,7.390050411224365,6.175950527191162,-0.19005000591278076
1750560171728160500,4.181160400390625,7.617000579833984,6.198000431060791,-0.2569500207901001
1750560171737764900,4.190764892578125,7.954950332641602,6.259950160980225,-0.44895002245903015
1750560171747369500,4.200369384765625,8.110050201416016,6.234000205993652,-0.48705002665519714
1750560171756973800,4.209973876953125,8.062950134277344,6.20205020904541,-0.4990500211715698
1750560171766578700,4.21957861328125,7.750950336456299,6.2410502433776855,-0.5659500360488892
1750560171776183000,4.22918310546875,7.498050212860107,6.255000114440918,-0.5520000457763672
1750560171785787400,4.238787353515625,7.404000282287598,6.243000507354736,-0.45600003004074097
1750560171795392000,4.24839208984375,7.36305046081543,6.23805046081543,-0.31200000643730164
1750560171804996600,4.25799658203125,7.44705057144165,6.322050094604492,-0.23100000619888306
1750560171814601000,4.26760107421875,7.512000560760498,6.339000225067139,-0.24300001561641693
1750560171824205600,4.27720556640625,7.459050178527832,6.349050521850586,-0.20205001533031464
1750560171833810200,4.28681005859375,7.372950553894043,6.3510003089904785,-0.3139500021934509
1750560171843414800,4.296414794921875,7.432950496673584,6.376950263977051,-0.45795002579689026
1750560171853019100,4.30601904296875,7.641000270843506,6.334050178527832,-0.5080500245094299
1750560171862623700,4.315623779296875,7.873050212860107,6.255000114440918,-0.492000013589859
1750560171872228000,4.32522802734375,8.182050704956055,6.277050495147705,-0.4510500133037567
1750560171881832700,4.334832763671875,8.295000076293945,6.247950077056885,-0.3859500288963318
1750560171891437300,4.344437255859375,8.356950759887695,6.187950134277344,-0.27105000615119934
1750560171901042000,4.3540419921875,8.355000495910645,6.151950359344482,-0.25200000405311584
1750560171910646500,4.363646484375,8.347050666809082,6.190950393676758,-0.18495000898838043
1750560171920251000,4.3732509765625,8.347050666809082,6.169050216674805,-0.09405000507831573
1750560171929855500,4.38285546875,8.236949920654297,6.270000457763672,-0.15900000929832458
1750560171939460000,4.392460205078125,8.425950050354004,6.420000076293945,-0.23805001378059387
1750560171949064400,4.402064453125,8.589000701904297,6.424950122833252,-0.13695000112056732
1750560171958669000,4.4116689453125,9.268950462341309,6.439950466156006,-0.0970500037074089
1750560171968273400,4.4212734375,9.532950401306152,6.3510003089904785,-0.037050001323223114
1750560171977878000,4.4308779296875,9.8100004196167,6.190950393676758,0.15105000138282776
1750560171987482600,4.440482666015625,9.628050804138184,6.298050403594971,0.14205001294612885
1750560171997087000,4.4500869140625,8.632050514221191,6.427950382232666,0.0580500029027462
1750560172006691600,4.459691650390625,7.344000339508057,6.57105016708374,-0.13500000536441803
1750560172016296000,4.4692958984375,6.12600040435791,6.826950550079346,-0.11595000326633453
1750560172025900500,4.478900634765625,4.897050380706787,7.063950538635254,-0.13005000352859497
1750560172035505200,4.488505126953125,3.504000186920166,7.25100040435791,-0.15900000929832458
1750560172045109500,4.498109619140625,1.9759501218795776,7.561950206756592,0.10605000704526901
1750560172054714000,4.507714111328125,0.6019500494003296,7.785000324249268,0.15600000321865082
1750560172064318500,4.517318359375,0.23595000803470612,7.684950351715088,0.040950000286102295
1750560172073923000,4.526923095703125,0.781950056552887,7.498050212860107,-0.18000000715255737
1750560172083527700,4.536527587890625,1.1260499954223633,7.222050189971924,-0.35805001854896545
1750560172093132000,4.546132080078125,-0.17295001447200775,6.508950233459473,0.23805001378059387
1750560172102736600,4.555736572265625,-2.5789501667022705,6.106950283050537,0.3960000276565552
1750560172112341200,4.56534130859375,-5.656050205230713,5.488950252532959,-0.7309500575065613
1750560172121945600,4.574945556640625,-7.477950572967529,4.009050369262695,-1.741050124168396
1750560172131550200,4.58455029296875,-6.060000419616699,0.9970500469207764,-2.386050224304199
1750560172141154800,4.59415478515625,-4.459050178527832,-2.0160000324249268,-2.9220001697540283
1750560172150759400,4.603759521484375,-2.184000015258789,-4.698000431060791,-2.7690000534057617
1750560172160363800,4.61336376953125,3.910950183868408,-6.627000331878662,-3.2430002689361572
1750560172169968400,4.622968505859375,13.771050453186035,-6.106050491333008,-4.263000011444092
1750560172179573000,4.632572998046875,22.81395149230957,-4.2330002784729,-4.33905029296875
1750560172189177600,4.642177490234375,30.942001342773438,-2.5600500106811523,-1.2220500707626343
1750560172198782000,4.651781982421875,34.95000076293945,0.31005001068115234,1.7680500745773315
1750560172208386600,4.661386474609375,33.24795150756836,0.364950031042099,3.601950168609619
1750560172217991000,4.670990966796875,27.80805206298828,-0.10500000417232513,4.459050178527832
1750560172227595500,4.680595458984375,20.661001205444336,-0.46695002913475037,4.021049976348877
1750560172237200000,4.690199951171875,13.689001083374023,-0.6850500106811523,3.2779500484466553
1750560172246804500,4.699804443359375,7.924050331115723,0.4540500342845917,1.915950059890747
1750560172256409000,4.7094091796875,4.528950214385986,2.0839500427246094,1.0350000858306885
1750560172266013400,4.719013427734375,3.7860002517700195,3.009000062942505,1.0830000638961792
1750560172275618000,4.7286181640625,6.184950351715088,3.3700501918792725,1.4419500827789307
1750560172285222700,4.73822265625,10.516950607299805,3.601950168609619,1.6500000953674316
1750560172294827000,4.747826904296875,13.90005111694336,3.5500502586364746,1.2480000257492065
1750560172304431600,4.757431640625,15.619050979614258,3.135000228881836,1.1860500574111938
1750560172314036000,4.767035888671875,15.178050994873047,2.63700008392334,1.3870500326156616
1750560172323640600,4.776640625,13.84005069732666,2.1250500679016113,2.095950126647949
1750560172333245200,4.7862451171875,12.243000984191895,2.098950147628784,2.7090001106262207
1750560172342849500,4.795849609375,10.902000427246094,2.158950090408325,2.902050256729126
1750560172352454100,4.8054541015625,10.759050369262695,2.668950080871582,3.0169501304626465
1750560172362058800,4.815058837890625,9.901050567626953,3.1620001792907715,2.184000015258789
1750560172371663400,4.824663330078125,9.41295051574707,3.2689502239227295,1.2960000038146973
1750560172381267700,4.834267822265625,8.96505069732666,3.544950246810913,0.12495000660419464
1750560172390872300,4.843872314453125,8.88900089263916,3.835050106048584,-0.7890000343322754
1750560172400477000,4.853476806640625,8.769000053405762,4.135950088500977,-1.0330500602722168
1750560172410081300,4.863081298828125,8.247000694274902,4.0980000495910645,-0.9079500436782837
1750560172419686000,4.872685791015625,7.725000381469727,3.4110002517700195,-0.9199500679969788
1750560172429290500,4.88229052734375,6.624000549316406,2.9410500526428223,-0.7219500541687012
1750560172438895000,4.89189501953125,4.768050193786621,3.0400500297546387,-0.34995001554489136
1750560172448499500,4.90149951171875,3.5089502334594727,3.6570000648498535,0.3049500286579132
1750560172458104000,4.91110400390625,4.207950115203857,4.299000263214111,0.43905001878738403
1750560172467708400,4.92070849609375,7.372950553894043,4.5769500732421875,0.5820000171661377
1750560172477313000,4.93031298828125,10.866000175476074,4.813950061798096,-0.10395000129938126
1750560172486917600,4.939917724609375,12.15000057220459,4.644000053405762,-0.931950032711029
1750560172496522000,4.94952197265625,10.456950187683105,4.639050006866455,-1.8540000915527344
1750560172506126600,4.959126708984375,7.35105037689209,4.315950393676758,-1.5310500860214233
1750560172515731200,4.968731201171875,4.3969502449035645,4.339950084686279,0.1270500123500824
1750560172525335800,4.978335693359375,3.2719502449035645,5.197050094604492,1.5570000410079956
1750560172534940200,4.987940185546875,3.3889501094818115,5.5819501876831055,2.134050130844116
1750560172544544500,4.99754443359375,4.794000148773193,5.506050109863281,1.5979501008987427
1750560172554149000,5.007149169921875,7.062000274658203,5.866950511932373,0.7189500331878662
1750560172563753700,5.016753662109375,8.41200065612793,5.938950061798096,-0.48705002665519714
1750560172573358300,5.0263583984375,8.508000373840332,5.724000453948975,-1.384950041770935
1750560172582963000,5.035962890625,7.690950393676758,5.7330002784729,-1.7989500761032104
1750560172592567300,5.0455673828125,6.528000354766846,5.6569504737854,-1.1569499969482422
1750560172602172000,5.055171875,5.461950302124023,5.81505012512207,0.06300000101327896
1750560172611776300,5.0647763671875,5.503050327301025,6.049050331115723,0.6640500426292419
1750560172621380900,5.074380859375,6.57105016708374,6.004050254821777,0.6349500417709351
1750560172630985200,5.083985107421875,8.138999938964844,5.985000133514404,0.1489500105381012
1750560172640590000,5.093590087890625,9.16200065612793,5.9509501457214355,-0.20400001108646393
1750560172650194400,5.1031943359375,8.886000633239746,6.054000377655029,-0.39795002341270447
1750560172659798800,5.112798828125,7.738950252532959,6.183000087738037,-0.3240000009536743
1750560172669403400,5.1224033203125,6.448950290679932,6.2310004234313965,0.2569500207901001
1750560172679008000,5.132008056640625,5.695050239562988,6.178950309753418,0.9799500703811646
1750560172688612600,5.141612548828125,6.01800012588501,6.076050281524658,1.128000020980835
1750560172698217000,5.151217041015625,7.119000434875488,6.088050365447998,0.6810000538825989
1750560172707821600,5.160821533203125,8.280000686645508,6.0319504737854,0.17295001447200775
1750560172717426000,5.170426025390625,8.980050086975098,6.0420002937316895,-0.2160000056028366
1750560172727030500,5.180030517578125,8.872050285339355,5.9920501708984375,-0.18300001323223114
1750560172736635100,5.18963525390625,8.40000057220459,6.004050254821777,0.11100000888109207
1750560172746239700,5.19923974609375,8.002950668334961,6.049050331115723,0.3550500273704529
1750560172755844000,5.208843994140625,7.786950588226318,5.985000133514404,0.6330000162124634
1750560172765448700,5.21844873046875,7.69605016708374,5.922000408172607,1.0639500617980957
1750560172775053300,5.22805322265625,7.858950138092041,5.937000274658203,1.2049500942230225
1750560172784657700,5.23765771484375,7.984050273895264,5.970000267028809,1.0900501012802124
1750560172794262300,5.24726220703125,7.9860005378723145,5.970000267028809,0.5989500284194946
1750560172803867000,5.256866943359375,7.912050247192383,6.091950416564941,0.13695000112056732
1750560172813471200,5.26647119140625,7.603050231933594,6.106950283050537,0.003000000026077032
1750560172823075800,5.276075927734375,7.468950271606445,6.049050331115723,-0.031950000673532486
1750560172832680400,5.285680419921875,7.383000373840332,6.046950340270996,0.13905000686645508
1750560172842285000,5.29528515625,7.512000560760498,6.016050338745117,0.24000000953674316
1750560172851889400,5.304889404296875,7.762950420379639,5.953050136566162,0.26205000281333923
1750560172861494000,5.314493896484375,8.138999938964844,5.970000267028809,0.1969500035047531
1750560172871098600,5.3240986328125,8.29995059967041,5.913000106811523,0.0990000069141388
1750560172880703200,5.333703125,8.143950462341309,5.800050258636475,0.1680000126361847
1750560172890307600,5.3433076171875,7.878000259399414,5.829000473022461,0.13199999928474426
1750560172899912000,5.352911865234375,7.866000175476074,5.8030500411987305,-0.027000000700354576
1750560172909516500,5.3625166015625,7.912050247192383,5.805000305175781,-0.2070000171661377
1750560172919121000,5.372120849609375,8.09595012664795,5.794950485229492,-0.2550000250339508
1750560172928725500,5.3817255859375,8.470050811767578,5.776050090789795,-0.27900001406669617
1750560172938330000,5.391330078125,8.776050567626953,5.740050315856934,-0.22305001318454742
1750560172947934500,5.4009345703125,8.563050270080566,5.704050064086914,-0.039000000804662704
1750560172957539000,5.4105390625,7.927950382232666,5.74500036239624,0.1489500105381012
1750560172967143700,5.420143798828125,7.423050403594971,5.736000061035156,0.2689500153064728
1750560172976748000,5.429748046875,7.359000205993652,5.773950099945068,0.34800001978874207
1750560172986352600,5.4393525390625,7.701000213623047,5.772000312805176,0.33105000853538513
1750560172995957200,5.448957275390625,8.070000648498535,5.8120503425598145,0.2740500271320343
1750560173005561900,5.458561767578125,8.256000518798828,5.865000247955322,0.0990000069141388
1750560173015166200,5.468166259765625,8.11500072479248,5.902950286865234,-0.019950000569224358
1750560173024770800,5.477770751953125,7.9069504737854,5.854950428009033,-0.07695000618696213
1750560173034375200,5.487375244140625,7.741950511932373,5.908050060272217,-0.043950002640485764
1750560173043979800,5.496979736328125,7.660050392150879,5.884050369262695,0.04800000041723251
1750560173053584400,5.50658447265625,7.689000129699707,5.833950042724609,0.05295000225305557
1750560173063188700,5.516188720703125,7.813950538635254,5.81505012512207,0.034050002694129944
1750560173072793300,5.52579345703125,7.950000286102295,5.824050426483154,0.00795000046491623
1750560173082398000,5.53539794921875,7.9960503578186035,5.853000164031982,0.0990000069141388
1750560173092002300,5.545002197265625,7.950000286102295,5.842950344085693,0.05295000225305557
1750560173101606700,5.554606689453125,7.972050189971924,5.857950210571289,-0.037050001323223114
1750560173111211300,5.564211181640625,7.789950370788574,5.881950378417969,-0.04200000315904617
1750560173120816000,5.573816162109375,7.738950252532959,5.896050453186035,-0.07500000298023224
1750560173130420700,5.583420654296875,7.794000148773193,5.908050060272217,-0.13500000536441803
1750560173140025300,5.593025390625,7.866000175476074,5.881950378417969,-0.04605000093579292
1750560173149629400,5.60262939453125,7.818000316619873,5.8909502029418945,0.022050000727176666
1750560173159234000,5.612234130859375,7.5259504318237305,5.853000164031982,0.1489500105381012
1750560173168838700,5.621838623046875,7.428000450134277,5.893950462341309,0.3379500210285187
1750560173178443300,5.631443359375,7.627050399780273,5.886000156402588,0.41700002551078796
1750560173188047600,5.641047607421875,8.158050537109375,5.866950511932373,0.25394999980926514
1750560173197652000,5.65065185546875,8.605950355529785,5.8909502029418945,0.034050002694129944
1750560173207256600,5.660256591796875,8.551050186157227,5.869950294494629,-0.07304999977350235
1750560173216861200,5.669861083984375,8.197050094604492,5.877000331878662,-0.10095000267028809
1750560173226466000,5.679466064453125,7.438050270080566,5.845950126647949,0.09600000083446503
1750560173236070400,5.6890703125,7.0159502029418945,5.877000331878662,0.20400001108646393
1750560173245674800,5.6986748046875,7.110000133514404,5.910000324249268,0.20400001108646393
1750560173255279400,5.708279296875,7.629000186920166,5.862000465393066,0.12000000476837158
1750560173264884000,5.717884033203125,8.08395004272461,5.842950344085693,0.08700000494718552
1750560173274488300,5.72748828125,8.36205005645752,5.833950042724609,0.04800000041723251
1750560173284093000,5.737093017578125,8.280000686645508,5.769000053405762,0.09600000083446503
1750560173293697300,5.746697265625,8.04104995727539,5.845950126647949,0.05595000088214874
1750560173303302000,5.756302001953125,7.723050594329834,5.845950126647949,-0.11595000326633453
1750560173312906500,5.765906494140625,7.633950233459473,5.91795015335083,-0.2740500271320343
1750560173322510800,5.7755107421875,7.624050140380859,5.853000164031982,-0.23295001685619354
1750560173332115500,5.785115478515625,7.648050308227539,5.8720502853393555,-0.08895000070333481
1750560173341720000,5.794719970703125,7.663050174713135,5.898000240325928,0.07695000618696213
1750560173351324700,5.80432470703125,7.735050201416016,5.865000247955322,0.19200000166893005
1750560173360929300,5.81392919921875,7.8760504722595215,5.884050369262695,0.17505000531673431
1750560173370533600,5.82353369140625,7.972050189971924,5.860050201416016,0.12495000660419464
1750560173380138200,5.83313818359375,7.960050582885742,5.829000473022461,0.016950000077486038
1750560173389742800,5.842742919921875,7.762950420379639,5.884050369262695,0.06495000422000885
1750560173399347500,5.852347412109375,7.804050445556641,5.908050060272217,0.17100000381469727
1750560173408951800,5.861951904296875,7.999950408935547,5.884050369262695,0.1870500147342682
1750560173418556400,5.871556396484375,8.215950012207031,5.889000415802002,0.028950002044439316
1750560173428160800,5.881160888671875,8.36205005645752,5.874000072479248,-0.2070000171661377
1750560173437765000,5.89076513671875,8.239950180053711,5.8309502601623535,-0.1660500019788742
1750560173447370000,5.900369873046875,7.8949503898620605,5.748000144958496,0.039000000804662704
1750560173456974300,5.909974365234375,7.471050262451172,5.748000144958496,0.24195000529289246
1750560173466579000,5.919578857421875,7.216950416564941,5.749950408935547,0.4339500069618225
1750560173476183300,5.929183349609375,7.323000431060791,5.8030500411987305,0.36000001430511475
1750560173485787600,5.93878759765625,7.801950454711914,5.877000331878662,0.08700000494718552
1750560173495392300,5.948392333984375,8.33595085144043,5.902950286865234,-0.17100000381469727
1750560173504996900,5.957996826171875,8.721000671386719,5.877000331878662,-0.322050005197525
1750560173514601500,5.9676015625,8.628000259399414,5.829000473022461,-0.31200000643730164
1750560173524205800,5.977205810546875,8.197050094604492,5.82705020904541,-0.23805001378059387
1750560173533810400,5.986810546875,7.7059502601623535,5.8309502601623535,-0.0010500000789761543
1750560173543415000,5.9964150390625,7.420950412750244,5.788050174713135,0.09600000083446503
1750560173553019600,6.00601953125,7.452000141143799,5.857950210571289,0.04800000041723251
1750560173562624000,6.0156240234375,7.701000213623047,5.90595006942749,0.10605000704526901
1750560173572228600,6.025228515625,7.960050582885742,5.889000415802002,0.11805000901222229
1750560173581833200,6.034833251953125,7.984050273895264,5.877000331878662,0.12300000339746475
1750560173591437600,6.0444375,7.789950370788574,5.946000099182129,0.19905000925064087
1750560173601042200,6.054042236328125,7.480950355529785,5.946000099182129,0.2160000056028366
1750560173610646800,6.063646728515625,7.4350504875183105,5.92995023727417,0.17295001447200775
1750560173620251100,6.073251220703125,7.7659502029418945,5.956050395965576,0.003000000026077032
1750560173629855700,6.082855712890625,8.295000076293945,5.848050117492676,-0.11100000888109207
1750560173639460400,6.09246044921875,8.491050720214844,5.860050201416016,-0.23805001378059387
1750560173649064700,6.102064697265625,8.541000366210938,5.8120503425598145,-0.1489500105381012
1750560173658669300,6.11166943359375,8.143950462341309,5.842950344085693,-0.022050000727176666
1750560173668274000,6.12127392578125,7.677000522613525,5.83905029296875,0.11505000293254852
1750560173677878500,6.13087841796875,7.332000255584717,5.8030500411987305,0.15105000138282776
1750560173687483000,6.14048291015625,7.311000347137451,5.860050201416016,0.13905000686645508
1750560173697087500,6.15008740234375,7.543050289154053,5.809950351715088,0.04605000093579292
1750560173706692000,6.159692138671875,7.857000350952148,5.781000137329102,-0.1680000126361847
1750560173725901000,6.178901123046875,8.010000228881836,5.791050434112549,-0.3820500075817108
1750560173735505700,6.188505615234375,8.029050827026367,5.8309502601623535,-0.325950026512146
1750560173745110000,6.198110107421875,7.950000286102295,5.788050174713135,-0.08895000070333481
1750560173754714600,6.207714599609375,7.954950332641602,5.752050399780273,0.09195000678300858
1750560173764319200,6.2173193359375,8.046000480651855,5.749950408935547,0.07005000114440918
1750560173773923800,6.226923828125,8.05305004119873,5.800050258636475,-0.019950000569224358
1750560173783528400,6.236528564453125,8.06505012512207,5.788050174713135,-0.04905000329017639
1750560173793132800,6.2461328125,8.047950744628906,5.869950294494629,-0.06300000101327896
1750560173802737400,6.2557373046875,8.105999946594238,5.92995023727417,-0.037050001323223114
1750560173812341800,6.265341796875,8.09595012664795,5.949000358581543,-0.0970500037074089
1750560173821946400,6.2749462890625,8.11500072479248,5.980050086975098,-0.286050021648407
1750560173831551000,6.284551025390625,8.074950218200684,6.006000518798828,-0.4030500054359436
1750560173841155600,6.294155517578125,7.966950416564941,6.006000518798828,-0.286050021648407
1750560173850760200,6.30376025390625,7.786950588226318,5.878950119018555,-0.027000000700354576
1750560173860364500,6.313364501953125,7.663050174713135,5.884050369262695,0.31905001401901245
1750560173869969200,6.32296923828125,7.750950336456299,5.920050144195557,0.2950500249862671
1750560173879573800,6.33257373046875,7.987950325012207,5.968050479888916,0.1969500035047531
1750560173889178000,6.34217822265625,8.176950454711914,5.980050086975098,0.18300001323223114
1750560173898782700,6.35178271484375,8.239950180053711,5.901000499725342,0.034050002694129944
1750560173908387300,6.36138720703125,8.500950813293457,5.944050312042236,-0.17100000381469727
1750560173917991700,6.37099169921875,8.869050025939941,5.920050144195557,-0.3739500045776367
1750560173927596000,6.380595947265625,8.869050025939941,5.836050510406494,-0.16095000505447388
1750560173937200600,6.39020068359375,8.58495044708252,5.857950210571289,0.3360000252723694
1750560173946805200,6.39980517578125,8.062950134277344,5.937000274658203,0.673050045967102
1750560173956409900,6.409409912109375,7.768050193786621,6.004050254821777,0.6349500417709351
1750560173966014200,6.41901416015625,7.5450005531311035,6.094950199127197,0.44805002212524414
1750560173975618600,6.42861865234375,7.318050384521484,6.115950107574463,0.1489500105381012
1750560173985223200,6.43822314453125,7.159950256347656,6.1810503005981445,-0.14205001294612885
1750560173994827800,6.447827880859375,6.57105016708374,6.23805046081543,-0.35805001854896545
1750560174004432400,6.457432373046875,5.874000072479248,6.175950527191162,-0.40995001792907715
1750560174014037000,6.467037109375,4.998000144958496,6.178950309753418,-0.15405000746250153
1750560174023641300,6.476641357421875,4.243950366973877,6.135000228881836,0.07005000114440918
1750560174033246000,6.486245849609375,4.014000415802002,6.187950134277344,0.003000000026077032
1750560174042850300,6.495850341796875,3.2500500679016113,6.073050498962402,0.043950002640485764
1750560174052455000,6.505454833984375,2.2420501708984375,5.7430500984191895,0.25905001163482666
1750560174062059500,6.5150595703125,0.2880000174045563,5.539050102233887,0.9010500311851501
1750560174071664000,6.5246640625,-1.0630500316619873,5.080050468444824,1.0830000638961792
1750560174081268500,6.5342685546875,-2.0119500160217285,4.195950031280518,0.2880000174045563
1750560174090873000,6.543873046875,-1.76295006275177,2.9200501441955566,-1.152000069618225
1750560174100477400,6.5534775390625,-0.5440500378608704,1.2439500093460083,-1.8520500659942627
1750560174110082000,6.56308203125,0.5899500250816345,-0.1270500123500824,-1.7010000944137573
1750560174119686700,6.572686767578125,1.8730500936508179,-1.5949500799179077,-0.4249500334262848
1750560174129291300,6.582291259765625,4.736999988555908,-2.9160001277923584,0.24495001137256622
1750560174138895600,6.5918955078125,10.201050758361816,-3.513000249862671,-0.609000027179718
1750560174148500000,6.6015,18.291000366210938,-2.4880502223968506,-2.953050136566162
1750560174158104600,6.6111044921875,25.584001541137695,-0.8050500154495239,-3.553950071334839
1750560174167709000,6.620708984375,30.055952072143555,0.17100000381469727,-2.326050043106079
1750560174177313500,6.6303134765625,29.580001831054688,0.4230000078678131,-1.7680500745773315
1750560174186918100,6.639918212890625,24.889951705932617,0.4849500358104706,-1.7220001220703125
1750560174196522800,6.649522705078125,19.455001831054688,-0.28995001316070557,-0.46800002455711365
1750560174206127000,6.659127197265625,14.743050575256348,-0.7639500498771667,-0.286050021648407
1750560174215731700,6.668731689453125,9.793950080871582,-0.5460000038146973,-0.22305001318454742
1750560174225336300,6.67833642578125,5.683050155639648,0.23400001227855682,0.3859500288963318
1750560174234941000,6.68794091796875,3.205050230026245,1.2529500722885132,1.0330500602722168
1750560174244545300,6.697545166015625,3.6670501232147217,1.765950083732605,1.5690001249313354
1750560174254150000,6.70714990234375,7.336950302124023,2.0119500160217285,1.7650500535964966
1750560174263754200,6.716754150390625,12.910950660705566,2.179949998855591,1.6570501327514648
1750560174273358800,6.72635888671875,17.797950744628906,2.6230502128601074,1.26705002784729
1750560174282963500,6.73596337890625,19.966951370239258,2.5729501247406006,1.3920000791549683
1750560174292568000,6.745568115234375,18.990001678466797,2.388000011444092,1.7320500612258911
1750560174302172400,6.75517236328125,16.11495018005371,2.575050115585327,1.423050045967102
1750560174311777000,6.764777099609375,12.946950912475586,2.760000228881836,0.8190000653266907
1750560174321381600,6.774381591796875,10.833000183105469,2.9200501441955566,0.5230500102043152
1750560174330986200,6.783986328125,9.457950592041016,2.934000253677368,0.17295001447200775
1750560174340590600,6.793590576171875,8.733000755310059,3.1900501251220703,0.1270500123500824
1750560174350195200,6.8031953125,8.716050148010254,3.4870500564575195,0.6139500141143799
1750560174359799800,6.8127998046875,9.705000877380371,3.556950092315674,1.1809500455856323
1750560174369404400,6.822404296875,10.881000518798828,3.66195011138916,0.5440500378608704
1750560174379008800,6.8320087890625,11.770950317382812,3.3600001335144043,-0.09195000678300858
1750560174388613400,6.84161328125,9.042000770568848,2.9059500694274902,0.2639999985694885
1750560174398217700,6.8512177734375,4.98105001449585,2.284950017929077,0.9030000567436218
1750560174407822300,6.860822265625,2.0650501251220703,2.4940500259399414,0.8629500269889832
1750560174417426700,6.8704267578125,1.1050500869750977,3.4680001735687256,0.08205000311136246
1750560174427031300,6.88003125,1.7730001211166382,4.190999984741211,-0.05400000140070915
1750560174436636000,6.889635986328125,2.368950128555298,4.584000110626221,0.283050000667572
1750560174446240500,6.899240478515625,3.3289501667022705,4.597949981689453,0.3739500045776367
1750560174455845000,6.90884521484375,4.962000370025635,4.882950305938721,-0.037050001323223114
1750560174465449500,6.918449462890625,6.849000453948975,4.960050106048584,-0.7549500465393066
1750560174475053800,6.9280537109375,8.32800006866455,4.882950305938721,-1.2940500974655151
1750560174484658400,6.937658447265625,8.161050796508789,4.885950088500977,-1.4830501079559326
1750560174494263000,6.947262939453125,7.284000396728516,4.717950344085693,-0.8719500303268433
1750560174503867400,6.956867431640625,6.352950096130371,4.870950222015381,-0.30300000309944153
1750560174513472000,6.966471923828125,5.994000434875488,4.969050407409668,-0.10905000567436218
1750560174523076600,6.97607666015625,6.250050067901611,5.082000255584717,-0.29100000858306885
1750560174532681200,6.98568115234375,7.255950450897217,4.974000453948975,-0.6540000438690186
1750560174542285600,6.99528564453125,9.267000198364258,5.122950077056885,-0.859950065612793
1750560174551890200,7.00489013671875,10.629000663757324,5.130000114440918,-0.931950032711029
1750560174561494800,7.014494873046875,10.777950286865234,4.960050106048584,-0.7860000133514404
1750560174571099100,7.02409912109375,9.5110502243042,5.074950218200684,-0.7000500559806824
1750560174580703700,7.033703857421875,8.031000137329102,5.182950019836426,-0.4819500148296356
1750560174590308400,7.043308349609375,7.098000526428223,5.154000282287598,-0.1969500035047531
1750560174599912700,7.05291259765625,7.122000217437744,5.271000385284424,-0.1399500072002411
1750560174609517300,7.062517333984375,7.866000175476074,5.374050140380859,-0.2880000174045563
1750560174619122000,7.072121826171875,8.640000343322754,5.3359503746032715,-0.31200000643730164
1750560174628726300,7.081726318359375,8.893050193786621,5.410050392150879,-0.19500000774860382
1750560174638331000,7.091330810546875,8.56095027923584,5.554050445556641,-0.22095000743865967
1750560174647935500,7.100935546875,8.035950660705566,5.605950355529785,-0.25005000829696655
1750560174657540000,7.1105400390625,7.569000244140625,5.623050212860107,-0.13305000960826874
1750560174667144700,7.120144775390625,7.593000411987305,5.605950355529785,0.040950000286102295
1750560174676749000,7.1297490234375,8.038949966430664,5.63700008392334,-0.0010500000789761543
1750560174686353700,7.139353759765625,8.551050186157227,5.590050220489502,-0.17595000565052032
1750560174695958300,7.148958251953125,8.913000106811523,5.533950328826904,-0.23295001685619354
1750560174705562400,7.158562255859375,8.793000221252441,5.556000232696533,-0.27105000615119934
1750560174715167000,7.1681669921875,8.470050811767578,5.545950412750244,-0.003000000026077032
1750560174724771600,7.177771484375,8.203949928283691,5.506050109863281,0.2350500077009201
1750560174734376200,7.187376220703125,8.105999946594238,5.487000465393066,0.48405003547668457
1750560174743980500,7.19698046875,8.10105037689209,5.452950477600098,0.43905001878738403
1750560174753585200,7.206585205078125,8.37600040435791,5.455050468444824,0.18000000715255737
1750560174763189500,7.216189453125,8.716050148010254,5.527050495147705,0.003000000026077032
1750560174772794000,7.225794189453125,8.920050621032715,5.487000465393066,-0.0010500000789761543
1750560174782398700,7.235398681640625,8.671050071716309,5.419950485229492,0.09195000678300858
1750560174792003000,7.245003173828125,8.37600040435791,5.44605016708374,0.0799500048160553
1750560174801607700,7.254607666015625,7.897050380706787,5.455050468444824,0.0010500000789761543
1750560174811212300,7.26421240234375,7.572000503540039,5.494050025939941,0.015000000596046448
1750560174820817000,7.27381689453125,7.588050365447998,5.512950420379639,0.07005000114440918
1750560174830421500,7.28342138671875,7.873050212860107,5.494050025939941,0.0010500000789761543
1750560174840025900,7.29302587890625,8.25195026397705,5.436000347137451,-0.08895000070333481
1750560174849630500,7.30263037109375,8.553000450134277,5.428950309753418,-0.1489500105381012
1750560174859235000,7.312235107421875,8.605950355529785,5.443050384521484,-0.10905000567436218
1750560174868839400,7.32183935546875,8.32800006866455,5.487000465393066,-0.027000000700354576
1750560174878444000,7.331444091796875,8.110050201416016,5.515050411224365,-0.039000000804662704
1750560174888048600,7.341048583984375,8.098050117492676,5.539050102233887,-0.1469999998807907
1750560174897653000,7.350653076171875,8.131950378417969,5.496000289916992,-0.13305000960826874
1750560174907257600,7.360257568359375,8.223000526428223,5.4910502433776855,-0.06495000422000885
1750560174916862200,7.3698623046875,8.200950622558594,5.455050468444824,-0.08895000070333481
1750560174926466600,7.379466552734375,8.07705020904541,5.419950485229492,-0.04905000329017639
1750560174936071200,7.3890712890625,7.909050464630127,5.403000354766846,0.05595000088214874
1750560174945675800,7.39867578125,7.926000595092773,5.404950141906738,0.06300000101327896
1750560174955280100,7.408280029296875,8.26395034790039,5.460000038146973,0.025050001218914986
1750560174964884700,7.417884765625,8.616000175476074,5.455050468444824,-0.05100000277161598
1750560174974489000,7.427489013671875,8.913000106811523,5.416950225830078,-0.21405000984668732
1750560174984093700,7.43709375,8.9170503616333,5.475000381469727,-0.19500000774860382
1750560174993698300,7.4466982421875,8.461950302124023,5.439000129699707,-0.1279500126838684
1750560175003302700,7.456302734375,7.845000267028809,5.424000263214111,0.0990000069141388
1750560175012907300,7.4659072265625,7.500000476837158,5.45805025100708,0.25200000405311584
1750560175022511900,7.475511962890625,7.414050579071045,5.4720001220703125,0.30705001950263977
1750560175032116200,7.4851162109375,7.573950290679932,5.506050109863281,0.1680000126361847
1750560175041720800,7.494720947265625,7.972050189971924,5.500950336456299,0.04605000093579292
1750560175051325400,7.504325439453125,8.344950675964355,5.4910502433776855,-0.3240000009536743
1750560175060930000,7.513929931640625,8.517000198364258,5.380950450897217,-0.492000013589859
1750560175070534700,7.52353466796875,8.414999961853027,5.38800048828125,-0.6280500292778015
1750560175080139300,7.53313916015625,8.27595043182373,5.436000347137451,-0.453000009059906
1750560175089743600,7.54274365234375,8.059950828552246,5.386050224304199,-0.11595000326633453
1750560175099348200,7.55234814453125,7.987950325012207,5.379000186920166,0.15600000321865082
1750560175108952600,7.56195263671875,8.002950668334961,5.380950450897217,0.18000000715255737
1750560175118557200,7.57155712890625,8.011950492858887,5.410050392150879,0.06300000101327896
1750560175128161500,7.58116162109375,8.06505012512207,5.4340500831604,-0.037050001323223114
1750560175137766100,7.59076611328125,8.034000396728516,5.500950336456299,-0.1399500072002411
1750560175147370800,7.600370849609375,8.05305004119873,5.511000156402588,-0.26205000281333923
1750560175156975000,7.60997509765625,8.11500072479248,5.523000240325928,-0.24300001561641693
1750560175166579700,7.619579833984375,8.13705062866211,5.53695011138916,-0.2740500271320343
1750560175176184300,7.629184326171875,8.233050346374512,5.551050186157227,-0.33105000853538513
1750560175185789000,7.638788818359375,8.235000610351562,5.604000091552734,-0.30000001192092896
1750560175195393300,7.648393310546875,8.326050758361816,5.515050411224365,-0.23295001685619354
1750560175204998000,7.657997802734375,8.131950378417969,5.4910502433776855,-0.11100000888109207
1750560175214602500,7.6676025390625,7.821000576019287,5.499000072479248,0.022050000727176666
1750560175224206800,7.677206787109375,7.500000476837158,5.506050109863281,0.15600000321865082
1750560175233811500,7.6868115234375,7.450050354003906,5.542050361633301,0.28995001316070557
1750560175243416000,7.696416015625,7.677000522613525,5.557950496673584,0.40005001425743103
1750560175253020400,7.7060205078125,7.962000370025635,5.580000400543213,0.2850000262260437
1750560175262625000,7.715625,8.307000160217285,5.554050445556641,-0.006000000052154064
1750560175272229400,7.7252294921875,8.51294994354248,5.5819501876831055,-0.3769500255584717
1750560175281834000,7.734833984375,8.532000541687012,5.557950496673584,-0.5590500235557556
1750560175291438800,7.74443896484375,8.447999954223633,5.587050437927246,-0.583050012588501
1750560175301043200,7.754043212890625,8.212950706481934,5.545950412750244,-0.3340500295162201
1750560175310647600,7.7636474609375,7.969050407409668,5.568000316619873,-0.08700000494718552
1750560175320252200,7.773252197265625,7.677000522613525,5.635050296783447,0.06495000422000885
1750560175329856800,7.782856689453125,7.6080002784729,5.677950382232666,0.14400000870227814
1750560175339461400,7.79246142578125,7.6650004386901855,5.671050071716309,0.21105000376701355
1750560175349065700,7.802065673828125,7.669950485229492,5.7019500732421875,0.043950002640485764
1750560175358670300,7.81167041015625,7.770000457763672,5.731050491333008,-0.1969500035047531
1750560175368274700,7.821274658203125,7.90500020980835,5.689950466156006,-0.283050000667572
1750560175377879300,7.83087939453125,8.138999938964844,5.635050296783447,-0.2160000056028366
1750560175387484000,7.84048388671875,8.368950843811035,5.617950439453125,-0.10395000129938126
1750560175397088500,7.850088623046875,8.509950637817383,5.602050304412842,0.06300000101327896
1750560175406692900,7.85969287109375,8.500950813293457,5.578050136566162,0.09195000678300858
1750560175416297200,7.869297119140625,8.32800006866455,5.53695011138916,0.04800000041723251
1750560175425901800,7.87890185546875,8.02695083618164,5.503050327301025,0.06795000284910202
1750560175435506700,7.888506591796875,7.62000036239624,5.512950420379639,-0.04200000315904617
1750560175445111000,7.898111083984375,7.404000282287598,5.53695011138916,-0.23295001685619354
1750560175454715400,7.90771533203125,7.477950572967529,5.57295036315918,-0.3460500240325928
1750560175464320300,7.9173203125,7.792050361633301,5.500950336456299,-0.32895001769065857
1750560175473924600,7.926924560546875,8.326050758361816,5.488950252532959,-0.27900001406669617
1750560175483529200,7.936529296875,8.63700008392334,5.419950485229492,-0.15600000321865082
1750560175493133600,7.946133544921875,8.608050346374512,5.404950141906738,-0.07695000618696213
1750560175502738200,7.95573828125,8.33595085144043,5.448000431060791,-0.04605000093579292
1750560175512342800,7.9653427734375,8.050950050354004,5.47005033493042,0.019950000569224358
1750560175521947100,7.974947021484375,7.837050437927246,5.544000148773193,-0.10605000704526901
1750560175531551700,7.9845517578125,7.726950168609619,5.608950138092041,-0.3379500210285187
1750560175541156400,7.99415625,7.627050399780273,5.64900016784668,-0.47700002789497375
1750560175550761000,8.003760986328125,7.651050567626953,5.6569504737854,-0.4440000355243683
1750560175560365300,8.013365234375,7.657950401306152,5.64900016784668,-0.3169500231742859
1750560175569970000,8.022969970703125,7.954950332641602,5.635050296783447,-0.15195000171661377
1750560175579574500,8.032574462890626,8.422050476074219,5.602050304412842,-0.10905000567436218
1750560175589179100,8.04217919921875,8.749950408935547,5.623050212860107,-0.0580500029027462
1750560175598783500,8.051783447265626,8.862000465393066,5.608950138092041,-0.030000001192092896
1750560175608388000,8.06138818359375,8.608050346374512,5.620950222015381,-0.018000001087784767
1750560175617992400,8.070992431640626,8.176950454711914,5.629950046539307,0.00795000046491623
1750560175627597000,8.08059716796875,7.7149505615234375,5.659050464630127,0.06000000238418579
1750560175637201700,8.09020166015625,7.531050205230713,5.653950214385986,0.06795000284910202
1750560175646806300,8.09980615234375,7.7470502853393555,5.665950298309326,-0.05100000277161598
1750560175656410600,8.10941064453125,8.227950096130371,5.640000343322754,-0.1399500072002411
1750560175666015200,8.11901513671875,8.628000259399414,5.6449503898620605,-0.23100000619888306
1750560175675619600,8.12861962890625,8.68695068359375,5.617950439453125,-0.2639999985694885
1750560175685224200,8.13822412109375,8.464950561523438,5.56095027923584,-0.24495001137256622
1750560175694828800,8.147828857421874,8.221050262451172,5.557950496673584,-0.18495000898838043
1750560175704433200,8.15743310546875,8.070000648498535,5.554050445556641,-0.08700000494718552
1750560175714037800,8.167037841796875,8.05305004119873,5.539050102233887,0.09405000507831573
1750560175723642000,8.17664208984375,8.163000106811523,5.499000072479248,0.22995001077651978
1750560175733246700,8.186246826171875,8.223000526428223,5.520000457763672,0.04605000093579292
1750560175742851300,8.195851318359376,8.166000366210938,5.569950103759766,-0.25005000829696655
1750560175752456000,8.2054560546875,8.110050201416016,5.593950271606445,-0.5350500345230103
1750560175762060300,8.215060302734376,7.993050575256348,5.590050220489502,-0.5490000247955322
1750560175771665000,8.224664794921875,7.930950164794922,5.580000400543213,-0.46995002031326294
1750560175781269500,8.23426953125,7.861050605773926,5.604000091552734,-0.36705002188682556
1750560175790874000,8.2438740234375,7.782000541687012,5.602050304412842,-0.19005000591278076
1750560175800478500,8.253478515625,7.81095027923584,5.5489501953125,0.11505000293254852
1750560175810083000,8.2630830078125,7.870950222015381,5.53695011138916,0.24705001711845398
1750560175819687400,8.2726875,8.13705062866211,5.569950103759766,0.04605000093579292
1750560175829292000,8.2822919921875,8.260950088500977,5.599050045013428,-0.2160000056028366
1750560175838896600,8.291896728515624,8.295000076293945,5.608950138092041,-0.31905001401901245
1750560175848501000,8.3015009765625,8.161050796508789,5.629950046539307,-0.31905001401901245
1750560175858105600,8.311105712890624,8.206049919128418,5.593950271606445,-0.2950500249862671
1750560175867710200,8.320710205078125,8.447999954223633,5.611050128936768,-0.322050005197525
1750560175877314800,8.330314697265624,8.484000205993652,5.520000457763672,-0.0970500037074089
1750560175886919200,8.339919189453125,8.379000663757324,5.499000072479248,0.0799500048160553
1750560175896523800,8.349523681640624,8.154000282287598,5.476950168609619,0.12495000660419464
1750560175906128400,8.35912841796875,7.998000144958496,5.4720001220703125,0.17805001139640808
1750560175915732700,8.368732666015624,8.067000389099121,5.557950496673584,0.013050000183284283
1750560175925337300,8.37833740234375,8.425950050354004,5.611050128936768,-0.10395000129938126
1750560175934942000,8.38794189453125,8.857050895690918,5.6569504737854,-0.22800001502037048
1750560175944546600,8.397546630859376,9.169050216674805,5.700000286102295,-0.20400001108646393
1750560175954151000,8.40715087890625,8.958000183105469,5.695050239562988,-0.0990000069141388
1750560175963755500,8.416755615234376,8.175000190734863,5.764050483703613,-0.043950002640485764
1750560175973360000,8.426360107421875,7.04295015335083,5.937000274658203,-0.09405000507831573
1750560175982964700,8.43596484375,5.9599504470825195,5.90595006942749,-0.17295001447200775
1750560175992569000,8.445569091796875,5.029050350189209,5.953050136566162,-0.10905000567436218
1750560176002173700,8.455173583984376,4.066050052642822,5.884050369262695,0.16095000505447388
1750560176011778300,8.4647783203125,2.527050018310547,5.748000144958496,0.46995002031326294
1750560176021382700,8.474382568359376,1.5049500465393066,5.647050380706787,0.520050048828125
1750560176030987300,8.4839873046875,1.4880000352859497,5.719050407409668,0.17505000531673431
1750560176040592000,8.493591796875,1.2889500856399536,5.199000358581543,0.3169500231742859
1750560176050196200,8.5031962890625,-0.10095000267028809,4.4670000076293945,0.4510500133037567
1750560176059800600,8.512800537109374,-2.3779501914978027,3.1110000610351562,0.9679500460624695
1750560176069405400,8.522405517578125,-3.229950189590454,1.3300501108169556,0.8340000510215759
1750560176079009500,8.532009521484374,-1.987950086593628,-0.12495000660419464,-0.6520500183105469
1750560176088614400,8.541614501953125,0.9199500679969788,-1.420050024986267,-1.686000108718872
1750560176098218800,8.55121875,4.903950214385986,-2.6070001125335693,-2.184000015258789
1750560176107823600,8.56082373046875,9.295950889587402,-3.015000104904175,-2.704050064086914
1750560176117428000,8.570427978515625,13.12605094909668,-2.490000009536743,-1.9950001239776611
1750560176127032300,8.5800322265625,16.5,-1.7839500904083252,-1.059000015258789
1750560176136637000,8.589636962890625,20.50605010986328,-0.8620500564575195,-0.4939500093460083
1750560176146241500,8.599241455078126,25.213050842285156,0.4990500211715698,-1.2990000247955322
1750560176155846000,8.608845947265625,28.090951919555664,0.7750500440597534,-1.7820000648498535
1750560176165450500,8.618450439453126,26.91495132446289,0.10395000129938126,-0.7099500298500061
1750560176175055000,8.62805517578125,21.957000732421875,-0.12495000660419464,0.28995001316070557
1750560176184659500,8.637659423828126,16.069049835205078,-0.16995000839233398,0.8580000400543213
1750560176194264000,8.64726416015625,12.265050888061523,-0.10095000267028809,0.9199500679969788
1750560176203868700,8.65686865234375,9.870000839233398,0.4510500133037567,1.0330500602722168
1750560176213473300,8.666473388671875,9.973050117492676,0.6409500241279602,1.4280000925064087
1750560176223077600,8.67607763671875,11.055000305175781,0.9930000305175781,1.7700001001358032
1750560176232682200,8.68568212890625,12.79800033569336,1.582050085067749,1.7650500535964966
1750560176242286800,8.695286865234374,14.59695053100586,1.8880500793457031,1.7269500494003296
1750560176251891200,8.70489111328125,15.375000953674316,1.977000117301941,1.9180500507354736
1750560176261495800,8.714495849609374,15.982951164245605,1.858950138092041,2.761050224304199
1750560176271100400,8.724100341796875,15.351000785827637,2.0749499797821045,2.8350000381469727
1750560176280705000,8.733705078125,13.545001029968262,2.139000177383423,2.6610000133514404
1750560176290309600,8.7433095703125,11.428950309753418,2.4079501628875732,2.095950126647949
1750560176299914000,8.7529140625,9.741000175476074,2.419950008392334,1.5109500885009766
1750560176309518300,8.762518310546875,9.346050262451172,2.5060501098632812,0.6490500569343567
1750560176319123000,8.772123046875,9.484950065612793,2.371950149536133,0.10095000267028809
1750560176328727600,8.7817275390625,8.07194995880127,2.0839500427246094,-0.24495001137256622
1750560176338332200,8.791332275390625,5.170050144195557,1.9930500984191895,-0.0970500037074089
1750560176347936500,8.8009365234375,2.505000114440918,2.379000186920166,0.028950002044439316
1750560176357540900,8.810540771484375,1.5690001249313354,3.2190001010894775,-0.26205000281333923
1750560176367145700,8.820145751953126,3.703050136566162,3.9810001850128174,-0.47700002789497375
1750560176376750000,8.82975,6.7860002517700195,4.255949974060059,-0.8770500421524048
1750560176386354400,8.8393544921875,8.890950202941895,4.129050254821777,-0.89205002784729
1750560176395959000,8.848958984375,7.9170002937316895,4.207950115203857,-0.9510000348091125
1750560176405563600,8.858563720703126,5.295000076293945,4.597949981689453,-1.4970000982284546
1750560176415168300,8.868168212890625,3.3190500736236572,4.813950061798096,-1.4640001058578491
1750560176424772600,8.877772705078126,2.8999500274658203,4.924050331115723,-1.072950005531311
1750560176434377200,8.887377197265625,4.198050022125244,5.014950275421143,-0.7170000076293945
1750560176443981800,8.89698193359375,6.055950164794922,5.010000228881836,-0.6109500527381897
1750560176453586200,8.906586181640625,7.792050361633301,5.115000247955322,-0.8119500279426575
1750560176463190800,8.916190673828124,9.267000198364258,5.095950126647949,-0.7120500206947327
1750560176472795400,8.92579541015625,9.568950653076172,5.080050468444824,-0.7120500206947327
1750560176482399700,8.935399658203124,9.058950424194336,5.044050216674805,-0.5920500159263611
1750560176492004400,8.94500439453125,8.058000564575195,5.2420501708984375,-0.47700002789497375
1750560176501609000,8.95460888671875,7.279950141906738,5.380950450897217,-0.597000002861023
1750560176511213300,8.96421337890625,6.89400053024292,5.4720001220703125,-0.8080500364303589
1750560176520818000,8.97381787109375,6.255000114440918,5.533950328826904,-0.609000027179718
1750560176530422500,8.983422607421875,5.878950119018555,5.629950046539307,-0.18300001323223114
1750560176540027100,8.993027099609375,6.307950496673584,5.748000144958496,-0.10605000704526901
1750560176549631700,9.0026318359375,7.500000476837158,5.767050266265869,-0.3550500273704529
1750560176559236400,9.012236328125,8.664000511169434,5.677950382232666,-0.7909500598907471
1750560176568840700,9.0218408203125,9.22605037689209,5.664000034332275,-0.9270000457763672
1750560176578445300,9.0314453125,9.065999984741211,5.719050407409668,-0.7140000462532043
1750560176588050000,9.0410498046875,8.557950019836426,5.772000312805176,-0.31905001401901245
1750560176597654300,9.050654296875,7.885050296783447,5.737950325012207,0.2350500077009201
1750560176607259000,9.0602587890625,7.258050441741943,5.788050174713135,0.48405003547668457
1750560176616863200,9.06986328125,7.011000156402588,5.926950454711914,0.5610000491142273
1750560176626467800,9.0794677734375,7.1260504722595215,5.94195032119751,0.4819500148296356
1750560176636072200,9.089072265625,7.5169501304626465,5.934000492095947,0.22800001502037048
1750560176645676800,9.0986767578125,7.861050605773926,6.016050338745117,-0.018000001087784767
1750560176655281400,9.108281494140625,8.034000396728516,6.03000020980835,-0.2350500077009201
1750560176664885800,9.1178857421875,8.107950210571289,6.010950088500977,-0.3169500231742859
1750560176674490400,9.127490478515625,8.082000732421875,5.985000133514404,-0.25200000405311584
1750560176684095000,9.137094970703124,8.14905071258545,5.925000190734863,0.06495000422000885
1750560176693699600,9.146699462890625,8.236949920654297,5.8309502601623535,0.3450000286102295
1750560176703304000,9.156303955078124,8.331000328063965,5.81505012512207,0.4339500069618225
1750560176712908300,9.165908203125,8.292000770568848,5.821950435638428,0.4050000309944153
1750560176722513000,9.175512939453125,8.035950660705566,5.81505012512207,0.38100001215934753
1750560176732117500,9.185117431640625,7.804050445556641,5.922000408172607,0.38100001215934753
1750560176741722000,9.19472216796875,7.713000297546387,5.953050136566162,0.41700002551078796
1750560176751326500,9.204326416015626,7.9069504737854,5.889000415802002,0.3840000033378601
1750560176760931000,9.21393115234375,8.268000602722168,5.83905029296875,0.2350500077009201
1750560176770535700,9.22353564453125,8.580000877380371,5.8120503425598145,-0.14205001294612885
1750560176780140300,9.233140380859375,8.701950073242188,5.75700044631958,-0.39795002341270447
1750560176789744600,9.24274462890625,8.355000495910645,5.740050315856934,-0.5040000081062317
1750560176799349200,9.252349365234375,8.062950134277344,5.7430500984191895,-0.4249500334262848
1750560176808953900,9.261953857421876,7.785000324249268,5.688000202178955,-0.0970500037074089
1750560176818558200,9.27155810546875,7.543050289154053,5.680950164794922,0.283050000667572
1750560176828162800,9.281162841796874,7.372950553894043,5.713950157165527,0.46695002913475037
1750560176837767400,9.290767333984375,7.404000282287598,5.761950492858887,0.3859500288963318
1750560176847371800,9.300371826171874,7.657950401306152,5.860050201416016,0.28995001316070557
1750560176856976400,9.309976318359375,7.660050392150879,5.841000080108643,0.17100000381469727
1750560176866581000,9.3195810546875,7.528950214385986,5.944050312042236,-0.10605000704526901
1750560176876185600,9.329185546875,7.593000411987305,5.946000099182129,-0.29295000433921814
1750560176885790000,9.3387900390625,7.842000484466553,5.8909502029418945,-0.2950500249862671
1750560176895394600,9.34839453125,8.419050216674805,5.85105037689209,-0.42000001668930054
1750560176904999200,9.357999267578125,9.039000511169434,5.824050426483154,-0.5110500454902649
1750560176914603500,9.367603515625,9.106050491333008,5.6449503898620605,-0.1969500035047531
1750560176924208000,9.3772080078125,8.689949989318848,5.602050304412842,0.16305001080036163
1750560176933812700,9.386812744140625,7.984050273895264,5.647050380706787,0.3139500021934509
1750560176943417300,9.396417236328125,7.335000514984131,5.677950382232666,0.3379500210285187
1750560176953021700,9.406021728515626,7.030950546264648,5.749950408935547,0.2760000228881836
1750560176962626300,9.415626220703125,7.1170501708984375,5.752050399780273,0.22305001318454742
1750560176972231000,9.42523095703125,7.440000534057617,5.7330002784729,0.06795000284910202
1750560176981835300,9.434835205078125,7.890000343322754,5.772000312805176,-0.14205001294612885
1750560176991440000,9.44443994140625,8.038949966430664,5.664000034332275,-0.25005000829696655
1750560177001044500,9.45404443359375,8.194050788879395,5.617950439453125,-0.2950500249862671
1750560177010648800,9.46364892578125,8.247000694274902,5.587050437927246,-0.30000001192092896
1750560177020253200,9.473253173828125,8.200950622558594,5.554050445556641,-0.23295001685619354
1750560177029857800,9.48285791015625,8.154000282287598,5.523000240325928,-0.027000000700354576
1750560177039462400,9.49246240234375,8.14905071258545,5.479050159454346,0.19500000774860382
1750560177049066800,9.502066650390624,8.212950706481934,5.5489501953125,0.2659500241279602
1750560177058671400,9.51167138671875,8.098050117492676,5.539050102233887,0.22995001077651978
1750560177068276000,9.52127587890625,7.938000202178955,5.620950222015381,0.1080000028014183
1750560177077880300,9.53088037109375,7.782000541687012,5.740050315856934,-0.13005000352859497
1750560177087485000,9.54048486328125,7.7749505043029785,5.749950408935547,-0.2550000250339508
1750560177097089500,9.550089599609375,7.9960503578186035,5.74500036239624,-0.24300001561641693
1750560177106694000,9.55969384765625,8.32800006866455,5.713950157165527,-0.24000000953674316
1750560177116298500,9.569298583984375,8.515049934387207,5.683050155639648,-0.25200000405311584
1750560177125903000,9.578903076171875,8.40000057220459,5.659050464630127,-0.17595000565052032
1750560177135507700,9.5885078125,8.197050094604492,5.683050155639648,0.022050000727176666
1750560177145112300,9.5981123046875,7.893000602722168,5.695050239562988,0.21105000376701355
1750560177154716700,9.607716552734376,7.561950206756592,5.752050399780273,0.3330000042915344
1750560177164321300,9.6173212890625,7.414050579071045,5.791050434112549,0.22095000743865967
1750560177173926000,9.62692578125,7.300950527191162,5.842950344085693,0.00795000046491623
1750560177183530200,9.6365302734375,7.426050186157227,5.800050258636475,-0.07005000114440918
1750560177193134800,9.646134765625,7.897050380706787,5.833950042724609,-0.19995000958442688
1750560177202739500,9.655739501953125,8.33595085144043,5.761950492858887,-0.27105000615119934
1750560177212344000,9.665343994140626,8.697000503540039,5.728050231933594,-0.2740500271320343
1750560177221948400,9.674948486328125,8.778000831604004,5.688000202178955,-0.29100000858306885
1750560177231553000,9.684552978515624,8.482049942016602,5.6419501304626465,-0.2350500077009201
1750560177241157400,9.694157470703125,7.948050498962402,5.713950157165527,-0.22095000743865967
1750560177250762000,9.703761962890624,7.471050262451172,5.731050491333008,-0.17805001139640808
1750560177260366600,9.71336669921875,7.134000301361084,5.7430500984191895,-0.027000000700354576
1750560177269971000,9.722970947265624,7.153050422668457,5.797950267791748,0.05295000225305557
1750560177279575800,9.732575927734375,7.519050121307373,5.8120503425598145,-0.034050002694129944
1750560177289180200,9.74218017578125,7.9960503578186035,5.779050350189209,-0.19005000591278076
1750560177298784800,9.75178466796875,8.37405014038086,5.755050182342529,-0.2569500207901001
1750560177308389400,9.761389404296875,8.632050514221191,5.716050148010254,-0.2350500077009201
1750560177317993700,9.77099365234375,8.842950820922852,5.707050323486328,-0.21195000410079956
1750560177327598000,9.78059814453125,8.770950317382812,5.673000335693359,-0.322050005197525
1750560177337202700,9.79020263671875,8.35004997253418,5.7210001945495605,-0.24000000953674316
1750560177346807300,9.799807373046875,7.813950538635254,5.719050407409668,0.004950000438839197
1750560177356412000,9.809411865234376,7.4569501876831055,5.665950298309326,0.19500000774860382
1750560177366016300,9.819016357421875,7.3060503005981445,5.704050064086914,0.1660500019788742
1750560177375620900,9.828620849609376,7.323000431060791,5.788050174713135,0.019950000569224358
1750560177385225200,9.83822509765625,7.561950206756592,5.821950435638428,-0.08895000070333481
1750560177394829800,9.847829833984376,7.962000370025635,5.788050174713135,-0.11595000326633453
1750560177404434400,9.857434326171875,8.27595043182373,5.761950492858887,-0.21900001168251038
1750560177414038800,9.867038818359376,8.42400074005127,5.755050182342529,-0.3550500273704529
1750560177423643400,9.876643310546875,8.284950256347656,5.728050231933594,-0.34995001554489136
1750560177433248000,9.886248046875,7.981050491333008,5.716050148010254,-0.25200000405311584
1750560177442852600,9.8958525390625,7.780050277709961,5.7019500732421875,-0.11595000326633453
1750560177452457000,9.90545703125,7.7560505867004395,5.704050064086914,0.016950000077486038
1750560177462061600,9.9150615234375,7.833000183105469,5.692950248718262,0.040950000286102295
1750560177471666200,9.924666259765624,7.914000511169434,5.707050323486328,0.031950000673532486
1750560177481270800,9.934270751953125,7.951950550079346,5.761950492858887,0.1080000028014183
1750560177490875100,9.943875244140624,7.809000492095947,5.791050434112549,0.013050000183284283
1750560177500479700,9.953479736328125,7.735050201416016,5.794950485229492,-0.10605000704526901
1750560177510084400,9.96308447265625,7.656000137329102,5.8120503425598145,-0.208950012922287
1750560177519688700,9.972688720703125,7.7989501953125,5.791050434112549,-0.26205000281333923
1750560177529293300,9.982293212890625,8.0149507522583,5.769000053405762,-0.19995000958442688
1750560177538898000,9.99189794921875,8.227950096130371,5.781000137329102,-0.1489500105381012
1750560177548502300,10.001502197265625,8.356950759887695,5.652000427246094,-0.027000000700354576
1750560177558107000,10.01110693359375,8.359050750732422,5.635050296783447,0.015000000596046448
1750560177567711500,10.02071142578125,8.271000862121582,5.647050380706787,-0.04605000093579292
1750560177577315800,10.03031591796875,8.058000564575195,5.604000091552734,0.022050000727176666
1750560177586920400,10.03992041015625,7.830000400543213,5.628000259399414,0.05100000277161598
1750560177596525000,10.049525146484376,7.648050308227539,5.728050231933594,0.027000000700354576
1750560177606129700,10.059129638671875,7.612050533294678,5.724000453948975,0.04605000093579292
1750560177615734000,10.068734130859376,7.8160505294799805,5.709000110626221,-0.06105000153183937
1750560177625338400,10.07833837890625,8.221050262451172,5.719050407409668,-0.27105000615119934
1750560177634943000,10.08794287109375,8.64900016784668,5.64900016784668,-0.44895002245903015
1750560177644547800,10.0975478515625,8.776050567626953,5.56095027923584,-0.5059500336647034
1750560177654152200,10.107152099609374,8.419050216674805,5.53695011138916,-0.36195001006126404
1750560177663756800,10.1167568359375,7.90500020980835,5.512950420379639,-0.10905000567436218
1750560177673361200,10.126361083984374,7.548000335693359,5.568000316619873,0.025050001218914986
1750560177682965800,10.1359658203125,7.543050289154053,5.623050212860107,0.07200000435113907
1750560177692570000,10.145570068359374,7.569000244140625,5.677950382232666,-0.05400000140070915
1750560177702174700,10.1551748046875,7.750950336456299,5.716050148010254,-0.17100000381469727
1750560177711779000,10.164779052734374,7.869000434875488,5.767050266265869,-0.19005000591278076
1750560177721384000,10.174384033203125,7.7989501953125,5.769000053405762,-0.1469999998807907
1750560177730988300,10.18398828125,7.81095027923584,5.901000499725342,-0.22800001502037048
1750560177740593000,10.193593017578126,7.873050212860107,5.893950462341309,-0.3460500240325928
1750560177750197200,10.203197265625,8.08905029296875,5.90595006942749,-0.3859500288963318
1750560177759801900,10.2128017578125,8.302050590515137,5.845950126647949,-0.24705001711845398
1750560177769406500,10.222406494140625,8.131950378417969,5.713950157165527,0.10095000267028809
1750560177779010800,10.2320107421875,7.852050304412842,5.75700044631958,0.1870500147342682
1750560177788615400,10.241615478515625,7.617000579833984,5.836050510406494,0.08205000311136246
1750560177798220000,10.251219970703126,7.576950550079346,5.854950428009033,-0.0010500000789761543
1750560177807824600,10.26082470703125,7.663050174713135,5.90595006942749,-0.07304999977350235
1750560177817429000,10.270428955078126,7.770000457763672,5.896050453186035,-0.11595000326633453
1750560177827033600,10.28003369140625,7.669950485229492,5.9320502281188965,-0.09405000507831573
1750560177836638200,10.28963818359375,7.785000324249268,5.9320502281188965,-0.10905000567436218
1750560177846242600,10.29924267578125,7.975950241088867,5.853000164031982,-0.13305000960826874
1750560177855847200,10.30884716796875,8.32395076751709,5.860050201416016,-0.22800001502037048
1750560177865451800,10.31845166015625,8.37600040435791,5.781000137329102,-0.16095000505447388
1750560177875056400,10.328056396484374,8.236949920654297,5.788050174713135,-0.07005000114440918
1750560177884661000,10.337660888671875,7.902000427246094,5.818950176239014,0.10095000267028809
1750560177894265300,10.347265380859374,7.531050205230713,5.8030500411987305,0.19905000925064087
1750560177903869700,10.35686962890625,7.420950412750244,5.860050201416016,0.013050000183284283
1750560177913474300,10.366474365234374,7.6459503173828125,5.925000190734863,-0.22605000436306
1750560177923079000,10.376078857421875,8.176950454711914,5.884050369262695,-0.4729500114917755
1750560177932683500,10.38568359375,8.701950073242188,5.881950378417969,-0.5440500378608704
1750560177942288100,10.3952880859375,8.845050811767578,5.949000358581543,-0.29295000433921814
1750560177951892500,10.404892578125,8.620050430297852,6.021000385284424,-0.08205000311136246
1750560177961496800,10.414496826171876,8.509950637817383,5.9920501708984375,0.13199999928474426
1750560177971101400,10.424101318359375,8.884050369262695,6.0010504722595215,0.06000000238418579
1750560177980706000,10.4337060546875,8.893050193786621,5.821950435638428,0.016950000077486038
1750560177990310700,10.443310546875,8.470050811767578,5.779050350189209,0.1469999998807907
1750560177999915000,10.4529150390625,7.663050174713135,5.8030500411987305,0.16095000505447388
1750560178009519600,10.46251953125,6.556950092315674,5.731050491333008,0.24195000529289246
1750560178019124000,10.4721240234375,5.6419501304626465,5.685000419616699,0.0799500048160553
1750560178028728600,10.481728515625,4.876049995422363,5.700000286102295,-0.013050000183284283
1750560178038333200,10.491333251953124,3.970950126647949,5.6419501304626465,0.08400000631809235
1750560178047937500,10.5009375,3.2719502449035645,5.3620500564575195,0.25005000829696655
1750560178057542100,10.510542236328124,2.697000026702881,5.062950134277344,0.6400500535964966
1750560178067146800,10.520146728515625,1.7970000505447388,4.728000164031982,1.1880000829696655
1750560178076751000,10.529751220703124,-0.5850000381469727,4.06695032119751,1.576050043106079
1750560178086355700,10.539355712890625,-3.3360002040863037,3.4009501934051514,1.1260499954223633
1750560178095960300,10.548960205078124,-3.5749502182006836,2.0719501972198486,0.00795000046491623
1750560178105565000,10.55856494140625,-1.9399501085281372,0.45600003004074097,-2.0500500202178955
1750560178115169300,10.568169189453124,-0.016950000077486038,-1.125,-2.7810001373291016
1750560178124774000,10.57777392578125,2.6130001544952393,-2.551950216293335,-2.886000156402588
1750560178134378200,10.587378173828125,6.150000095367432,-3.4740002155303955,-2.4019501209259033
1750560178143982800,10.59698291015625,10.744050979614258,-3.781050205230713,-2.187000036239624
1750560178153587500,10.60658740234375,16.41105079650879,-2.6100001335144043,-2.986950159072876
1750560178163192000,10.616192138671876,22.761001586914062,-0.39795002341270447,-3.825000286102295
1750560178172796400,10.62579638671875,27.255001068115234,0.7000500559806824,-3.7740001678466797
1750560178182401000,10.635401123046876,27.753002166748047,0.736050009727478,-2.4790501594543457
1750560178192005600,10.645005615234375,24.832050323486328,0.29100000858306885,-0.7000500559806824
1750560178201610200,10.6546103515625,19.327951431274414,-0.3349500298500061,0.8670000433921814
1750560178211214800,10.66421484375,13.129050254821777,-1.1400001049041748,1.9399501085281372
1750560178220819200,10.673819091796876,8.43600082397461,-1.3099501132965088,2.263050079345703
1750560178230423800,10.683423828125,6.169050216674805,-0.687000036239624,1.8030000925064087
1750560178240028400,10.6930283203125,6.8580002784729,-0.004950000438839197,1.2930001020431519
1750560178249632800,10.7026328125,10.198050498962402,0.697950005531311,0.8650500178337097
1750560178259237400,10.7122373046875,14.472001075744629,1.2850500345230103,0.4909500181674957
1750560178268841700,10.721841796875,18.339000701904297,1.4520000219345093,0.9300000667572021
1750560178278446300,10.7314462890625,20.05095100402832,1.4740500450134277,1.3129500150680542
1750560178288051000,10.741051025390625,20.761951446533203,1.162950038909912,1.7959500551223755
1750560178297655000,10.750655029296874,19.902000427246094,0.973050057888031,1.7680500745773315
1750560178307260000,10.760260009765625,17.913000106811523,0.5209500193595886,2.067000150680542
1750560178316864500,10.769864501953125,15.789000511169434,0.37995001673698425,2.6680500507354736
1750560178326469000,10.77946923828125,13.216950416564941,1.0840500593185425,2.1529500484466553
1750560178336073500,10.789073486328125,12.22095012664795,1.6990500688552856,1.5280500650405884
1750560178345678000,10.798677978515625,11.896050453186035,2.3479502201080322,0.7000500559806824
1750560178355282400,10.808282470703125,12.13800048828125,1.6150500774383545,0.1080000028014183
1750560178364887000,10.817886962890626,12.553950309753418,1.1119500398635864,-0.9780000448226929
1750560178374491600,10.82749169921875,10.794000625610352,0.4230000078678131,-0.42900002002716064
1750560178384096300,10.83709619140625,7.7470502853393555,-0.3949500322341919,1.1500500440597534
1750560178393700600,10.84670068359375,4.153050422668457,0.12300000339746475,1.6219500303268433
1750560178403305200,10.85630517578125,0.9469500184059143,1.6579500436782837,1.4160000085830688
1750560178412909800,10.865909912109375,-1.1620500087738037,3.424950122833252,0.999000072479248
1750560178422514400,10.875514404296876,-2.6989500522613525,4.861950397491455,0.520050048828125
1750560178432118800,10.885118896484375,-1.4440500736236572,5.566050052642822,-0.4320000112056732
1750560178441723100,10.89472314453125,0.9919500350952148,6.210000514984131,-1.6840500831604004
1750560178451327700,10.90432763671875,2.9790000915527344,5.902950286865234,-2.25600004196167
1750560178460932400,10.913932373046874,3.2479500770568848,5.64900016784668,-2.6419501304626465
1750560178470537000,10.923536865234375,3.0900001525878906,5.862000465393066,-2.761050224304199
1750560178480141300,10.933141357421874,3.561000108718872,5.9509501457214355,-2.0530500411987305
1750560178489746000,10.942745849609375,5.1220502853393555,5.833950042724609,-0.8340000510215759
1750560178499350500,10.9523505859375,6.7669501304626465,5.772000312805176,0.5179499983787537
1750560178508955100,10.961955078125,7.849050521850586,6.109050273895264,0.9559500217437744
1750560178518559500,10.9715595703125,8.035950660705566,6.183000087738037,0.49605002999305725
1750560178528164000,10.9811640625,8.179950714111328,5.962950229644775,-0.778950035572052
1750560178537768700,10.990768798828125,8.070000648498535,6.085050106048584,-1.8250501155853271
1750560178547373000,11.000373046875,7.348950386047363,6.064050197601318,-2.164950132369995
1750560178556977700,11.009977783203125,6.298050403594971,6.079950332641602,-1.7700001001358032
1750560178566582300,11.019582275390626,5.5320000648498535,6.207000255584717,-1.2169500589370728
1750560178576186600,11.0291865234375,5.505000114440918,6.207000255584717,-0.6349500417709351
1750560178585791200,11.038791259765626,5.862000465393066,6.082950115203857,-0.23100000619888306
1750560178595395800,11.048395751953125,6.655050277709961,6.22605037689209,-0.30000001192092896
1750560178605000200,11.058000244140626,7.279950141906738,6.444000244140625,-0.6019500494003296
1750560178614604800,11.067604736328125,7.725000381469727,6.420000076293945,-0.8629500269889832
1750560178624209400,11.07720947265625,8.12700080871582,6.5209503173828125,-0.8580000400543213
1750560178633813800,11.086813720703125,8.161050796508789,6.442050457000732,-0.47700002789497375
1750560178643418400,11.09641845703125,7.801950454711914,6.370050430297852,-0.019950000569224358
1750560178653022700,11.106022705078125,7.371000289916992,6.418050289154053,0.31200000643730164
1750560178662627300,11.11562744140625,6.94005012512207,6.490050315856934,0.34095001220703125
1750560178672232000,11.12523193359375,6.95205020904541,6.487050533294678,0.14205001294612885
1750560178681836500,11.13483642578125,6.991950511932373,6.484950542449951,-0.05400000140070915
1750560178691441200,11.144441162109375,7.081050395965576,6.496950149536133,-0.18495000898838043
1750560178701045200,11.154045166015624,6.9559502601623535,6.499050140380859,-0.26205000281333923
1750560178710650000,11.163650146484375,7.102050304412842,6.463050365447998,-0.19200000166893005
1750560178720254700,11.173254638671875,7.885050296783447,6.463050365447998,-0.15900000929832458
1750560178729859000,11.182859130859375,8.740050315856934,6.334050178527832,-0.1879500150680542
1750560178739463700,11.192463623046875,9.022950172424316,6.283950328826904,-0.38895002007484436
1750560178749068000,11.202068115234376,8.785950660705566,6.406050205230713,-0.7170000076293945
1750560178758672600,11.211672607421875,8.118000030517578,6.3919501304626465,-0.6109500527381897
1750560178768277200,11.22127734375,7.549950122833252,6.343950271606445,-0.2569500207901001
1750560178777881600,11.230881591796875,7.189050197601318,6.384000301361084,0.18300001323223114
1750560178787486200,11.240486328125,7.086000442504883,6.444000244140625,0.5749500393867493
1750560178797090800,11.2500908203125,7.240950107574463,6.447000503540039,0.6040500402450562
1750560178806695200,11.259695068359376,7.557000160217285,6.456000328063965,0.29295000433921814
1750560178816299800,11.2692998046875,7.852050304412842,6.4830002784729,-0.26205000281333923
1750560178825904400,11.278904296875,8.166000366210938,6.3919501304626465,-0.6160500049591064
1750560178835508700,11.2885087890625,8.260950088500977,6.349050521850586,-0.6139500141143799
1750560178845113300,11.29811328125,8.242050170898438,6.3319501876831055,-0.4819500148296356
1750560178854718000,11.307718017578125,8.07194995880127,6.339000225067139,-0.2160000056028366
1750560178864322300,11.317322265625,7.830000400543213,6.3409504890441895,0.11295000463724136
1750560178873927000,11.326927001953125,7.395000457763672,6.379950523376465,0.364950031042099
1750560178883531500,11.336531494140624,7.093050479888916,6.447000503540039,0.364950031042099
1750560178893136100,11.34613623046875,7.035000324249268,6.490050315856934,0.17805001139640808
1750560178902740500,11.355740478515624,6.967950344085693,6.556950092315674,-0.12300000339746475
1750560178912345000,11.365344970703125,7.014000415802002,6.565950393676758,-0.3139500021934509
1750560178921949400,11.374949462890624,7.030950546264648,6.526050090789795,-0.286050021648407
1750560178931554300,11.38455419921875,7.213050365447998,6.4009504318237305,-0.30300000309944153
1750560178941158700,11.39415869140625,7.572000503540039,6.384000301361084,-0.3360000252723694
1750560178950763000,11.403762939453125,7.9360504150390625,6.303000450134277,-0.34995001554489136
1750560178960367600,11.41336767578125,8.098050117492676,6.234000205993652,-0.30000001192092896
1750560178969972000,11.422971923828126,7.999950408935547,6.247950077056885,-0.24495001137256622
1750560178979576800,11.432576904296875,7.7989501953125,6.274050235748291,-0.3169500231742859
1750560178989181400,11.442181396484376,7.423050403594971,6.246000289916992,-0.15195000171661377
1750560178998785500,11.45178564453125,6.931950092315674,6.2410502433776855,-0.05100000277161598
1750560179008390100,11.46139013671875,6.68595027923584,6.253050327301025,-0.23295001685619354
1750560179017994800,11.470994873046875,6.753000259399414,6.2410502433776855,-0.46095001697540283
1750560179027599400,11.480599365234376,7.147950172424316,6.283950328826904,-0.6420000195503235
1750560179037203700,11.49020361328125,7.653000354766846,6.211950302124023,-0.6400500535964966
1750560179046808300,11.499808349609374,7.890000343322754,6.175950527191162,-0.48705002665519714
1750560179056413000,11.509412841796875,7.969050407409668,6.142950057983398,-0.3840000033378601
1750560179066017300,11.519017333984374,7.881000518798828,6.147000312805176,-0.3240000009536743
1750560179075622000,11.528621826171875,7.72005033493042,6.106950283050537,-0.2160000056028366
1750560179085226500,11.5382265625,7.462050437927246,6.118950366973877,-0.08895000070333481
1750560179094830800,11.547830810546875,7.282050132751465,6.145050525665283,0.0010500000789761543
1750560179104435500,11.557435546875,7.192950248718262,6.130950450897217,-0.019950000569224358
1750560179114040000,11.5670400390625,7.291950225830078,6.223950386047363,-0.22605000436306
1750560179123644700,11.576644775390625,7.53795051574707,6.28095006942749,-0.36195001006126404
1750560179133249000,11.5862490234375,7.804050445556641,6.211950302124023,-0.4030500054359436
1750560179142853600,11.595853515625,8.0149507522583,6.259950160980225,-0.5230500102043152
1750560179152458200,11.605458251953126,7.890000343322754,6.235950469970703,-0.49605002999305725
1750560179162062600,11.6150625,7.584000587463379,6.22605037689209,-0.2569500207901001
1750560179171667200,11.624667236328126,7.368000507354736,6.22605037689209,-0.07005000114440918
1750560179181271800,11.634271728515625,7.3560004234313965,6.250050067901611,-0.13305000960826874
1750560179190876400,11.64387646484375,7.459050178527832,6.28095006942749,-0.25905001163482666
1750560179200481000,11.65348095703125,7.581000328063965,6.28095006942749,-0.34995001554489136
1750560179210085400,11.66308544921875,7.677000522613525,6.262050151824951,-0.3340500295162201
1750560179219690000,11.67268994140625,7.624050140380859,6.262050151824951,-0.35805001854896545
1750560179229294600,11.682294677734374,7.480950355529785,6.22605037689209,-0.4339500069618225
1750560179238899000,11.69189892578125,7.45395040512085,6.270000457763672,-0.5560500025749207
1750560179248503300,11.70150341796875,7.581000328063965,6.346050262451172,-0.6280500292778015
1750560179258108000,11.71110791015625,7.677000522613525,6.334050178527832,-0.5779500007629395
1750560179267712500,11.72071240234375,7.82295036315918,6.32895040512085,-0.3930000066757202
1750560179277316900,11.73031689453125,7.749000549316406,6.259950160980225,-0.20400001108646393
1750560179286921500,11.73992138671875,7.540950298309326,6.258000373840332,-0.11805000901222229
1750560179296525800,11.74952587890625,7.423050403594971,6.2910003662109375,-0.15900000929832458
1750560179306130400,11.75913037109375,7.4160003662109375,6.298050403594971,-0.2350500077009201
1750560179315735000,11.768735107421875,7.555050373077393,6.29295015335083,-0.3049500286579132
1750560179325339400,11.77833935546875,7.7440505027771,6.315000534057617,-0.31200000643730164
1750560179334944000,11.787944091796875,7.972050189971924,6.270000457763672,-0.34095001220703125
1750560179344548600,11.797548583984375,8.203949928283691,6.270000457763672,-0.47700002789497375
1750560179354153000,11.807153076171875,8.194050788879395,6.205050468444824,-0.46800002455711365
1750560179363757600,11.816757568359375,7.939950466156006,6.159000396728516,-0.3910500109195709
1750560179373362200,11.826362060546876,7.498050212860107,6.147000312805176,-0.29805001616477966
1750560179382966800,11.835966796875,7.095000267028809,6.198000431060791,-0.29805001616477966
1750560179392571400,11.8455712890625,7.0570502281188965,6.23805046081543,-0.24705001711845398
1750560179402175700,11.85517578125,7.1860504150390625,6.2310004234313965,-0.1399500072002411
1750560179411780400,11.8647802734375,7.471050262451172,6.277050495147705,-0.18495000898838043
1750560179421384700,11.874384765625,7.72005033493042,6.279000282287598,-0.283050000667572
1750560179430989300,11.8839892578125,7.939950466156006,6.277050495147705,-0.3360000252723694
1750560179440594000,11.893593994140625,8.110050201416016,6.21405029296875,-0.3960000276565552
1750560179450198300,11.9031982421875,8.161050796508789,6.154950141906738,-0.527999997138977
1750560179459803000,11.912802978515625,7.866000175476074,6.21405029296875,-0.6040500402450562
1750560179469407500,11.922407470703124,7.44195032119751,6.198000431060791,-0.4819500148296356
1750560179479012000,11.93201220703125,6.961050510406494,6.195000171661377,-0.17295001447200775
1750560179488616700,11.94161669921875,6.7819504737854,6.22605037689209,0.019950000569224358
1750560179498221000,11.951220947265625,6.94005012512207,6.23805046081543,-0.11595000326633453
1750560179507825700,11.96082568359375,7.284000396728516,6.262050151824951,-0.3739500045776367
1750560179517430300,11.97043017578125,7.627050399780273,6.2910003662109375,-0.4990500211715698
1750560179527034600,11.98003466796875,7.858950138092041,6.289050102233887,-0.492000013589859
1750560179536639000,11.989638916015625,7.91895055770874,6.250050067901611,-0.3340500295162201
1750560179546243600,11.99924365234375,7.737000465393066,6.235950469970703,-0.2670000195503235
1750560179555848200,12.00884814453125,7.6459503173828125,6.246000289916992,-0.3379500210285187
1750560179565452500,12.01845263671875,7.501950263977051,6.283950328826904,-0.34095001220703125
1750560179575057200,12.02805712890625,7.404000282287598,6.21405029296875,-0.34800001978874207
1750560179584661800,12.037661865234375,7.489950180053711,6.178950309753418,-0.3840000033378601
1750560179594266400,12.047266357421876,7.450050354003906,6.183000087738037,-0.283050000667572
1750560179603871000,12.05687109375,7.368000507354736,6.21405029296875,-0.18300001323223114
1750560179613475600,12.0664755859375,7.213050365447998,6.315000534057617,-0.20205001533031464
1750560179623079700,12.07607958984375,7.234050273895264,6.334050178527832,-0.25005000829696655
1750560179632684300,12.085684326171876,7.41795015335083,6.364950180053711,-0.35295000672340393
1750560179642289000,12.095288818359375,7.6459503173828125,6.325050354003906,-0.48000001907348633
1750560179651893200,12.104893310546874,7.6650004386901855,6.279000282287598,-0.5490000247955322
1750560179661497900,12.114497802734375,7.5360002517700195,6.2220001220703125,-0.37905001640319824
1750560179671102500,12.1241025390625,7.387050151824951,6.1810503005981445,-0.09195000678300858
1750560179680707000,12.13370703125,7.308000564575195,6.23805046081543,-0.019950000569224358
1750560179690311700,12.143311767578124,7.324950218200684,6.286050319671631,-0.20400001108646393
1750560179699916000,12.152916015625,7.462050437927246,6.303000450134277,-0.42900002002716064
1750560179709520600,12.162520751953124,7.483050346374512,6.277050495147705,-0.5989500284194946
1750560179719125200,12.172125244140625,7.45395040512085,6.250050067901611,-0.5520000457763672
1750560179728729600,12.1817294921875,7.383000373840332,6.253050327301025,-0.36000001430511475
1750560179738334200,12.191334228515625,7.5259504318237305,6.175950527191162,-0.27900001406669617
1750560179747938600,12.2009384765625,7.749000549316406,6.199950218200684,-0.3739500045776367
1750560179757543400,12.21054345703125,7.981050491333008,6.199950218200684,-0.48900002241134644
1750560179767147800,12.220147705078125,8.200950622558594,6.13800048828125,-0.4339500069618225
1750560179776752400,12.22975244140625,8.245050430297852,6.13800048828125,-0.3240000009536743
1750560179786356700,12.239356689453125,8.167950630187988,6.078000068664551,-0.30705001950263977
1750560179795961300,12.24896142578125,7.939950466156006,6.142950057983398,-0.3139500021934509
1750560179805566000,12.25856591796875,7.809000492095947,6.1620001792907715,-0.4990500211715698
1750560179815170300,12.26817041015625,7.8949503898620605,6.174000263214111,-0.7170000076293945
1750560179824775000,12.27777490234375,8.154000282287598,6.1710004806518555,-0.7260000109672546
1750560179834379500,12.287379638671876,8.10105037689209,6.1020002365112305,-0.5370000004768372
1750560179843984100,12.296984130859375,7.974000453948975,6.037050247192383,-0.37905001640319824
1750560179853588500,12.30658837890625,7.902000427246094,6.085050106048584,-0.37005001306533813
1750560179863192800,12.31619287109375,8.058000564575195,6.1120500564575195,-0.4650000333786011
1750560179872797400,12.32579736328125,8.194050788879395,6.151950359344482,-0.6589500308036804
1750560179882402000,12.335402099609375,8.227950096130371,6.1620001792907715,-0.7410000562667847
1750560179892006700,12.345006591796874,8.158050537109375,6.193050384521484,-0.690000057220459
1750560179901611000,12.354611083984375,7.90500020980835,6.199950218200684,-0.4510500133037567
1750560179911215600,12.364215576171874,7.870950222015381,6.339000225067139,-0.3910500109195709
1750560179920820200,12.3738203125,7.629000186920166,6.3100504875183105,-0.33105000853538513
1750560179930424800,12.3834248046875,7.411050319671631,6.3319501876831055,-0.23805001378059387
1750560179940029200,12.393029296875,7.335000514984131,6.4710001945495605,-0.1660500019788742
1750560179949633500,12.402633544921875,7.423050403594971,6.499050140380859,-0.006000000052154064
1750560179959238100,12.412238037109375,7.4160003662109375,6.466050148010254,0.1680000126361847
