time,seconds_elapsed,z,y,x
1750561025751105500,0.05810546875,7.450050354003906,6.459000110626221,-0.322050005197525
1750561025760710400,0.06771044921875,7.878000259399414,6.352950096130371,0.043950002640485764
1750561025770315000,0.07731494140625,8.034000396728516,6.016050338745117,0.7620000243186951
1750561025779920000,0.086919921875,8.245050430297852,5.75700044631958,1.0279500484466553
1750561025789524700,0.096524658203125,8.32395076751709,5.779050350189209,0.7380000352859497
1750561025799129300,0.10612939453125,8.259000778198242,5.985000133514404,0.016950000077486038
1750561025808734200,0.115734130859375,8.40000057220459,5.653950214385986,-0.25005000829696655
1750561025818339000,0.125339111328125,8.215950012207031,4.6369500160217285,-0.38895002007484436
1750561025827944000,0.13494384765625,8.33595085144043,5.218050479888916,-0.7140000462532043
1750561025837548500,0.144548583984375,8.63700008392334,6.175950527191162,-1.054050087928772
1750561025847153400,0.1541533203125,8.236949920654297,6.679050445556641,-1.1790000200271606
1750561025856758300,0.16375830078125,7.519050121307373,6.7510504722595215,-1.0930500030517578
1750561025866363100,0.173363037109375,7.204950332641602,6.628950119018555,-0.7620000243186951
1750561025875967700,0.1829677734375,7.335000514984131,6.447000503540039,-0.40095001459121704
1750561025885572600,0.192572509765625,7.581000328063965,6.283950328826904,-0.12495000660419464
1750561025895177500,0.202177490234375,8.098050117492676,6.135000228881836,0.05295000225305557
1750561025904782000,0.211781982421875,8.391000747680664,6.1020002365112305,-0.07695000618696213
1750561025914387200,0.22138720703125,8.6850004196167,6.133050441741943,-0.16395001113414764
1750561025923992000,0.230991943359375,8.745000839233398,6.223950386047363,-0.20400001108646393
1750561025933596700,0.2405966796875,8.517000198364258,6.1710004806518555,-0.36000001430511475
1750561025943201300,0.250201171875,8.12505054473877,6.085050106048584,-0.5179499983787537
1750561025952806100,0.25980615234375,7.821000576019287,6.085050106048584,-0.6190500259399414
1750561025962411000,0.269410888671875,7.588050365447998,6.1210503578186035,-0.7140000462532043
1750561025972015600,0.279015625,7.53795051574707,6.139950275421143,-0.7410000562667847
1750561025981620500,0.288620361328125,7.471050262451172,6.118950366973877,-0.6310500502586365
1750561025991225300,0.298225341796875,7.420950412750244,6.006000518798828,-0.325950026512146
1750561026000830200,0.307830322265625,7.438050270080566,5.938950061798096,0.13500000536441803
1750561026010435000,0.31743505859375,7.564950466156006,5.8909502029418945,0.4720500111579895
1750561026020039700,0.327039794921875,8.058000564575195,5.749950408935547,0.7620000243186951
1750561026029644500,0.33664453125,8.356950759887695,5.632950305938721,0.5800500512123108
1750561026039249200,0.346249267578125,8.854949951171875,5.6449503898620605,0.20400001108646393
1750561026048854000,0.35585400390625,8.982000350952148,5.769000053405762,-0.286050021648407
1750561026058459000,0.365458984375,8.869050025939941,5.8120503425598145,-0.5440500378608704
1750561026068063700,0.375063720703125,8.641950607299805,5.886000156402588,-0.5659500360488892
1750561026077668600,0.384668701171875,8.224950790405273,5.9320502281188965,-0.3379500210285187
1750561026087273200,0.394273193359375,7.821000576019287,5.908050060272217,-0.06795000284910202
1750561026096878000,0.403878173828125,7.504950523376465,5.8030500411987305,0.15105000138282776
1750561026106483000,0.41348291015625,7.414050579071045,5.794950485229492,0.20205001533031464
1750561026116087600,0.423087646484375,7.3470001220703125,5.886000156402588,0.19905000925064087
1750561026125692700,0.432692626953125,7.464000225067139,5.901000499725342,0.12000000476837158
1750561026135297300,0.44229736328125,7.726950168609619,5.968050479888916,-0.031950000673532486
1750561026144902100,0.451902099609375,7.938000202178955,6.010950088500977,-0.1279500126838684
1750561026154506800,0.4615068359375,7.938000202178955,6.004050254821777,-0.23295001685619354
1750561026164111600,0.471111572265625,7.960050582885742,6.055950164794922,-0.30705001950263977
1750561026173716500,0.480716552734375,8.058000564575195,6.0319504737854,-0.30705001950263977
1750561026183321300,0.4903212890625,8.131950378417969,5.91795015335083,-0.18495000898838043
1750561026192926000,0.499926025390625,7.999950408935547,5.806950092315674,-0.0799500048160553
1750561026202530800,0.50953076171875,7.735050201416016,5.716050148010254,-0.09405000507831573
1750561026212135700,0.5191357421875,7.471050262451172,5.82705020904541,-0.27900001406669617
1750561026221740500,0.528740478515625,7.25100040435791,5.994000434875488,-0.286050021648407
1750561026231345200,0.53834521484375,7.099950313568115,6.064050197601318,-0.11295000463724136
1750561026240950000,0.547949951171875,7.081050395965576,6.013050079345703,-0.027000000700354576
1750561026250554600,0.5575546875,7.272000312805176,6.009000301361084,-0.12300000339746475
1750561026260159500,0.567159423828125,7.6459503173828125,6.049050331115723,-0.325950026512146
1750561026269764400,0.576764404296875,8.005050659179688,5.9730000495910645,-0.6019500494003296
1750561026279369000,0.586368896484375,8.224950790405273,6.013050079345703,-0.8460000157356262
1750561026288974000,0.59597412109375,8.239950180053711,6.193050384521484,-0.7960500121116638
1750561026298578700,0.60557861328125,7.870950222015381,6.183000087738037,-0.453000009059906
1750561026308183600,0.61518359375,7.561950206756592,6.091950416564941,-0.07500000298023224
1750561026317788200,0.6247880859375,7.4569501876831055,6.123000144958496,0.08895000070333481
1750561026327393000,0.63439306640625,7.462050437927246,6.123000144958496,0.1270500123500824
1750561026336997600,0.64399755859375,7.627050399780273,6.123000144958496,-0.06795000284910202
1750561026346602500,0.6536025390625,7.73205041885376,6.145050525665283,-0.3910500109195709
1750561026356207400,0.663207275390625,7.837050437927246,6.118950366973877,-0.5350500345230103
1750561026365812000,0.67281201171875,7.789950370788574,6.094950199127197,-0.42195001244544983
1750561026375417000,0.6824169921875,7.588050365447998,6.115950107574463,-0.2639999985694885
1750561026385021700,0.692021728515625,7.192950248718262,6.097050189971924,-0.04200000315904617
1750561026394626600,0.70162646484375,6.904050350189209,6.123000144958496,0.06495000422000885
1750561026404231200,0.711231201171875,6.942000389099121,6.178950309753418,0.05100000277161598
1750561026413836000,0.7208359375,7.198050498962402,6.1810503005981445,0.031950000673532486
1750561026423441000,0.73044091796875,7.513950347900391,6.145050525665283,-0.0990000069141388
1750561026433045800,0.740045654296875,7.725000381469727,6.100050449371338,-0.0970500037074089
1750561026442650600,0.749650634765625,7.7659502029418945,6.115950107574463,-0.11805000901222229
1750561026452255200,0.759255126953125,7.609950542449951,6.145050525665283,-0.1279500126838684
1750561026461860000,0.768860107421875,7.444950580596924,6.205050468444824,-0.15900000929832458
1750561026471465000,0.77846484375,7.318050384521484,6.198000431060791,-0.14205001294612885
1750561026481069600,0.788069580078125,7.504950523376465,6.198000431060791,-0.18300001323223114
1750561026490674400,0.79767431640625,7.869000434875488,6.145050525665283,-0.19005000591278076
1750561026500279300,0.807279296875,8.04104995727539,5.997000217437744,-0.20205001533031464
1750561026509884200,0.81688427734375,7.888050556182861,6.006000518798828,0.028950002044439316
1750561026519488800,0.82648876953125,7.6459503173828125,6.135000228881836,0.17295001447200775
1750561026529093600,0.83609375,7.561950206756592,6.235950469970703,0.1870500147342682
1750561026538698500,0.845698486328125,7.782000541687012,6.247950077056885,0.09600000083446503
1750561026548303000,0.85530322265625,8.143950462341309,6.21405029296875,-0.11595000326633453
1750561026557908000,0.864907958984375,8.434050559997559,6.150000095367432,-0.23295001685619354
1750561026567512800,0.874512939453125,8.443050384521484,6.109050273895264,-0.1879500150680542
1750561026577117700,0.88411767578125,8.151000022888184,6.082950115203857,-0.15900000929832458
1750561026586722300,0.893722412109375,7.738950252532959,6.076050281524658,-0.14205001294612885
1750561026596327200,0.9033271484375,7.444950580596924,6.139950275421143,-0.11100000888109207
1750561026605931800,0.912931884765625,7.557000160217285,6.1620001792907715,-0.10905000567436218
1750561026615536600,0.92253662109375,7.846950531005859,6.028050422668457,-0.04905000329017639
1750561026625141500,0.9321416015625,8.08395004272461,6.0420002937316895,-0.06495000422000885
1750561026634746400,0.941746337890625,8.05305004119873,6.078000068664551,-0.06795000284910202
1750561026644351200,0.951351318359375,7.684050559997559,6.090000152587891,-0.0580500029027462
1750561026653956000,0.9609560546875,7.222050189971924,6.058950424194336,-0.0990000069141388
1750561026663560700,0.970560791015625,6.837000370025635,6.078000068664551,-0.13305000960826874
1750561026673165600,0.98016552734375,6.660000324249268,6.118950366973877,-0.2350500077009201
1750561026682770400,0.9897705078125,6.808050155639648,6.090000152587891,-0.25200000405311584
1750561026692375300,0.999375244140625,7.081050395965576,6.055950164794922,-0.21900001168251038
1750561026701980000,1.00897998046875,7.332000255584717,5.985000133514404,-0.15195000171661377
1750561026711584800,1.018584716796875,7.507050514221191,5.965050220489502,-0.07005000114440918
1750561026721189400,1.028189453125,7.501950263977051,6.009000301361084,0.11805000901222229
1750561026730794200,1.037794189453125,7.492950439453125,6.028050422668457,0.23295001685619354
1750561026740398800,1.04739892578125,7.4760003089904785,6.055950164794922,0.3360000252723694
1750561026750003700,1.057003662109375,7.636050224304199,6.079950332641602,0.2880000174045563
1750561026759608800,1.06660888671875,7.864050388336182,6.085050106048584,0.11505000293254852
1750561026769213400,1.07621337890625,8.107950210571289,6.055950164794922,0.07695000618696213
1750561026778818300,1.085818359375,8.206049919128418,6.067950248718262,0.00795000046491623
1750561026788423200,1.095423095703125,8.173049926757812,6.055950164794922,0.0799500048160553
1750561026798027800,1.10502783203125,8.082000732421875,6.067950248718262,0.18495000898838043
1750561026807632600,1.114632568359375,8.038949966430664,6.0319504737854,0.16095000505447388
1750561026817237500,1.124237548828125,7.990950584411621,5.977050304412842,0.0799500048160553
1750561026826842400,1.13384228515625,7.939950466156006,5.994000434875488,-0.003000000026077032
1750561026836447000,1.143447021484375,7.888050556182861,6.006000518798828,-0.09405000507831573
1750561026846051800,1.1530517578125,7.890000343322754,6.070950508117676,-0.1680000126361847
1750561026855656400,1.162656494140625,7.833000183105469,6.088050365447998,-0.2350500077009201
1750561026865261300,1.17226123046875,7.741950511932373,6.100050449371338,-0.22605000436306
1750561026874866200,1.1818662109375,7.636050224304199,6.106950283050537,-0.15900000929832458
1750561026884471000,1.191470947265625,7.633950233459473,6.1020002365112305,-0.06795000284910202
1750561026894076000,1.201075927734375,7.737000465393066,6.088050365447998,0.08895000070333481
1750561026903680800,1.2106806640625,7.849050521850586,6.0610504150390625,0.2179500162601471
1750561026913285400,1.220285400390625,7.942950248718262,6.067950248718262,0.19005000591278076
1750561026922890000,1.229889892578125,7.998000144958496,6.067950248718262,0.027000000700354576
1750561026932494800,1.239494873046875,7.8160505294799805,6.054000377655029,-0.05400000140070915
1750561026942099700,1.249099609375,7.579050540924072,6.066000461578369,0.015000000596046448
1750561026951704600,1.25870458984375,7.4760003089904785,6.079950332641602,0.031950000673532486
1750561026961309200,1.26830908203125,7.576950550079346,6.094950199127197,0.06300000101327896
1750561026970914000,1.2779140625,7.833000183105469,6.0420002937316895,0.1469999998807907
1750561026980519000,1.287518798828125,8.006999969482422,5.934000492095947,0.22800001502037048
1750561026990123800,1.297123779296875,8.134050369262695,5.910000324249268,0.18495000898838043
1750561026999728400,1.306728271484375,8.12505054473877,5.926950454711914,0.06000000238418579
1750561027009333200,1.316333251953125,8.055000305175781,5.925000190734863,-0.031950000673532486
1750561027018938000,1.325938232421875,7.939950466156006,5.886000156402588,-0.006000000052154064
1750561027028542700,1.335542724609375,7.735050201416016,5.842950344085693,0.14205001294612885
1750561027038147800,1.34514794921875,7.63200044631958,5.884050369262695,0.2689500153064728
1750561027047752400,1.35475244140625,7.593000411987305,5.937000274658203,0.28995001316070557
1750561027057357300,1.364357421875,7.656000137329102,5.9920501708984375,0.30000001192092896
1750561027066962000,1.3739619140625,7.675050258636475,5.985000133514404,0.22800001502037048
1750561027076566800,1.38356689453125,7.656000137329102,5.9509501457214355,0.16095000505447388
1750561027086172000,1.393171875,7.560000419616699,6.010950088500977,0.07500000298023224
1750561027095776500,1.402776611328125,7.5960001945495605,6.021000385284424,0.022050000727176666
1750561027105381000,1.412381103515625,7.681950569152832,5.989050388336182,0.025050001218914986
1750561027114986000,1.421986083984375,7.806000232696533,5.92995023727417,0.19905000925064087
1750561027124590800,1.4315908203125,7.942950248718262,5.881950378417969,0.2639999985694885
1750561027134195700,1.44119580078125,8.070000648498535,5.910000324249268,0.208950012922287
1750561027143800300,1.45080029296875,8.086950302124023,5.898000240325928,0.17295001447200775
1750561027153405200,1.4604052734375,7.939950466156006,5.878950119018555,0.15900000929832458
1750561027163010000,1.470010009765625,7.809000492095947,5.920050144195557,0.09600000083446503
1750561027172615000,1.479614990234375,7.549950122833252,5.968050479888916,0.022050000727176666
1750561027182219500,1.489219482421875,7.378050327301025,6.013050079345703,0.0010500000789761543
1750561027191824400,1.498824462890625,7.303950309753418,6.037050247192383,0.07005000114440918
1750561027201429000,1.508428955078125,7.452000141143799,6.01800012588501,0.1469999998807907
1750561027211033900,1.518033935546875,7.786950588226318,6.013050079345703,0.1660500019788742
1750561027220638700,1.527638671875,8.046000480651855,5.949000358581543,0.22305001318454742
1750561027230243300,1.537243408203125,8.256000518798828,5.90595006942749,0.18000000715255737
1750561027239848400,1.546848388671875,8.343000411987305,5.961000442504883,0.0990000069141388
1750561027249453000,1.556453125,8.163000106811523,5.9920501708984375,0.05595000088214874
1750561027259058000,1.566057861328125,7.888050556182861,6.006000518798828,0.04605000093579292
1750561027268662500,1.57566259765625,7.64400053024292,6.076050281524658,0.07500000298023224
1750561027278267400,1.585267333984375,7.477950572967529,6.055950164794922,0.15105000138282776
1750561027287872300,1.594872314453125,7.411050319671631,6.078000068664551,0.2779500186443329
1750561027297476900,1.604476806640625,7.588050365447998,6.043950080871582,0.1680000126361847
1750561027307082000,1.61408203125,7.845000267028809,6.010950088500977,0.09405000507831573
1750561027316686600,1.6236865234375,7.972050189971924,5.902950286865234,0.04605000093579292
1750561027326291500,1.63329150390625,8.059950828552246,5.877000331878662,-0.031950000673532486
1750561027335896000,1.64289599609375,8.005050659179688,5.886000156402588,-0.0990000069141388
1750561027345501000,1.6525009765625,7.897050380706787,5.854950428009033,0.027000000700354576
1750561027355105500,1.66210546875,7.8259501457214355,5.83905029296875,0.09600000083446503
1750561027364710400,1.67171044921875,7.8949503898620605,5.8720502853393555,0.08895000070333481
1750561027374315500,1.6813154296875,8.02695083618164,5.878950119018555,0.031950000673532486
1750561027383920000,1.690920166015625,7.990950584411621,5.821950435638428,0.05295000225305557
1750561027393525000,1.70052490234375,7.939950466156006,5.793000221252441,0.025050001218914986
1750561027403129600,1.710129638671875,7.8349504470825195,5.853000164031982,-0.08205000311136246
1750561027412734500,1.719734375,7.7440505027771,5.824050426483154,-0.0970500037074089
1750561027422339300,1.72933935546875,7.660050392150879,5.773950099945068,-0.034050002694129944
1750561027431944000,1.73894384765625,7.615050315856934,5.829000473022461,0.07695000618696213
1750561027441548800,1.748548828125,7.6459503173828125,5.910000324249268,0.13905000686645508
1750561027451153700,1.758153564453125,7.854000568389893,5.91795015335083,0.05295000225305557
1750561027460758500,1.767758544921875,8.08905029296875,5.901000499725342,-0.06495000422000885
1750561027470363100,1.777363037109375,8.239950180053711,5.865000247955322,-0.22095000743865967
1750561027479968300,1.78696826171875,8.187000274658203,5.841000080108643,-0.22800001502037048
1750561027489572900,1.79657275390625,7.942950248718262,5.821950435638428,-0.14400000870227814
1750561027499177700,1.806177734375,7.52400016784668,5.842950344085693,-0.015000000596046448
1750561027508782600,1.815782470703125,7.201050281524658,5.901000499725342,0.10605000704526901
1750561027518387200,1.82538720703125,7.216950416564941,6.025050163269043,0.16095000505447388
1750561027527992000,1.834991943359375,7.53795051574707,6.028050422668457,0.07200000435113907
1750561027537597000,1.844596923828125,7.993050575256348,5.982000350952148,-0.006000000052154064
1750561027547201500,1.854201416015625,8.380949974060059,5.934000492095947,-0.12300000339746475
1750561027556806400,1.863806396484375,8.455050468444824,5.8909502029418945,-0.12300000339746475
1750561027566411300,1.873411376953125,8.187000274658203,5.869950294494629,0.0010500000789761543
1750561027576016100,1.88301611328125,7.881000518798828,5.8720502853393555,0.19200000166893005
1750561027585620700,1.892620849609375,7.770000457763672,5.884050369262695,0.24495001137256622
1750561027595225600,1.9022255859375,7.801950454711914,5.869950294494629,0.2350500077009201
1750561027604830200,1.911830322265625,7.993050575256348,5.841000080108643,0.15105000138282776
1750561027614435000,1.92143505859375,8.031000137329102,5.806950092315674,0.043950002640485764
1750561027624040000,1.9310400390625,7.951950550079346,5.785950183868408,-0.039000000804662704
1750561027633644800,1.940644775390625,7.82295036315918,5.848050117492676,-0.13500000536441803
1750561027643249700,1.950249755859375,7.693950176239014,5.848050117492676,-0.11100000888109207
1750561027652854300,1.959854248046875,7.656000137329102,5.833950042724609,-0.00795000046491623
1750561027662459100,1.969459228515625,7.768050193786621,5.791050434112549,0.1469999998807907
1750561027672064000,1.97906396484375,7.939950466156006,5.824050426483154,0.12300000339746475
1750561027681668600,1.988668701171875,8.163000106811523,5.853000164031982,-0.013050000183284283
1750561027691273700,1.998273681640625,8.247000694274902,5.881950378417969,-0.07500000298023224
1750561027700878300,2.00787841796875,8.105999946594238,5.853000164031982,-0.04605000093579292
1750561027710483200,2.017483154296875,7.858950138092041,5.85105037689209,-0.027000000700354576
1750561027720087800,2.027087890625,7.579050540924072,5.896050453186035,0.043950002640485764
1750561027729692700,2.036692626953125,7.3969502449035645,5.866950511932373,0.1660500019788742
1750561027739297500,2.046297607421875,7.383000373840332,5.893950462341309,0.24000000953674316
1750561027748902400,2.05590234375,7.552950382232666,5.920050144195557,0.2179500162601471
1750561027758507300,2.06550732421875,7.8160505294799805,5.965050220489502,0.12000000476837158
1750561027768111900,2.07511181640625,8.034000396728516,5.908050060272217,0.010050000622868538
1750561027777716700,2.084716796875,8.029050827026367,5.83905029296875,-0.08505000174045563
1750561027787321300,2.0943212890625,7.933050155639648,5.862000465393066,-0.15405000746250153
1750561027796926200,2.10392626953125,7.837050437927246,5.896050453186035,-0.14400000870227814
1750561027806530800,2.11353076171875,7.785000324249268,5.860050201416016,0.039000000804662704
1750561027816136000,2.123135986328125,7.785000324249268,5.845950126647949,0.15405000746250153
1750561027825740800,2.13274072265625,7.81095027923584,5.896050453186035,0.17505000531673431
1750561027835345400,2.142345458984375,7.777950286865234,5.893950462341309,0.20205001533031464
1750561027844950300,2.1519501953125,7.69605016708374,5.8720502853393555,0.24000000953674316
1750561027854555100,2.16155517578125,7.690950393676758,5.877000331878662,0.17100000381469727
1750561027864159700,2.17115966796875,7.780050277709961,5.881950378417969,0.028950002044439316
1750561027873764600,2.1807646484375,7.90500020980835,5.854950428009033,-0.08205000311136246
1750561027883369500,2.190369384765625,8.058000564575195,5.782950401306152,-0.15405000746250153
1750561027892974300,2.199974365234375,8.07705020904541,5.74500036239624,-0.12495000660419464
1750561027902579200,2.2095791015625,8.04104995727539,5.781000137329102,-0.003000000026077032
1750561027912183800,2.219183837890625,7.978950500488281,5.788050174713135,0.11505000293254852
1750561027921788400,2.228788330078125,7.885050296783447,5.797950267791748,0.1680000126361847
1750561027931393300,2.238393310546875,7.914000511169434,5.772000312805176,0.15105000138282776
1750561027940998100,2.247998046875,7.9860005378723145,5.767050266265869,0.019950000569224358
1750561027950603000,2.25760302734375,7.966950416564941,5.772000312805176,0.004950000438839197
1750561027960208000,2.267207763671875,7.849050521850586,5.752050399780273,-0.09405000507831573
1750561027969812700,2.276812744140625,7.833000183105469,5.794950485229492,-0.1489500105381012
1750561027979417300,2.286417236328125,7.782000541687012,5.848050117492676,-0.1279500126838684
1750561027989022200,2.296022216796875,7.804050445556641,5.878950119018555,-0.05100000277161598
1750561027998626800,2.305626708984375,7.927950382232666,5.862000465393066,-0.030000001192092896
1750561028008231700,2.315231689453125,8.10300064086914,5.860050201416016,-0.06300000101327896
1750561028017836500,2.32483642578125,8.233050346374512,5.785950183868408,-0.09195000678300858
1750561028027441400,2.33444140625,8.233050346374512,5.781000137329102,-0.11295000463724136
1750561028037046000,2.3440458984375,8.038949966430664,5.760000228881836,-0.10095000267028809
1750561028046651000,2.35365087890625,7.840050220489502,5.785950183868408,-0.003000000026077032
1750561028056255500,2.36325537109375,7.699050426483154,5.800050258636475,0.039000000804662704
1750561028065860400,2.3728603515625,7.663050174713135,5.809950351715088,0.010050000622868538
1750561028075465200,2.38246533203125,7.777950286865234,5.878950119018555,-0.06495000422000885
1750561028085070000,2.392070068359375,7.924050331115723,5.833950042724609,-0.07005000114440918
1750561028094675000,2.401675048828125,8.04104995727539,5.8030500411987305,0.025050001218914986
1750561028104279800,2.41127978515625,8.08395004272461,5.788050174713135,0.039000000804662704
1750561028113884400,2.420884521484375,8.034000396728516,5.82705020904541,0.013050000183284283
1750561028123489300,2.4304892578125,7.924050331115723,5.85105037689209,-0.0010500000789761543
1750561028133094000,2.440093994140625,7.777950286865234,5.842950344085693,0.0010500000789761543
1750561028142699000,2.449698974609375,7.699050426483154,5.854950428009033,-0.04605000093579292
1750561028152303600,2.4593037109375,7.617000579833984,5.874000072479248,-0.027000000700354576
1750561028161908500,2.468908447265625,7.609950542449951,5.865000247955322,-0.010050000622868538
1750561028171513000,2.47851318359375,7.6650004386901855,5.862000465393066,0.08205000311136246
1750561028181118000,2.488117919921875,7.735050201416016,5.848050117492676,0.1469999998807907
1750561028190722800,2.497722900390625,7.858950138092041,5.845950126647949,0.19200000166893005
1750561028200327400,2.507327392578125,7.945050239562988,5.824050426483154,0.19200000166893005
1750561028209932300,2.516932373046875,7.9170002937316895,5.805000305175781,0.11505000293254852
1750561028219537200,2.526537109375,7.833000183105469,5.8120503425598145,0.027000000700354576
1750561028229142000,2.53614208984375,7.785000324249268,5.791050434112549,-0.0580500029027462
1750561028238747000,2.545746826171875,7.758000373840332,5.773950099945068,-0.06105000153183937
1750561028248351500,2.5553515625,7.866000175476074,5.788050174713135,-0.04200000315904617
1750561028257956400,2.564956298828125,7.912050247192383,5.740050315856934,0.10095000267028809
1750561028267561000,2.57456103515625,7.9860005378723145,5.728050231933594,0.0799500048160553
1750561028277165800,2.584165771484375,8.07705020904541,5.752050399780273,-0.031950000673532486
1750561028286770700,2.593770751953125,8.09595012664795,5.731050491333008,-0.10605000704526901
1750561028296375600,2.60337548828125,8.098050117492676,5.731050491333008,-0.17295001447200775
1750561028305980200,2.612980224609375,8.062950134277344,5.683050155639648,-0.1660500019788742
1750561028315585000,2.6225849609375,7.945050239562988,5.700000286102295,-0.07304999977350235
1750561028325190000,2.63218994140625,7.849050521850586,5.724000453948975,-0.04200000315904617
1750561028334794500,2.64179443359375,7.69605016708374,5.713950157165527,0.031950000673532486
1750561028344399600,2.651399658203125,7.615050315856934,5.728050231933594,0.17505000531673431
1750561028354004500,2.66100439453125,7.624050140380859,5.824050426483154,0.15405000746250153
1750561028363609000,2.670609130859375,7.726950168609619,5.779050350189209,0.06795000284910202
1750561028373214000,2.6802138671875,7.926000595092773,5.776050090789795,-0.10605000704526901
1750561028382818600,2.689818603515625,8.107950210571289,5.788050174713135,-0.24300001561641693
1750561028392423400,2.69942333984375,8.368950843811035,5.782950401306152,-0.24495001137256622
1750561028402028000,2.709028076171875,8.539050102233887,5.755050182342529,-0.10095000267028809
1750561028411633000,2.7186328125,8.575050354003906,5.725950241088867,0.0799500048160553
1750561028421237800,2.72823779296875,8.467050552368164,5.731050491333008,0.2850000262260437
1750561028430842600,2.737842529296875,8.194050788879395,5.740050315856934,0.325950026512146
1750561028440447500,2.747447509765625,7.921050548553467,5.794950485229492,0.3169500231742859
1750561028450052000,2.757052001953125,7.729950428009033,5.857950210571289,0.2179500162601471
1750561028459657000,2.766656982421875,7.729950428009033,5.866950511932373,0.13695000112056732
1750561028469261600,2.776261474609375,7.927950382232666,5.8909502029418945,0.07005000114440918
1750561028478866400,2.785866455078125,8.161050796508789,5.853000164031982,0.07005000114440918
1750561028488471600,2.795471435546875,8.331000328063965,5.841000080108643,0.06000000238418579
1750561028498076400,2.805076416015625,8.380949974060059,5.779050350189209,0.015000000596046448
1750561028507681000,2.814680908203125,8.32395076751709,5.700000286102295,0.09600000083446503
1750561028517285600,2.82428564453125,8.070000648498535,5.664000034332275,0.20205001533031464
1750561028526890500,2.833890380859375,7.777950286865234,5.695050239562988,0.24195000529289246
1750561028536495000,2.8434951171875,7.6080002784729,5.724000453948975,0.19200000166893005
1750561028546100000,2.853099853515625,7.5960001945495605,5.7330002784729,0.08205000311136246
1750561028555705000,2.862705078125,7.70805025100708,5.748000144958496,-0.07500000298023224
1750561028565309700,2.872309814453125,7.9069504737854,5.713950157165527,-0.2160000056028366
1750561028574914600,2.88191455078125,8.04104995727539,5.716050148010254,-0.21195000410079956
1750561028584519400,2.89151953125,8.185050010681152,5.668950080871582,-0.0970500037074089
1750561028594124000,2.9011240234375,8.227950096130371,5.63700008392334,0.019950000569224358
1750561028603729000,2.91072900390625,8.230050086975098,5.611050128936768,0.043950002640485764
1750561028613333800,2.920333740234375,8.138999938964844,5.628000259399414,-0.013050000183284283
1750561028622938600,2.929938720703125,7.954950332641602,5.632950305938721,0.019950000569224358
1750561028632543500,2.93954345703125,7.73205041885376,5.652000427246094,0.09405000507831573
1750561028642148000,2.949148193359375,7.564950466156006,5.7019500732421875,0.1489500105381012
1750561028651752700,2.958752685546875,7.543050289154053,5.724000453948975,0.16095000505447388
1750561028661357800,2.96835791015625,7.713000297546387,5.719050407409668,0.036000002175569534
1750561028670962400,2.97796240234375,8.04104995727539,5.7210001945495605,-0.08505000174045563
1750561028680567300,2.9875673828125,8.278050422668457,5.6569504737854,-0.1489500105381012
1750561028690172200,2.997172119140625,8.331000328063965,5.640000343322754,-0.06795000284910202
1750561028699776800,3.00677685546875,8.215950012207031,5.6569504737854,0.07200000435113907
1750561028709381600,3.016381591796875,7.90500020980835,5.635050296783447,0.17100000381469727
1750561028718986500,3.025986572265625,7.63200044631958,5.677950382232666,0.24195000529289246
1750561028728591400,3.03559130859375,7.500000476837158,5.692950248718262,0.1870500147342682
1750561028738196200,3.0451962890625,7.462050437927246,5.685000419616699,0.11295000463724136
1750561028747800800,3.05480078125,7.567050457000732,5.755050182342529,0.07695000618696213
1750561028757405700,3.06440576171875,7.789950370788574,5.75700044631958,0.06300000101327896
1750561028767010300,3.07401025390625,7.9860005378723145,5.7210001945495605,0.034050002694129944
1750561028776615200,3.083615234375,8.155950546264648,5.688000202178955,-0.05400000140070915
1750561028786220000,3.093219970703125,8.082000732421875,5.712000370025635,-0.08895000070333481
1750561028795825000,3.102824951171875,7.8949503898620605,5.692950248718262,-0.034050002694129944
1750561028805429800,3.1124296875,7.693950176239014,5.671050071716309,0.08205000311136246
1750561028815034400,3.122034423828125,7.639050483703613,5.752050399780273,0.12000000476837158
1750561028824639200,3.13163916015625,7.678950309753418,5.776050090789795,0.1680000126361847
1750561028834244000,3.141244140625,7.888050556182861,5.779050350189209,0.17505000531673431
1750561028843848700,3.1508486328125,8.155950546264648,5.772000312805176,0.07500000298023224
1750561028853453300,3.160453369140625,8.292000770568848,5.761950492858887,-0.08895000070333481
1750561028863058400,3.170058349609375,8.151000022888184,5.716050148010254,-0.14400000870227814
1750561028872663300,3.179663330078125,7.9170002937316895,5.689950466156006,-0.06795000284910202
1750561028882268000,3.189267822265625,7.750950336456299,5.716050148010254,0.027000000700354576
1750561028891872800,3.198872802734375,7.672050476074219,5.748000144958496,0.14400000870227814
1750561028901477400,3.208477294921875,7.690950393676758,5.7430500984191895,0.2179500162601471
1750561028911082200,3.218082275390625,7.900050163269043,5.761950492858887,0.1489500105381012
1750561028920687000,3.22768701171875,8.248950004577637,5.748000144958496,-0.043950002640485764
1750561028930292000,3.2372919921875,8.506050109863281,5.740050315856934,-0.12105000764131546
1750561028939896800,3.246896728515625,8.443050384521484,5.653950214385986,-0.15900000929832458
1750561028949501700,3.256501708984375,8.151000022888184,5.700000286102295,-0.11100000888109207
1750561028959106300,3.266106201171875,7.858950138092041,5.713950157165527,-0.031950000673532486
1750561028968711200,3.275711181640625,7.73205041885376,5.688000202178955,0.09600000083446503
1750561028978315800,3.285315673828125,7.881000518798828,5.685000419616699,0.18000000715255737
1750561028987920600,3.294920654296875,8.170050621032715,5.616000175476074,0.1680000126361847
1750561028997525500,3.304525390625,8.416950225830078,5.556000232696533,0.13199999928474426
1750561029007130000,3.314130126953125,8.482049942016602,5.488950252532959,0.06300000101327896
1750561029016735000,3.32373486328125,8.414999961853027,5.48205041885376,-0.05100000277161598
1750561029026339800,3.33333984375,8.211000442504883,5.520000457763672,-0.08700000494718552
1750561029035944700,3.34294482421875,8.031000137329102,5.568000316619873,-0.06795000284910202
1750561029045549300,3.35254931640625,7.945050239562988,5.551050186157227,0.010050000622868538
1750561029055154200,3.362154296875,7.960050582885742,5.56095027923584,0.06000000238418579
1750561029064759000,3.371759033203125,7.9860005378723145,5.608950138092041,0.039000000804662704
1750561029074364000,3.381364013671875,7.957050323486328,5.617950439453125,0.04800000041723251
1750561029083968800,3.39096875,7.794000148773193,5.604000091552734,-0.010050000622868538
1750561029093573400,3.400573486328125,7.770000457763672,5.668950080871582,-0.1399500072002411
1750561029103178000,3.410177978515625,7.8760504722595215,5.664000034332275,-0.1469999998807907
1750561029112783000,3.419783203125,8.10105037689209,5.611050128936768,-0.027000000700354576
1750561029122388000,3.429387939453125,8.355000495910645,5.5489501953125,0.004950000438839197
1750561029131992600,3.43899267578125,8.544000625610352,5.503050327301025,0.027000000700354576
1750561029141597400,3.448597412109375,8.455050468444824,5.4720001220703125,0.06495000422000885
1750561029151202300,3.458202392578125,8.203949928283691,5.52495002746582,0.010050000622868538
1750561029160807000,3.467806884765625,7.888050556182861,5.578050136566162,-0.030000001192092896
1750561029170411800,3.477411865234375,7.6080002784729,5.697000503540039,-0.06105000153183937
1750561029180016400,3.487016357421875,7.492950439453125,5.7210001945495605,-0.05595000088214874
1750561029189621500,3.49662158203125,7.552950382232666,5.725950241088867,-0.00795000046491623
1750561029199226000,3.50622607421875,7.725000381469727,5.719050407409668,0.09600000083446503
1750561029208831000,3.5158310546875,8.038949966430664,5.719050407409668,0.06495000422000885
1750561029218435600,3.525435546875,8.34000015258789,5.683050155639648,-0.010050000622868538
1750561029228040400,3.53504052734375,8.42400074005127,5.5849504470825195,-0.09195000678300858
1750561029237645300,3.544645263671875,8.268000602722168,5.6449503898620605,-0.12300000339746475
1750561029247250000,3.55425,7.951950550079346,5.700000286102295,-0.10395000129938126
1750561029256854800,3.563854736328125,7.735050201416016,5.7019500732421875,0.016950000077486038
1750561029266459600,3.573459716796875,7.600050449371338,5.7019500732421875,0.12300000339746475
1750561029276064300,3.583064208984375,7.72005033493042,5.689950466156006,0.17505000531673431
1750561029285669000,3.592669189453125,7.90500020980835,5.64900016784668,0.21105000376701355
1750561029295274000,3.60227392578125,8.170050621032715,5.629950046539307,0.0990000069141388
1750561029304878800,3.61187890625,8.38800048828125,5.587050437927246,0.040950000286102295
1750561029314483700,3.621483642578125,8.398050308227539,5.5320000648498535,-0.07005000114440918
1750561029324088300,3.63108837890625,8.166000366210938,5.530050277709961,-0.027000000700354576
1750561029333693200,3.640693115234375,7.900050163269043,5.556000232696533,0.10605000704526901
1750561029343297800,3.6502978515625,7.689000129699707,5.527050495147705,0.13500000536441803
1750561029352903000,3.65990283203125,7.621950149536133,5.5489501953125,0.14400000870227814
1750561029362507500,3.669507568359375,7.749000549316406,5.563050270080566,0.09405000507831573
1750561029372112400,3.6791123046875,8.034000396728516,5.580000400543213,0.039000000804662704
1750561029381717000,3.688717041015625,8.32800006866455,5.575050354003906,-0.034050002694129944
1750561029391321900,3.69832177734375,8.509950637817383,5.527050495147705,-0.07304999977350235
1750561029400926700,3.7079267578125,8.569950103759766,5.500950336456299,-0.11595000326633453
1750561029410531300,3.71753125,8.416950225830078,5.518050193786621,-0.08700000494718552
1750561029420136400,3.727136474609375,8.134050369262695,5.542050361633301,0.022050000727176666
1750561029429741000,3.736740966796875,7.91895055770874,5.599050045013428,0.16095000505447388
1750561029439346000,3.746345947265625,7.921050548553467,5.632950305938721,0.15600000321865082
1750561029448950500,3.755950439453125,8.062950134277344,5.596950054168701,0.08895000070333481
1750561029458555400,3.765555419921875,8.175000190734863,5.602050304412842,0.040950000286102295
1750561029468160000,3.775159912109375,8.163000106811523,5.593950271606445,-0.030000001192092896
1750561029477765000,3.78476513671875,8.12700080871582,5.63700008392334,-0.12300000339746475
1750561029487369700,3.79436962890625,7.963950157165527,5.604000091552734,-0.12105000764131546
1750561029496974600,3.803974609375,7.873050212860107,5.617950439453125,0.019950000569224358
1750561029506579500,3.813579345703125,7.909050464630127,5.629950046539307,0.10095000267028809
1750561029516184000,3.82318408203125,8.107950210571289,5.673000335693359,0.1270500123500824
1750561029525789000,3.832788818359375,8.36400032043457,5.676000118255615,0.0799500048160553
1750561029535393500,3.8423935546875,8.455050468444824,5.611050128936768,0.06300000101327896
1750561029544998400,3.851998291015625,8.239950180053711,5.592000484466553,0.040950000286102295
1750561029554603500,3.861603515625,8.019000053405762,5.617950439453125,0.016950000077486038
1750561029564208400,3.87120849609375,7.842000484466553,5.5489501953125,0.14205001294612885
1750561029573813000,3.88081298828125,7.813950538635254,5.542050361633301,0.24000000953674316
1750561029583417900,3.89041796875,8.019000053405762,5.551050186157227,0.1969500035047531
1750561029593022500,3.9000224609375,8.236949920654297,5.479050159454346,0.11100000888109207
1750561029602627300,3.90962744140625,8.296950340270996,5.487000465393066,0.022050000727176666
1750561029612232400,3.919232421875,8.233050346374512,5.48205041885376,-0.18495000898838043
1750561029621836800,3.9288369140625,8.094000816345215,5.506050109863281,-0.2950500249862671
1750561029631441700,3.938441650390625,7.950000286102295,5.523000240325928,-0.36705002188682556
1750561029641046500,3.948046630859375,7.90500020980835,5.542050361633301,-0.2550000250339508
1750561029650651100,3.957651123046875,7.942950248718262,5.515050411224365,-0.0990000069141388
1750561029660256000,3.967256103515625,8.050950050354004,5.443050384521484,0.019950000569224358
1750561029669860900,3.97686083984375,8.259000778198242,5.463000297546387,0.05595000088214874
1750561029679465700,3.9864658203125,8.272950172424316,5.440950393676758,-0.04905000329017639
1750561029689070600,3.996070556640625,8.04104995727539,5.45805025100708,-0.14205001294612885
1750561029698675200,4.00567529296875,7.9069504737854,5.511000156402588,-0.21195000410079956
1750561029708280000,4.015280029296875,7.938000202178955,5.511000156402588,-0.19995000958442688
1750561029717885000,4.024885009765625,8.094000816345215,5.506050109863281,-0.18495000898838043
1750561029727489500,4.034489501953125,8.173049926757812,5.487000465393066,-0.15405000746250153
1750561029737094400,4.044094482421875,8.07705020904541,5.53695011138916,-0.08505000174045563
1750561029746699300,4.05369921875,7.914000511169434,5.580000400543213,0.08400000631809235
1750561029756304100,4.06330419921875,7.794000148773193,5.5849504470825195,0.18300001323223114
1750561029765908700,4.07290869140625,7.821000576019287,5.652000427246094,0.208950012922287
1750561029775513600,4.082513671875,7.990950584411621,5.713950157165527,0.11805000901222229
1750561029785118200,4.0921181640625,8.221050262451172,5.632950305938721,0.003000000026077032
1750561029794723000,4.10172314453125,8.434050559997559,5.52495002746582,-0.05100000277161598
1750561029804328000,4.111327880859375,8.304000854492188,5.523000240325928,0.003000000026077032
1750561029813932800,4.120932861328125,8.074950218200684,5.530050277709961,0.13199999928474426
1750561029823537700,4.13053759765625,7.789950370788574,5.563050270080566,0.0990000069141388
1750561029833142300,4.140142333984375,7.72005033493042,5.623050212860107,0.07005000114440918
1750561029842747100,4.1497470703125,7.890000343322754,5.647050380706787,-0.07695000618696213
1750561029852351700,4.159351806640625,8.199000358581543,5.587050437927246,-0.19200000166893005
1750561029861956600,4.16895654296875,8.422050476074219,5.488950252532959,-0.24495001137256622
1750561029871561500,4.1785615234375,8.268000602722168,5.463000297546387,-0.25005000829696655
1750561029881166300,4.188166259765625,7.963950157165527,5.4340500831604,-0.21900001168251038
1750561029890771200,4.197771240234375,7.794000148773193,5.4340500831604,-0.04905000329017639
1750561029900376000,4.2073759765625,7.912050247192383,5.427000045776367,0.0799500048160553
1750561029909980700,4.216980712890625,7.993050575256348,5.38800048828125,0.07500000298023224
1750561029919585300,4.226585205078125,8.017050743103027,5.424000263214111,-0.039000000804662704
1750561029929190100,4.236190185546875,8.07705020904541,5.551050186157227,-0.21405000984668732
1750561029938795300,4.245795166015625,8.110050201416016,5.512950420379639,-0.283050000667572
1750561029948399900,4.25539990234375,8.331000328063965,5.496000289916992,-0.3769500255584717
1750561029958004700,4.265004638671875,8.601000785827637,5.467050075531006,-0.4410000145435333
1750561029967609300,4.274609375,8.82194995880127,5.4150004386901855,-0.44895002245903015
1750561029977214200,4.284214111328125,8.938950538635254,5.353050231933594,-0.5080500245094299
1750561029986818800,4.29381884765625,8.728050231933594,5.296950340270996,-0.33105000853538513
1750561029996423700,4.303423583984375,8.482049942016602,5.293050289154053,-0.13500000536441803
1750561030006028500,4.313028564453125,8.185050010681152,5.404950141906738,-0.08895000070333481
1750561030015633400,4.32263330078125,8.34000015258789,5.424000263214111,0.1660500019788742
1750561030025238300,4.33223828125,8.817000389099121,5.590050220489502,0.2779500186443329
1750561030034843100,4.341843017578125,9.886950492858887,5.653950214385986,0.10095000267028809
1750561030044447700,4.35144775390625,11.280000686645508,5.782950401306152,-0.1489500105381012
1750561030054052600,4.361052490234375,12.607050895690918,5.628000259399414,0.010050000622868538
1750561030063657500,4.370657470703125,13.881000518798828,5.419950485229492,0.6139500141143799
1750561030073262000,4.380261962890625,14.464950561523438,5.281050205230713,1.4590500593185425
1750561030082867200,4.3898671875,14.202000617980957,5.07705020904541,2.662950038909912
1750561030092471800,4.399471923828125,13.456950187683105,4.840050220489502,4.5259504318237305
1750561030102076400,4.409076416015625,12.657000541687012,4.873950004577637,5.7709503173828125
1750561030111681300,4.418681396484375,11.029050827026367,5.239950180053711,4.759950160980225
1750561030121286100,4.4282861328125,9.790950775146484,5.57295036315918,2.7229502201080322
1750561030130890800,4.437890869140625,8.64900016784668,6.021000385284424,0.8479500412940979
1750561030140495600,4.44749560546875,7.483050346374512,6.270000457763672,-0.07695000618696213
1750561030150100500,4.4571005859375,6.517950534820557,6.382050514221191,0.36000001430511475
1750561030159705300,4.466705322265625,5.902950286865234,6.432000160217285,1.9609501361846924
1750561030169310000,4.47631005859375,4.914000034332275,6.286050319671631,3.2689502239227295
1750561030178914800,4.485914794921875,3.364950180053711,6.277050495147705,3.4770002365112305
1750561030188519700,4.495519775390625,1.5859500169754028,6.23805046081543,2.674950122833252
1750561030198124300,4.505124267578125,0.1279500126838684,6.313050270080566,1.4280000925064087
1750561030207729200,4.514729248046875,-0.8550000190734863,6.361050128936768,0.003000000026077032
1750561030217334000,4.524333984375,-1.8460501432418823,6.355950355529785,-1.2310500144958496
1750561030226939000,4.53393896484375,-2.7559502124786377,6.3409504890441895,-2.1750001907348633
1750561030236543500,4.54354345703125,-3.082050085067749,6.198000431060791,-1.91100013256073
1750561030246148400,4.5531484375,-1.9180500507354736,6.130950450897217,-0.10095000267028809
1750561030255753200,4.562753173828125,-0.04605000093579292,6.115950107574463,0.8650500178337097
1750561030265357800,4.57235791015625,1.7869501113891602,5.677950382232666,-0.45600003004074097
1750561030274962700,4.581962646484375,3.283950090408325,5.448000431060791,-2.983950138092041
1750561030284567600,4.591567626953125,3.68595027923584,5.383950233459473,-5.464950084686279
1750561030294172400,4.60117236328125,4.15500020980835,5.455050468444824,-7.198050498962402
1750561030303777300,4.61077734375,3.745950222015381,5.341050148010254,-7.504950523376465
1750561030313382000,4.6203818359375,3.513000249862671,5.044050216674805,-6.8680500984191895
1750561030322986800,4.62998681640625,3.436950206756592,4.768050193786621,-6.067950248718262
1750561030332591600,4.639591552734375,3.5059502124786377,4.1670002937316895,-5.347050189971924
1750561030342196500,4.649196533203125,3.556950092315674,3.5209500789642334,-5.017050266265869
1750561030351801000,4.658801025390625,4.324950218200684,3.06600022315979,-4.858950138092041
1750561030361406000,4.668406005859375,6.396000385284424,3.2220001220703125,-5.587050437927246
1750561030371010600,4.678010498046875,7.323000431060791,2.8030500411987305,-5.548050403594971
1750561030380615400,4.687615478515625,8.604000091552734,1.651050090789795,-4.557000160217285
1750561030390220300,4.69722021484375,9.789000511169434,1.2390000820159912,-4.006050109863281
1750561030399825200,4.7068251953125,10.720050811767578,1.2850500345230103,-3.894000291824341
1750561030409430000,4.716429931640625,11.259000778198242,1.5859500169754028,-4.222050189971924
1750561030419034600,4.72603466796875,11.67300033569336,1.807050108909607,-3.9300003051757812
1750561030428639500,4.735639404296875,11.806950569152832,2.0440499782562256,-3.343050241470337
1750561030438244400,4.745244384765625,11.6850004196167,2.1850500106811523,-2.338050127029419
1750561030447849000,4.754848876953125,12.526050567626953,2.2159500122070312,-1.075950026512146
1750561030457453600,4.76445361328125,14.809950828552246,2.596950054168701,-0.4410000145435333
1750561030467058700,4.77405859375,17.491050720214844,2.884050130844116,0.41700002551078796
1750561030476663600,4.78366357421875,20.149051666259766,2.965050220489502,1.2430500984191895
1750561030486268200,4.79326806640625,21.030000686645508,2.9200501441955566,1.1710500717163086
1750561030495873000,4.802873046875,20.178001403808594,2.4529500007629395,2.5980000495910645
1750561030505477600,4.8124775390625,17.824050903320312,1.8859500885009766,4.411050319671631
1750561030515082500,4.82208251953125,14.625000953674316,1.828050136566162,5.236950397491455
1750561030524687400,4.831687255859375,11.671051025390625,2.1750001907348633,6.127950191497803
1750561030534292200,4.841292236328125,9.877050399780273,2.764050245285034,6.421950340270996
1750561030543897000,4.85089697265625,9.595050811767578,3.444000244140625,6.127950191497803
1750561030553501700,4.860501708984375,10.138050079345703,4.006950378417969,5.25600004196167
1750561030563106600,4.8701064453125,10.830000877380371,4.387950420379639,3.82200026512146
1750561030572711400,4.87971142578125,11.106000900268555,4.660950183868408,2.388000011444092
1750561030582316000,4.88931591796875,10.228950500488281,4.759050369262695,1.645050048828125
1750561030591920600,4.898920654296875,8.527050018310547,4.486050128936768,1.9999500513076782
1750561030601525500,4.908525390625,6.904050350189209,4.261050224304199,3.003000259399414
1750561030611130400,4.91813037109375,5.817000389099121,4.299000263214111,3.573000192642212
1750561030620735200,4.9277353515625,5.659050464630127,4.492950439453125,3.013050079345703
1750561030630340000,4.937340087890625,6.235950469970703,4.692000389099121,1.9399501085281372
1750561030639945000,4.946945068359375,6.7699503898620605,4.534049987792969,0.8940000534057617
1750561030649549600,4.956549560546875,7.5450005531311035,4.522050380706787,0.14400000870227814
1750561030659154200,4.966154296875,7.426050186157227,4.773000240325928,-0.3460500240325928
1750561030668759300,4.97575927734375,6.5370001792907715,4.723050117492676,-0.2569500207901001
1750561030678364200,4.9853642578125,5.5320000648498535,4.668000221252441,0.0799500048160553
1750561030687968800,4.99496875,4.806000232696533,4.764000415802002,0.13005000352859497
1750561030697573600,5.00457373046875,4.912050247192383,4.756050109863281,-0.034050002694129944
1750561030707178200,5.01417822265625,5.308950424194336,4.675050258636475,-0.3340500295162201
1750561030716783000,5.023783203125,5.806950092315674,4.600950241088867,-0.5490000247955322
1750561030726387700,5.0333876953125,6.420000076293945,4.594050407409668,-0.583050012588501
1750561030735992600,5.04299267578125,6.922950267791748,4.567049980163574,-0.3960000276565552
1750561030745597400,5.052597412109375,7.134000301361084,4.591050148010254,-0.1399500072002411
1750561030755202300,5.062202392578125,7.641000270843506,4.759050369262695,0.09195000678300858
1750561030764807200,5.07180712890625,7.909050464630127,4.945050239562988,0.07005000114440918
1750561030774411800,5.081411865234375,8.173049926757812,4.965000152587891,-0.36705002188682556
1750561030784016600,5.0910166015625,8.3860502243042,5.118000030517578,-1.0279500484466553
1750561030793621500,5.10062158203125,8.236949920654297,5.202000141143799,-1.4040000438690186
1750561030803226000,5.11022607421875,7.7659502029418945,5.034000396728516,-1.075950026512146
1750561030812831200,5.119831298828125,7.359000205993652,4.9960503578186035,-0.6589500308036804
1750561030832040400,5.13904052734375,7.81095027923584,4.990950107574463,0.25200000405311584
1750561030841645300,5.148645263671875,8.416950225830078,5.023950099945068,0.07500000298023224
1750561030851250200,5.158250244140625,9.091950416564941,5.020050048828125,-0.27105000615119934
1750561030860855000,5.16785498046875,9.600000381469727,5.050950050354004,-0.7240500450134277
1750561030870460000,5.1774599609375,9.838950157165527,5.013000011444092,-1.1329500675201416
1750561030880064800,5.187064697265625,9.528000831604004,5.08905029296875,-1.171950101852417
1750561030889669400,5.19666943359375,8.755050659179688,5.178000450134277,-0.9820500612258911
1750561030899274200,5.206274169921875,8.082000732421875,5.239950180053711,-0.5560500025749207
1750561030908878800,5.21587890625,7.729950428009033,5.3020501136779785,-0.003000000026077032
1750561030918483700,5.225483642578125,7.821000576019287,5.38800048828125,0.3910500109195709
1750561030928088600,5.235088623046875,8.236949920654297,5.475000381469727,0.3360000252723694
1750561030937693400,5.244693359375,8.656050682067871,5.463000297546387,0.025050001218914986
1750561030947298300,5.25429833984375,8.793000221252441,5.452950477600098,-0.4249500334262848
1750561030956903000,5.26390283203125,8.71095085144043,5.47005033493042,-0.8340000510215759
1750561030966507800,5.2735078125,8.315999984741211,5.479050159454346,-0.8869500160217285
1750561030976112400,5.2831123046875,7.993050575256348,5.511000156402588,-0.8029500246047974
1750561030985717500,5.292717529296875,7.782000541687012,5.496000289916992,-0.5590500235557556
1750561030995322000,5.302322021484375,7.761000156402588,5.350050449371338,-0.2689500153064728
1750561031004927000,5.311927001953125,7.8349504470825195,5.251950263977051,-0.1399500072002411
1750561031014531600,5.321531494140625,8.029050827026367,5.142000198364258,-0.04905000329017639
1750561031024136700,5.33113671875,8.26395034790039,5.074950218200684,-0.1279500126838684
1750561031033741300,5.3407412109375,8.383049964904785,5.07705020904541,-0.25005000829696655
1750561031043346200,5.35034619140625,8.563050270080566,5.158950328826904,-0.5080500245094299
1750561031052950800,5.35995068359375,8.716050148010254,5.19195032119751,-0.7240500450134277
1750561031062555600,5.3695556640625,8.601000785827637,5.143950462341309,-0.7450500130653381
1750561031072160500,5.379160400390625,8.29995059967041,5.143950462341309,-0.5080500245094299
1750561031081765000,5.38876513671875,8.11500072479248,5.134950160980225,-0.21195000410079956
1750561031091370000,5.398369873046875,8.223000526428223,5.127000331878662,0.004950000438839197
1750561031100974800,5.407974853515625,8.344950675964355,5.080050468444824,0.25005000829696655
1750561031110579700,5.417579833984375,8.282999992370605,5.07705020904541,0.38805001974105835
1750561031120184300,5.427184326171875,8.08905029296875,5.134950160980225,0.18000000715255737
1750561031129789200,5.4367890625,7.993050575256348,5.190000057220459,-0.12300000339746475
1750561031139394000,5.44639404296875,8.12700080871582,5.221050262451172,-0.37005001306533813
1750561031148998700,5.45599853515625,8.527050018310547,5.254050254821777,-0.5749500393867493
1750561031158603500,5.465603515625,8.992050170898438,5.263950347900391,-0.6139500141143799
1750561031168208100,5.4752080078125,9.12600040435791,5.158950328826904,-0.3379500210285187
1750561031177813000,5.48481298828125,8.896050453186035,5.11305046081543,0.025050001218914986
1750561031187417900,5.49441796875,8.434050559997559,5.1060004234313965,0.26205000281333923
1750561031197022700,5.504022705078125,7.91895055770874,5.125050067901611,0.22800001502037048
1750561031206627600,5.513627685546875,7.735050201416016,5.163000106811523,-0.043950002640485764
1750561031216232200,5.523232177734375,7.951950550079346,5.218050479888916,-0.3169500231742859
1750561031225837000,5.532837158203125,8.414999961853027,5.245050430297852,-0.3820500075817108
1750561031235441700,5.542441650390625,8.87700080871582,5.20395040512085,-0.31200000643730164
1750561031245046500,5.552046630859375,9.142050743103027,5.238000392913818,-0.16095000505447388
1750561031254651100,5.561651123046875,9.147000312805176,5.299950122833252,0.031950000673532486
1750561031264256000,5.571256103515625,8.755050659179688,5.305050373077393,0.06795000284910202
1750561031273860900,5.58086083984375,8.256000518798828,5.259000301361084,-0.07005000114440918
1750561031283465700,5.5904658203125,7.806000232696533,5.250000476837158,-0.2550000250339508
1750561031293070600,5.600070556640625,7.557000160217285,5.233050346374512,-0.1969500035047531
1750561031302675200,5.60967529296875,7.402050495147705,5.239950180053711,-0.07005000114440918
1750561031312280000,5.619280029296875,7.725000381469727,5.3359503746032715,-0.08505000174045563
1750561031321885000,5.628885009765625,8.170050621032715,5.319000244140625,-0.17100000381469727
1750561031331489500,5.638489501953125,8.737950325012207,5.308950424194336,-0.25905001163482666
1750561031341094100,5.64809423828125,8.922000885009766,5.266050338745117,-0.364950031042099
1750561031350699000,5.657698974609375,8.668050765991211,5.194050312042236,-0.42900002002716064
1750561031360304000,5.66730419921875,8.235000610351562,5.170950412750244,-0.2550000250339508
1750561031369908700,5.67690869140625,7.885050296783447,5.202000141143799,0.05595000088214874
1750561031379513600,5.686513671875,7.861050605773926,5.187000274658203,0.16305001080036163
1750561031389118500,5.696118408203125,8.200950622558594,5.230050086975098,0.07500000298023224
1750561031398723000,5.70572314453125,8.605950355529785,5.227950096130371,-0.12300000339746475
1750561031408327700,5.71532763671875,8.913000106811523,5.17995023727417,-0.1879500150680542
1750561031417932500,5.7249326171875,9.015000343322754,5.199000358581543,-0.3460500240325928
1750561031427537700,5.73453759765625,8.716050148010254,5.173050403594971,-0.4729500114917755
1750561031437142300,5.744142333984375,8.315999984741211,5.199000358581543,-0.46095001697540283
1750561031446747100,5.7537470703125,7.909050464630127,5.206050395965576,-0.29100000858306885
1750561031456351700,5.763351806640625,7.7059502601623535,5.206050395965576,-0.04200000315904617
1750561031465956600,5.77295654296875,7.753950595855713,5.202000141143799,0.1469999998807907
1750561031475561200,5.782561279296875,7.990950584411621,5.1469502449035645,0.19500000774860382
1750561031485166000,5.792166015625,8.278050422668457,5.194050312042236,-0.013050000183284283
1750561031494771000,5.80177099609375,8.494050025939941,5.170950412750244,-0.21900001168251038
1750561031504375800,5.811375732421875,8.641950607299805,5.163000106811523,-0.4339500069618225
1750561031513980400,5.82098046875,8.755050659179688,5.158950328826904,-0.5299500226974487
1750561031523585300,5.830585205078125,8.635050773620605,5.15595006942749,-0.48705002665519714
1750561031533190100,5.840190185546875,8.319000244140625,5.197050094604492,-0.2070000171661377
1750561031542795000,5.849794921875,7.893000602722168,5.230050086975098,-0.00795000046491623
1750561031552400000,5.85939990234375,7.414050579071045,5.214000225067139,0.11100000888109207
1750561031562004500,5.86900439453125,7.320000171661377,5.259000301361084,0.1489500105381012
1750561031571609300,5.878609375,7.576950550079346,5.281050205230713,0.036000002175569534
1750561031581214000,5.8882138671875,8.218050003051758,5.320950031280518,-0.15900000929832458
1750561031590818800,5.89781884765625,8.850000381469727,5.296950340270996,-0.29100000858306885
1750561031600423700,5.907423583984375,9.175950050354004,5.293050289154053,-0.2670000195503235
1750561031610028300,5.9170283203125,9.051000595092773,5.254050254821777,-0.10395000129938126
1750561031619633200,5.926633056640625,8.692049980163574,5.3020501136779785,0.08400000631809235
1750561031629238000,5.936238037109375,8.143950462341309,5.2230000495910645,0.17805001139640808
1750561031638843000,5.9458427734375,7.737000465393066,5.214000225067139,0.2350500077009201
1750561031648447500,5.955447509765625,7.627050399780273,5.266050338745117,0.23295001685619354
1750561031658052400,5.96505224609375,7.830000400543213,5.2420501708984375,0.1660500019788742
1750561031667657200,5.9746572265625,8.260950088500977,5.209050178527832,0.022050000727176666
1750561031677262000,5.984261962890625,8.599050521850586,5.137050151824951,-0.1660500019788742
1750561031686866700,5.99386669921875,8.749950408935547,5.1660003662109375,-0.3430500030517578
1750561031696471600,6.003471435546875,8.697000503540039,5.202000141143799,-0.49605002999305725
1750561031706076400,6.013076416015625,8.539050102233887,5.206050395965576,-0.41700002551078796
1750561031715681000,6.022680908203125,8.278050422668457,5.173050403594971,-0.28095000982284546
1750561031725286000,6.032285888671875,8.043000221252441,5.209050178527832,-0.06495000422000885
1750561031734890800,6.041890869140625,7.869000434875488,5.194050312042236,0.06000000238418579
1750561031744495600,6.05149560546875,7.789950370788574,5.19195032119751,0.14400000870227814
1750561031754100200,6.061100341796875,7.849050521850586,5.218050479888916,0.20205001533031464
1750561031763705000,6.070705078125,8.175000190734863,5.278050422668457,0.19500000774860382
1750561031773310000,6.08031005859375,8.51294994354248,5.278050422668457,0.036000002175569534
1750561031782914600,6.08991455078125,8.905050277709961,5.293050289154053,-0.18495000898838043
1750561031792519400,6.09951953125,8.9839506149292,5.269050121307373,-0.37005001306533813
1750561031802124000,6.1091240234375,8.830950736999512,5.230050086975098,-0.3460500240325928
1750561031811729000,6.11872900390625,8.422050476074219,5.209050178527832,-0.24705001711845398
1750561031821333800,6.128333740234375,7.950000286102295,5.197050094604492,0.019950000569224358
1750561031830938600,6.137938720703125,7.713000297546387,5.283000469207764,0.3169500231742859
1750561031840543200,6.147543212890625,7.737000465393066,5.251950263977051,0.40800002217292786
1750561031850148000,6.157148193359375,8.14905071258545,5.283000469207764,0.2779500186443329
1750561031859752700,6.166752685546875,8.557950019836426,5.307000160217285,-0.034050002694129944
1750561031869357800,6.17635791015625,8.781000137329102,5.278050422668457,-0.2670000195503235
1750561031878962400,6.18596240234375,8.63700008392334,5.317050457000732,-0.38895002007484436
1750561031888567600,6.195567626953125,8.344950675964355,5.317050457000732,-0.2880000174045563
1750561031898172200,6.205172119140625,8.118000030517578,5.319000244140625,-0.09195000678300858
1750561031907776800,6.21477685546875,8.227950096130371,5.299950122833252,0.22995001077651978
1750561031917381600,6.224381591796875,8.577000617980957,5.269050121307373,0.29295000433921814
1750561031926986200,6.233986328125,8.776050567626953,5.227950096130371,0.22800001502037048
1750561031936591400,6.24359130859375,8.58495044708252,5.19195032119751,0.04605000093579292
1750561031946196000,6.253196044921875,8.221050262451172,5.257050037384033,-0.2350500077009201
1750561031955800800,6.26280078125,7.786950588226318,5.343000411987305,-0.2670000195503235
1750561031965405700,6.27240576171875,7.572000503540039,5.266050338745117,-0.15900000929832458
1750561031975010600,6.282010498046875,7.840050220489502,5.259000301361084,-0.15600000321865082
1750561031984615200,6.291615234375,8.295000076293945,5.194050312042236,-0.1279500126838684
1750561031994220000,6.301219970703125,8.683050155639648,5.068050384521484,-0.13305000960826874
1750561032003825000,6.310824951171875,8.716050148010254,5.068050384521484,-0.039000000804662704
1750561032013429800,6.3204296875,8.254050254821777,5.047950267791748,0.019950000569224358
1750561032023034400,6.330034423828125,7.954950332641602,5.094000339508057,-0.1489500105381012
1750561032032639200,6.33963916015625,7.921050548553467,5.194050312042236,-0.3360000252723694
1750561032042243800,6.349243896484375,7.789950370788574,5.127000331878662,-0.47700002789497375
1750561032051848700,6.3588486328125,7.786950588226318,5.118000030517578,-0.48405003547668457
1750561032061453300,6.368453369140625,7.945050239562988,5.131950378417969,-0.4129500091075897
1750561032071058200,6.37805810546875,8.218050003051758,5.08905029296875,-0.28095000982284546
1750561032080663000,6.3876630859375,8.539050102233887,5.074950218200684,-0.24000000953674316
1750561032090268000,6.397267822265625,8.734950065612793,5.130000114440918,-0.2070000171661377
1750561032099872800,6.406872802734375,8.500950813293457,5.095950126647949,-0.12300000339746475
1750561032109477400,6.416477294921875,8.25195026397705,5.026950359344482,-0.08505000174045563
1750561032119082200,6.426082275390625,8.017050743103027,5.071950435638428,-0.11595000326633453
1750561032128686800,6.435686767578125,8.194050788879395,5.134950160980225,-0.21195000410079956
1750561032138291700,6.445291748046875,8.488950729370117,5.149050235748291,-0.36195001006126404
1750561032147896600,6.454896484375,8.755050659179688,5.185050010681152,-0.5040000081062317
1750561032157501400,6.46450146484375,8.802000045776367,5.2230000495910645,-0.6469500064849854
1750561032167106000,6.47410595703125,8.66100025177002,5.227950096130371,-0.5040000081062317
1750561032176711000,6.4837109375,8.556000709533691,5.263950347900391,-0.37905001640319824
1750561032186315500,6.4933154296875,8.740050315856934,5.221050262451172,-0.12105000764131546
1750561032195920400,6.50292041015625,9.688050270080566,5.2759504318237305,0.5110500454902649
1750561032205525200,6.512525146484375,10.918950080871582,5.284950256347656,0.42705002427101135
1750561032215130000,6.522130126953125,12.382050514221191,5.293050289154053,0.28095000982284546
1750561032224734700,6.531734619140625,13.600950241088867,5.45805025100708,-0.2670000195503235
1750561032234339800,6.54133984375,14.96505069732666,5.494050025939941,-0.5299500226974487
1750561032243944400,6.5509443359375,15.928050994873047,5.143950462341309,0.8629500269889832
1750561032253549000,6.560549072265625,15.30000114440918,4.78695011138916,2.9140501022338867
1750561032263154000,6.57015380859375,13.615050315856934,4.692000389099121,5.3710503578186035
1750561032272758800,6.5797587890625,11.34795093536377,4.950000286102295,6.13200044631958
1750561032282363400,6.58936328125,10.146000862121582,5.125050067901611,5.383050441741943
1750561032291968000,6.598968017578125,9.724050521850586,5.5489501953125,3.705000162124634
1750561032301573000,6.608572998046875,9.23805046081543,5.8909502029418945,2.3590500354766846
1750561032311177700,6.618177734375,7.81095027923584,6.135000228881836,1.2790501117706299
1750561032320782600,6.627782470703125,6.295950412750244,6.435000419616699,0.6160500049591064
1750561032330387500,6.637387451171875,3.9280502796173096,6.589950084686279,0.5800500512123108
1750561032339992300,6.646992431640625,1.227000117301941,6.468000411987305,0.9270000457763672
1750561032349597000,6.656596923828125,-0.6850500106811523,6.576000213623047,1.665000081062317
1750561032359201800,6.666201904296875,-1.8990000486373901,6.741000175476074,2.2080001831054688
1750561032368806700,6.675806640625,-2.3590500354766846,6.68595027923584,1.2460500001907349
1750561032378411300,6.685411376953125,-2.8759500980377197,6.5209503173828125,-1.0470000505447388
1750561032388016000,6.69501611328125,-4.059000015258789,6.382050514221191,-3.283050060272217
1750561032397621000,6.70462109375,-4.5259504318237305,6.339000225067139,-4.678950309753418
1750561032407225600,6.7142255859375,-4.153950214385986,6.388950347900391,-4.8319501876831055
1750561032416830500,6.72383056640625,-3.4240500926971436,6.088050365447998,-4.050000190734863
1750561032426435300,6.733435302734375,-1.3579500913619995,5.7330002784729,-3.859950065612793
1750561032436040000,6.7430400390625,0.6619500517845154,5.386050224304199,-3.7960500717163086
1750561032445644800,6.752644775390625,2.296950101852417,4.372950077056885,-3.403050184249878
1750561032455249700,6.762249755859375,3.6790502071380615,3.7990500926971436,-3.463050127029419
1750561032464854500,6.7718544921875,4.5329999923706055,3.7170002460479736,-3.850950241088867
1750561032474459100,6.781459228515625,5.692050457000732,3.68595027923584,-4.3660502433776855
1750561032484064000,6.79106396484375,6.954000473022461,3.9300003051757812,-5.685000419616699
1750561032493668900,6.8006689453125,7.833000183105469,3.7990500926971436,-7.038000106811523
1750561032503273500,6.8102734375,8.608050346374512,3.576000213623047,-8.292000770568848
1750561032512878300,6.81987841796875,9.027000427246094,3.684000253677368,-8.758950233459473
1750561032522483200,6.829483154296875,8.315999984741211,3.910950183868408,-7.600050449371338
1750561032532087800,6.839087890625,7.981050491333008,3.787050247192383,-6.03000020980835
1750561032541692700,6.848692626953125,8.746950149536133,3.484950065612793,-5.263050079345703
1750561032551297500,6.858297607421875,10.78695011138916,2.9920501708984375,-4.714950084686279
1750561032560902400,6.86790234375,13.153050422668457,2.515050172805786,-3.220950126647949
1750561032570507300,6.87750732421875,14.553000450134277,2.0650501251220703,-0.3960000276565552
1750561032580112000,6.88711181640625,15.19800090789795,2.259000062942505,1.7100000381469727
1750561032589716700,6.896716796875,14.776050567626953,2.937000036239624,3.1969501972198486
1750561032599321300,6.9063212890625,14.57295036315918,3.2689502239227295,4.279050350189209
1750561032608926200,6.91592626953125,14.842950820922852,3.352950096130371,3.976950168609619
1750561032618531000,6.925531005859375,15.043951034545898,3.157050132751465,3.592050075531006
1750561032628136000,6.935135986328125,14.374051094055176,3.2980501651763916,3.2160000801086426
1750561032637740800,6.94474072265625,12.814950942993164,3.7320001125335693,4.210050106048584
1750561032647345400,6.954345458984375,10.653000831604004,3.95205020904541,6.115950107574463
1750561032656950300,6.9639501953125,8.962950706481934,3.9060001373291016,7.452000141143799
1750561032666555000,6.973554931640625,9.22605037689209,4.503000259399414,7.300950527191162
1750561032676159700,6.98315966796875,10.366050720214844,5.338050365447998,5.28000020980835
1750561032685764600,6.9927646484375,11.740050315856934,5.247000217437744,3.6060001850128174
1750561032695369200,7.002369140625,12.118050575256348,5.047950267791748,2.388000011444092
1750561032704974000,7.01197412109375,11.398050308227539,4.773000240325928,1.8250501155853271
1750561032714579000,7.021578857421875,9.955950736999512,4.73205041885376,2.3329501152038574
1750561032724183800,7.031183837890625,8.203949928283691,4.948050022125244,2.8470001220703125
1750561032733788400,7.040788330078125,6.466050148010254,5.098950386047363,2.9220001697540283
1750561032743393000,7.05039306640625,5.400000095367432,5.082000255584717,2.9580001831054688
1750561032752998000,7.059997802734375,5.3520002365112305,5.08905029296875,2.4570000171661377
1750561032762603000,7.06960302734375,6.2310004234313965,5.118000030517578,1.9500000476837158
1750561032772207600,7.07920751953125,7.04295015335083,4.960050106048584,1.533000111579895
1750561032781812500,7.0888125,7.588050365447998,4.785000324249268,0.9370500445365906
1750561032791417000,7.0984169921875,7.924050331115723,4.681950092315674,0.5389500260353088
1750561032801022000,7.10802197265625,7.927950382232666,4.486050128936768,0.04605000093579292
1750561032810626600,7.11762646484375,7.624050140380859,4.426050186157227,-0.24495001137256622
1750561032820231400,7.1272314453125,7.192950248718262,4.570050239562988,-0.34095001220703125
1750561032829836000,7.1368359375,6.508950233459473,4.459050178527832,0.043950002640485764
1750561032839441200,7.146441162109375,5.998950481414795,4.3560004234313965,0.6690000295639038
1750561032849046000,7.1560458984375,6.2310004234313965,4.371000289916992,0.859950065612793
1750561032858650600,7.165650634765625,6.97605037689209,4.431000232696533,0.7950000166893005
1750561032868255500,7.17525537109375,7.954950332641602,4.540950298309326,0.23295001685619354
1750561032877860000,7.184860107421875,8.6850004196167,4.573950290679932,-0.3240000009536743
1750561032887465000,7.19446484375,8.974950790405273,4.519050121307373,-0.7000500559806824
1750561032897069600,7.204069580078125,9.054000854492188,4.495050430297852,-1.0110000371932983
1750561032906674400,7.21367431640625,8.647050857543945,4.584000110626221,-0.8680500388145447
1750561032916279600,7.223279541015625,7.984050273895264,4.633950233459473,-0.5490000247955322
1750561032925884200,7.23288427734375,7.3750505447387695,4.725000381469727,-0.07304999977350235
1750561032935488800,7.24248876953125,7.191000461578369,4.773000240325928,0.38805001974105835
1750561032945093600,7.25209375,7.468950271606445,4.876049995422363,0.5250000357627869
1750561032954698500,7.261698486328125,8.212950706481934,4.948050022125244,0.3450000286102295
1750561032964303000,7.27130322265625,9.046950340270996,4.945050239562988,-0.1279500126838684
1750561032973908200,7.280908203125,9.6670503616333,4.953000068664551,-0.6570000052452087
1750561032983512800,7.290512939453125,9.813000679016113,4.972050189971924,-0.9490500688552856
1750561032993117700,7.30011767578125,9.391050338745117,4.948050022125244,-1.114050030708313
1750561033002722600,7.30972265625,8.67495059967041,4.969050407409668,-0.9630000591278076
1750561033012327200,7.3193271484375,7.954950332641602,5.010000228881836,-0.5160000324249268
1750561033021932000,7.32893212890625,7.4569501876831055,4.948050022125244,-0.05100000277161598
1750561033031536600,7.33853662109375,7.408950328826904,4.948050022125244,0.5029500126838684
1750561033041141500,7.3481416015625,7.785000324249268,4.962000370025635,0.8340000510215759
1750561033050746400,7.357746337890625,8.563050270080566,4.942950248718262,0.43605002760887146
1750561033060351200,7.367351318359375,9.303000450134277,4.986000061035156,-0.15900000929832458
1750561033069955800,7.376955810546875,9.772050857543945,4.986000061035156,-0.6589500308036804
1750561033079560700,7.386560791015625,9.78600025177002,5.008050441741943,-0.9030000567436218
1750561033089165600,7.39616552734375,9.244950294494629,4.966950416564941,-0.6280500292778015
1750561033098770200,7.405770263671875,8.529000282287598,4.978950023651123,-0.36195001006126404
1750561033108375000,7.415375,7.945050239562988,4.972050189971924,0.15900000929832458
1750561033117979600,7.424979736328125,7.615050315856934,4.984050273895264,0.6450000405311584
1750561033127584500,7.43458447265625,7.699050426483154,5.098950386047363,0.6780000329017639
1750561033137189400,7.444189453125,8.118000030517578,5.1660003662109375,0.30705001950263977
1750561033146794200,7.453794189453125,8.605950355529785,5.149050235748291,-0.039000000804662704
1750561033156398800,7.46339892578125,9.019950866699219,5.131950378417969,-0.3820500075817108
1750561033166003700,7.473003662109375,9.19005012512207,5.134950160980225,-0.4939500093460083
1750561033175608600,7.482608642578125,9.147000312805176,5.098950386047363,-0.37005001306533813
1750561033185213400,7.49221337890625,8.866950035095215,4.969050407409668,-0.0799500048160553
1750561033194818000,7.501818115234375,8.3860502243042,4.929000377655029,0.23805001378059387
1750561033204423000,7.5114228515625,7.842000484466553,4.972050189971924,0.36195001006126404
1750561033214027800,7.52102783203125,7.3750505447387695,4.926000118255615,0.34995001554489136
1750561033223632400,7.53063232421875,7.35105037689209,4.933950424194336,0.12495000660419464
1750561033233237200,7.5402373046875,7.678950309753418,4.933950424194336,-0.1279500126838684
1750561033242841900,7.549841796875,8.155950546264648,4.924050331115723,-0.39795002341270447
1750561033252446700,7.55944677734375,8.653950691223145,4.954950332641602,-0.5419500470161438
1750561033262051800,7.5690517578125,9.087000846862793,5.020050048828125,-0.48900002241134644
1750561033271656200,7.57865625,9.118050575256348,4.98105001449585,-0.20400001108646393
1750561033281261000,7.588260986328125,8.946000099182129,5.022000312805176,-0.025050001218914986
1750561033290866000,7.597865966796875,8.37405014038086,4.984050273895264,0.17100000381469727
1750561033300470500,7.607470458984375,7.792050361633301,5.044050216674805,0.29295000433921814
1750561033310075400,7.617075439453125,7.498050212860107,5.122950077056885,0.37605002522468567
1750561033319680000,7.626679931640625,7.521000385284424,5.139000415802002,0.4720500111579895
1750561033329284900,7.636284912109375,7.7470502853393555,5.151000022888184,0.47895002365112305
1750561033338889700,7.6458896484375,8.326050758361816,5.227950096130371,0.2950500249862671
1750561033348494300,7.655494384765625,8.88900089263916,5.235000133514404,0.10095000267028809
1750561033358099500,7.665099365234375,9.26400089263916,5.143950462341309,0.010050000622868538
1750561033367704000,7.6747041015625,9.26205062866211,5.125050067901611,-0.043950002640485764
1750561033377309000,7.684308837890625,8.896050453186035,5.0530500411987305,0.22605000436306
1750561033386913500,7.69391357421875,8.338050842285156,5.068050384521484,0.5080500245094299
1750561033396518400,7.703518310546875,7.987950325012207,5.08905029296875,0.6420000195503235
1750561033406123000,7.713123046875,7.900050163269043,5.083950042724609,0.5490000247955322
1750561033415727900,7.722727783203125,8.138999938964844,5.0560503005981445,0.283050000667572
1750561033425332700,7.732332763671875,8.56095027923584,5.074950218200684,0.043950002640485764
1750561033434937600,7.7419375,8.781000137329102,5.0560503005981445,-0.05595000088214874
1750561033444542500,7.75154248046875,8.893050193786621,5.06505012512207,-0.0010500000789761543
1750561033454147000,7.76114697265625,8.632050514221191,5.080050468444824,0.09405000507831573
1750561033463751700,7.770751708984375,8.218050003051758,5.058000087738037,0.25200000405311584
1750561033473356800,7.780356689453125,7.878000259399414,5.08905029296875,0.4120500087738037
1750561033482961400,7.78996142578125,7.890000343322754,5.047950267791748,0.4410000145435333
1750561033492566300,7.799566162109375,8.131950378417969,4.998000144958496,0.4120500087738037
1750561033502171100,7.809171142578125,8.319000244140625,4.9770002365112305,0.30000001192092896
1750561033511775700,7.818775634765625,8.491050720214844,5.058000087738037,0.13005000352859497
1750561033521380600,7.828380615234375,8.472000122070312,5.104050159454346,0.013050000183284283
1750561033530985500,7.8379853515625,8.443050384521484,5.1469502449035645,-0.12300000339746475
1750561033540590000,7.847590087890625,8.338050842285156,5.163000106811523,-0.13005000352859497
1750561033550195000,7.85719482421875,8.292000770568848,5.092050075531006,0.028950002044439316
1750561033559799800,7.8667998046875,8.27595043182373,5.032050132751465,0.11805000901222229
1750561033569404700,7.87640478515625,8.52495002746582,4.8949503898620605,0.1870500147342682
1750561033579009300,7.88600927734375,8.926950454711914,4.926000118255615,0.21405000984668732
1750561033588614100,7.8956142578125,9.061050415039062,4.897950172424316,0.22800001502037048
1750561033598218800,7.90521875,9.049050331115723,4.890000343322754,0.22995001077651978
1750561033607823600,7.91482373046875,8.83395004272461,4.897950172424316,0.24195000529289246
1750561033617428500,7.924428466796875,8.496000289916992,4.869000434875488,0.26205000281333923
1750561033627033300,7.934033447265625,8.142000198364258,4.89300012588501,0.19500000774860382
1750561033636638000,7.943637939453125,7.9960503578186035,4.933950424194336,0.07005000114440918
1750561033646242800,7.953242919921875,8.04104995727539,4.962000370025635,-0.07500000298023224
1750561033655847700,7.96284765625,8.11500072479248,4.978950023651123,-0.0580500029027462
1750561033665452300,7.972452392578125,8.182050704956055,5.010000228881836,0.036000002175569534
1750561033675057000,7.982056884765625,8.359050750732422,5.013000011444092,0.06795000284910202
1750561033684662000,7.991662109375,8.539050102233887,4.990950107574463,0.14400000870227814
1750561033694267000,8.001266845703125,8.616000175476074,4.9770002365112305,0.19905000925064087
1750561033703871500,8.01087158203125,8.656050682067871,5.008050441741943,0.22800001502037048
1750561033713476400,8.020476318359375,8.68695068359375,4.9770002365112305,0.13905000686645508
1750561033723081000,8.0300810546875,8.721000671386719,4.938000202178955,0.05100000277161598
1750561033732685800,8.039685791015625,8.545949935913086,4.953000068664551,0.0799500048160553
1750561033742290700,8.049290771484374,8.290050506591797,4.945050239562988,0.18300001323223114
1750561033751895300,8.058895263671875,8.0149507522583,4.957050323486328,0.35295000672340393
1750561033761500400,8.06850048828125,8.050950050354004,4.9770002365112305,0.35295000672340393
1750561033771105000,8.07810498046875,8.029050827026367,4.962000370025635,0.37605002522468567
1750561033780709600,8.087709716796875,8.086950302124023,4.98105001449585,0.38805001974105835
1750561033790314500,8.097314453125,8.295000076293945,5.020050048828125,0.26205000281333923
1750561033799919400,8.10691943359375,8.5489501953125,5.038950443267822,0.09195000678300858
1750561033809524200,8.116524169921876,8.752050399780273,5.050950050354004,-0.13305000960826874
1750561033819129000,8.126129150390625,8.756999969482422,4.9960503578186035,-0.18300001323223114
1750561033828733700,8.135733642578124,8.616000175476074,4.941000461578369,0.022050000727176666
1750561033838338600,8.145338623046875,8.403000831604004,4.950000286102295,0.25200000405311584
1750561033847943200,8.154943115234374,8.295000076293945,4.909950256347656,0.4459500312805176
1750561033857548000,8.164548095703125,8.272950172424316,4.906949996948242,0.5580000281333923
1750561033867153000,8.17415283203125,8.379000663757324,4.941000461578369,0.4240500330924988
1750561033876757500,8.183757568359376,8.716050148010254,4.9960503578186035,0.24000000953674316
1750561033886362400,8.1933623046875,9.039000511169434,4.990950107574463,0.05100000277161598
1750561033895967200,8.20296728515625,9.085050582885742,4.8949503898620605,-0.034050002694129944
1750561033905571800,8.21257177734375,8.884050369262695,4.918950080871582,-0.06495000422000885
1750561033915176700,8.2221767578125,8.506050109863281,4.938000202178955,0.05295000225305557
1750561033924781600,8.231781494140625,8.059950828552246,4.861950397491455,0.2350500077009201
1750561033934386400,8.241386474609374,7.957050323486328,4.897950172424316,0.3859500288963318
1750561033943991300,8.2509912109375,8.110050201416016,4.837950229644775,0.4909500181674957
1750561033953596000,8.260595947265625,8.308950424194336,4.8259501457214355,0.5110500454902649
1750561033963200800,8.27020068359375,8.515049934387207,4.885950088500977,0.3840000033378601
1750561033972805600,8.2798056640625,8.589000701904297,4.878000259399414,0.18300001323223114
1750561033982410200,8.28941015625,8.56095027923584,4.8949503898620605,-0.04905000329017639
1750561033992014800,8.299014892578125,8.422050476074219,4.929000377655029,-0.28095000982284546
1750561034001619700,8.30861962890625,8.407050132751465,5.002950191497803,-0.3720000088214874
1750561034011224600,8.318224609375,8.356950759887695,5.020050048828125,-0.2569500207901001
1750561034020829400,8.327829345703124,8.532000541687012,4.90500020980835,-0.12105000764131546
1750561034030434000,8.33743408203125,8.568000793457031,4.906949996948242,0.025050001218914986
1750561034040039000,8.347038818359374,8.494050025939941,4.933950424194336,0.1870500147342682
1750561034049643800,8.356643798828125,8.296950340270996,4.845000267028809,0.46695002913475037
1750561034059248400,8.366248291015625,8.188950538635254,4.861950397491455,0.6520500183105469
1750561034068853200,8.375853271484376,8.326050758361816,4.953000068664551,0.5580000281333923
1750561034078458000,8.3854580078125,8.437950134277344,4.945050239562988,0.43905001878738403
1750561034088063000,8.39506298828125,8.419050216674805,4.897950172424316,0.25394999980926514
1750561034097667600,8.40466748046875,8.367000579833984,4.9930500984191895,0.12000000476837158
1750561034107272400,8.4142724609375,8.419050216674805,5.023950099945068,0.003000000026077032
1750561034116877300,8.423877197265625,8.656050682067871,4.965000152587891,-0.17100000381469727
1750561034126482000,8.43348193359375,8.913000106811523,4.888050079345703,-0.19005000591278076
1750561034136086500,8.44308642578125,9.123000144958496,4.869000434875488,-0.11595000326633453
1750561034145691400,8.45269140625,9.055950164794922,4.8349504470825195,0.07500000298023224
1750561034155296300,8.462296142578126,8.692049980163574,4.78695011138916,0.30705001950263977
1750561034164901000,8.471901123046875,8.221050262451172,4.846950054168701,0.22305001318454742
1750561034174506000,8.481506103515626,7.9860005378723145,4.878000259399414,0.036000002175569534
1750561034184110600,8.491110595703125,8.002950668334961,4.906949996948242,-0.07304999977350235
1750561034193715500,8.500715576171874,8.211000442504883,4.930950164794922,-0.25905001163482666
1750561034203320000,8.510320068359375,8.756999969482422,4.998000144958496,-0.5850000381469727
1750561034212925000,8.519925048828124,9.505950927734375,4.98900032043457,-0.9370500445365906
1750561034222529800,8.52952978515625,10.228950500488281,4.950000286102295,-0.9390000700950623
1750561034232134400,8.539134521484375,10.809000968933105,4.933950424194336,-0.4729500114917755
1750561034241739300,8.5487392578125,10.996050834655762,4.953000068664551,0.20205001533031464
1750561034251344100,8.55834423828125,11.259000778198242,4.926000118255615,0.9250500202178955
1750561034260948700,8.56794873046875,11.97195053100586,4.978950023651123,1.0879501104354858
1750561034270553600,8.5775537109375,13.909050941467285,5.158950328826904,1.6909500360488892
1750561034280158200,8.587158203125,15.1399507522583,5.355000019073486,1.308000087738037
1750561034289763000,8.59676318359375,15.886950492858887,4.870950222015381,2.0719501972198486
1750561034299368000,8.606367919921874,14.259000778198242,4.617000102996826,2.373000144958496
1750561034308972800,8.615972900390625,11.632050514221191,4.549950122833252,2.407050132751465
1750561034318577700,8.62557763671875,9.51300048828125,5.038950443267822,3.5370001792907715
1750561034328182300,8.635182373046876,7.231950283050537,5.613000392913818,4.357950210571289
1750561034337787100,8.644787109375,5.572050094604492,5.767050266265869,3.9370501041412354
1750561034347391700,8.654391845703126,5.878950119018555,6.267000198364258,3.9150002002716064
1750561034356996600,8.66399658203125,6.286050319671631,6.69795036315918,3.4080002307891846
1750561034366601200,8.673601318359376,6.7860002517700195,6.516000270843506,2.445000171661377
1750561034376206300,8.683206298828125,6.015000343322754,6.598050117492676,0.9559500217437744
1750561034385811000,8.69281103515625,4.14300012588501,6.741000175476074,-1.3300501108169556
1750561034395415800,8.702415771484375,1.9860000610351562,6.826950550079346,-2.884050130844116
1750561034405020400,8.7120205078125,-0.12495000660419464,6.835050106048584,-2.107950210571289
1750561034414625300,8.721625244140625,-1.5589500665664673,6.994950294494629,-0.7189500331878662
1750561034424230100,8.731230224609375,-2.485950231552124,6.889950275421143,-0.25200000405311584
1750561034433834800,8.740834716796876,-2.9170501232147217,6.352950096130371,-0.6070500016212463
1750561034443439400,8.750439453125,-2.9290502071380615,5.898000240325928,-1.609950065612793
1750561034453044500,8.76004443359375,-2.3370001316070557,5.604000091552734,-3.05400013923645
1750561034462649300,8.7696494140625,-1.4899500608444214,5.677950382232666,-4.701000213623047
1750561034472254000,8.77925390625,-0.20400001108646393,5.161050319671631,-5.098050117492676
1750561034481858800,8.78885888671875,0.7290000319480896,4.480950355529785,-4.011000156402588
1750561034491463400,8.79846337890625,2.01705002784729,3.9900002479553223,-3.010050058364868
1750561034501068300,8.808068359375,3.262050151824951,3.865950107574463,-4.030050277709961
1750561034510673200,8.817673095703125,4.0980000495910645,3.4870500564575195,-5.917050361633301
1750561034520277800,8.82727783203125,5.055000305175781,3.037050247192383,-7.381950378417969
1750561034529882600,8.836882568359375,6.2310004234313965,3.106950044631958,-7.734000205993652
1750561034539487500,8.846487548828126,7.009050369262695,3.367950201034546,-6.994950294494629
1750561034549092000,8.856092041015625,6.049050331115723,3.355950117111206,-6.007950305938721
1750561034558697000,8.865697021484374,4.174050331115723,2.874000072479248,-4.228950023651123
1750561034568301600,8.875301513671875,3.8010001182556152,2.3620500564575195,-2.794950246810913
1750561034577906700,8.88490673828125,5.782950401306152,2.0410501956939697,-2.557950019836426
1750561034587511300,8.89451123046875,10.10205078125,2.1060001850128174,-2.4409501552581787
1750561034597116200,8.9041162109375,14.71095085144043,2.518050193786621,-2.3710501194000244
1750561034606721000,8.913720947265626,18.468000411987305,3.076050043106079,-2.6230502128601074
1750561034616325600,8.92332568359375,20.632951736450195,3.355950117111206,-3.235950231552124
1750561034625930500,8.932930419921876,21.016050338745117,3.235950231552124,-3.1369502544403076
1750561034635535000,8.94253515625,19.431001663208008,3.088050127029419,-1.5240000486373901
1750561034645140000,8.952139892578124,16.15005111694336,2.8000500202178955,0.7380000352859497
1750561034654744800,8.961744873046875,12.652050971984863,2.1940500736236572,4.42995023727417
1750561034664349700,8.971349609375,10.243950843811035,1.9840500354766846,7.228950500488281
1750561034673954600,8.98095458984375,9.834000587463379,2.5320000648498535,8.497950553894043
1750561034683559200,8.99055908203125,10.986000061035156,3.5209500789642334,7.975950241088867
1750561034693164000,9.0001640625,13.938000679016113,4.159950256347656,5.8690505027771
1750561034702768600,9.0097685546875,15.991950988769531,4.519050121307373,3.3979501724243164
1750561034712373800,9.019373779296876,16.22895050048828,4.713000297546387,1.1160000562667847
1750561034721978400,9.028978271484375,14.460000991821289,4.62000036239624,-0.013050000183284283
1750561034731583000,9.0385830078125,11.563050270080566,4.474050045013428,0.2760000228881836
1750561034741187800,9.048187744140625,8.722949981689453,4.680000305175781,1.6570501327514648
1750561034750792700,9.057792724609374,6.034950256347656,4.843050003051758,3.7140002250671387
1750561034760397300,9.067397216796875,4.5329999923706055,4.828050136566162,5.761050224304199
1750561034770002200,9.077002197265625,4.204950332641602,5.233050346374512,5.389950275421143
1750561034779606800,9.086606689453125,5.914950370788574,5.566050052642822,3.214050054550171
1750561034789211600,9.096211669921875,7.533000469207764,5.563050270080566,0.8790000677108765
1750561034798816500,9.10581640625,8.593950271606445,5.329050064086914,-0.5539500117301941
1750561034808421400,9.11542138671875,8.565000534057617,5.355000019073486,-0.9199500679969788
1750561034818026200,9.125026123046876,7.428000450134277,5.299950122833252,-0.33105000853538513
1750561034827630800,9.134630859375,6.391050338745117,5.0560503005981445,0.4909500181674957
1750561034837235700,9.144235595703124,5.593950271606445,5.014950275421143,0.831000030040741
1750561034846840300,9.15384033203125,5.1220502853393555,4.926000118255615,0.6949500441551208
1750561034856445000,9.16344482421875,5.070000171661377,4.785000324249268,0.2740500271320343
1750561034866049800,9.1730498046875,5.758950233459473,4.740000247955322,-0.13500000536441803
1750561034875655000,9.182655029296875,6.541950225830078,4.717950344085693,-0.4030500054359436
1750561034885259500,9.192259521484376,7.153050422668457,4.675050258636475,-0.6829500198364258
1750561034894864400,9.201864501953125,7.738950252532959,4.735050201416016,-0.9199500679969788
1750561034904469200,9.21146923828125,8.02695083618164,4.809000015258789,-0.9780000448226929
1750561034914073900,9.221073974609375,8.07194995880127,4.771050453186035,-0.7549500465393066
1750561034923678500,9.230678466796874,8.031000137329102,4.845000267028809,-0.5629500150680542
1750561034933283300,9.240283447265625,7.897050380706787,4.809000015258789,-0.3360000252723694
1750561034942888200,9.24988818359375,7.641000270843506,4.716000080108643,0.2639999985694885
1750561034952493000,9.2594931640625,7.354050159454346,4.795050144195557,0.7090500593185425
1750561034962097700,9.26909765625,7.41795015335083,4.82295036315918,0.736050009727478
1750561034971702500,9.27870263671875,7.963950157165527,4.885950088500977,0.24495001137256622
1750561034981307100,9.28830712890625,8.782950401306152,4.998000144958496,-0.40800002217292786
1750561034990912000,9.297912109375,9.564000129699707,5.00100040435791,-0.9940500259399414
1750561035000516900,9.307516845703125,10.00005054473877,4.9360504150390625,-1.2480000257492065
1750561035010121500,9.31712158203125,9.672000885009766,4.906949996948242,-1.0999500751495361
1750561035019726600,9.3267265625,8.862000465393066,4.902000427246094,-0.7840500473976135
1750561035029331200,9.336331298828124,7.9069504737854,4.906949996948242,-0.31005001068115234
1750561035038936000,9.34593603515625,7.129050254821777,4.966950416564941,0.13695000112056732
1750561035048540700,9.355540771484375,7.063950538635254,5.07705020904541,-0.07500000298023224
1750561035058145500,9.3651455078125,7.5960001945495605,5.221050262451172,-0.4819500148296356
1750561035067750400,9.37475048828125,8.443050384521484,5.182950019836426,-0.7909500598907471
1750561035077355300,9.384355224609376,9.063000679016113,5.074950218200684,-0.8989500403404236
1750561035086959900,9.3939599609375,9.403050422668457,5.082000255584717,-0.9370500445365906
1750561035096564700,9.403564697265624,9.324000358581543,5.10105037689209,-0.6450000405311584
1750561035106169300,9.41316943359375,8.87700080871582,5.070000171661377,-0.4030500054359436
1750561035115774200,9.422774169921874,8.404950141906738,5.149050235748291,-0.31005001068115234
1750561035125378800,9.43237890625,8.11305046081543,5.130000114440918,-0.3910500109195709
1750561035134983700,9.441983642578125,8.023950576782227,5.11305046081543,-0.45600003004074097
1750561035144588500,9.451588623046876,7.8349504470825195,5.119950294494629,-0.527999997138977
1750561035154193200,9.461193115234375,7.837050437927246,5.137050151824951,-0.5419500470161438
1750561035163798300,9.47079833984375,7.954950332641602,5.163000106811523,-0.5299500226974487
1750561035173403000,9.48040283203125,8.206049919128418,5.161050319671631,-0.46800002455711365
1750561035183007700,9.4900078125,8.452950477600098,5.127000331878662,-0.42705002427101135
1750561035192612400,9.4996123046875,8.944050788879395,5.15595006942749,-0.2740500271320343
1750561035202217200,9.50921728515625,9.364950180053711,5.08905029296875,-0.003000000026077032
1750561035211821800,9.51882177734375,9.451050758361816,5.038950443267822,-0.07695000618696213
1750561035221427000,9.528427001953125,8.958000183105469,5.046000003814697,-0.27105000615119934
1750561035231031600,9.538031494140625,8.280000686645508,4.986000061035156,-0.3340500295162201
1750561035240636400,9.547636474609375,7.750950336456299,5.026950359344482,-0.1469999998807907
1750561035250241000,9.557240966796876,7.390050411224365,5.1060004234313965,0.022050000727176666
1750561035259846000,9.566845947265625,7.468950271606445,5.2260003089904785,0.14205001294612885
1750561035269450800,9.57645068359375,7.82295036315918,5.190000057220459,0.09195000678300858
1750561035279055400,9.586055419921875,8.304000854492188,5.20395040512085,0.004950000438839197
1750561035288660500,9.595660400390624,8.725950241088867,5.19195032119751,-0.00795000046491623
1750561035298265000,9.60526513671875,8.982000350952148,5.137050151824951,0.040950000286102295
1750561035307869700,9.61486962890625,9.042000770568848,5.086950302124023,-0.00795000046491623
1750561035317474600,9.624474609375,8.850000381469727,5.086950302124023,-0.13695000112056732
1750561035327079200,9.6340791015625,8.653950691223145,5.062950134277344,-0.13305000960826874
1750561035336684000,9.64368408203125,8.52495002746582,5.0560503005981445,-0.05595000088214874
1750561035346289000,9.653288818359375,8.497950553894043,5.020050048828125,0.07200000435113907
1750561035355893500,9.6628935546875,8.544000625610352,5.041050434112549,0.13005000352859497
1750561035365498600,9.67249853515625,8.593950271606445,5.032050132751465,0.10095000267028809
1750561035375103200,9.682103271484374,8.521950721740723,5.008050441741943,-0.003000000026077032
1750561035384707800,9.691707763671875,8.35200023651123,5.005050182342529,-0.037050001323223114
1750561035394312700,9.701312744140624,8.236949920654297,5.032050132751465,-0.1469999998807907
1750561035403917600,9.71091748046875,8.320950508117676,5.046000003814697,-0.19005000591278076
1750561035413522200,9.720522216796875,8.34000015258789,4.986000061035156,-0.022050000727176666
1750561035423127300,9.730127197265626,8.28795051574707,4.969050407409668,0.09195000678300858
1750561035432732200,9.739732177734375,8.35004997253418,5.06505012512207,0.06495000422000885
1750561035442336800,9.749336669921876,8.37600040435791,5.050950050354004,-0.027000000700354576
1750561035451941400,9.75894140625,8.506050109863281,4.990950107574463,-0.10095000267028809
1750561035461546200,9.768546142578124,8.544000625610352,5.002950191497803,-0.07005000114440918
1750561035471151000,9.778151123046875,8.440950393676758,5.005050182342529,-0.05100000277161598
1750561035480756000,9.787755859375,8.308950424194336,4.972050189971924,0.031950000673532486
1750561035490360600,9.797360595703125,8.211000442504883,4.98105001449585,-0.015000000596046448
1750561035499965400,9.80696533203125,8.256000518798828,5.014950275421143,-0.0580500029027462
1750561035509570000,9.816570068359376,8.344950675964355,5.014950275421143,-0.17595000565052032
1750561035519175000,9.8261748046875,8.494050025939941,5.026950359344482,-0.325950026512146
1750561035528779800,9.83577978515625,8.640000343322754,5.062950134277344,-0.37005001306533813
1750561035538384600,9.845384521484375,8.697000503540039,5.044050216674805,-0.26205000281333923
1750561035547989200,9.8549892578125,8.628000259399414,5.020050048828125,-0.19200000166893005
1750561035557594000,9.864593994140625,8.51294994354248,5.041050434112549,-0.09405000507831573
1750561035567199000,9.874198974609374,8.223000526428223,5.047950267791748,-0.07005000114440918
1750561035576803600,9.883803466796875,7.950000286102295,5.104050159454346,-0.10395000129938126
1750561035586408400,9.893408447265625,7.794000148773193,5.142000198364258,-0.13695000112056732
1750561035596013000,9.903012939453125,7.939950466156006,5.151000022888184,-0.18000000715255737
1750561035605618000,9.912617919921875,8.32395076751709,5.182950019836426,-0.25005000829696655
1750561035615222800,9.922222900390626,8.697000503540039,5.11305046081543,-0.2350500077009201
1750561035624827400,9.931827392578125,8.94795036315918,5.151000022888184,-0.26205000281333923
1750561035634432500,9.9414326171875,8.914950370788574,5.151000022888184,-0.10395000129938126
1750561035644037000,9.951037109375,8.716050148010254,5.107950210571289,0.17805001139640808
1750561035653641700,9.960641845703124,8.520000457763672,5.118000030517578,0.20400001108646393
1750561035663246600,9.97024658203125,8.368950843811035,5.086950302124023,0.17805001139640808
1750561035672851500,9.9798515625,8.347050666809082,5.115000247955322,-0.05595000088214874
1750561035682456000,9.9894560546875,8.304000854492188,5.059950351715088,-0.15600000321865082
1750561035692060700,9.999060791015625,8.380949974060059,5.032050132751465,-0.2950500249862671
1750561035701665500,10.00866552734375,8.58495044708252,5.014950275421143,-0.36000001430511475
1750561035711270400,10.0182705078125,8.57295036315918,4.98900032043457,-0.22605000436306
1750561035720875300,10.027875244140626,8.343000411987305,4.945050239562988,-0.05400000140070915
1750561035730479900,10.03747998046875,8.142000198364258,4.966950416564941,0.040950000286102295
1750561035740084700,10.047084716796874,7.945050239562988,4.909950256347656,0.13199999928474426
1750561035749689300,10.056689453125,8.031000137329102,4.921950340270996,0.24000000953674316
1750561035759294200,10.066294189453124,8.32395076751709,4.984050273895264,0.09405000507831573
1750561035768899000,10.075899169921875,8.869050025939941,4.9930500984191895,-0.17100000381469727
1750561035778504000,10.08550390625,9.207000732421875,5.008050441741943,-0.42900002002716064
1750561035788108500,10.095108642578126,9.166050910949707,4.948050022125244,-0.47505003213882446
1750561035797713400,10.10471337890625,8.683050155639648,4.954950332641602,-0.3049500286579132
1750561035807318300,10.114318359375,8.138999938964844,4.942950248718262,-0.08505000174045563
1750561035816923000,10.1239228515625,7.818000316619873,4.945050239562988,0.1270500123500824
1750561035826527500,10.133527587890624,7.741950511932373,4.984050273895264,0.15600000321865082
1750561035836132400,10.14313232421875,7.881000518798828,5.014950275421143,0.07695000618696213
1750561035845737200,10.1527373046875,8.118000030517578,5.026950359344482,-0.04905000329017639
1750561035855342000,10.162342041015625,8.296950340270996,5.070000171661377,-0.0799500048160553
1750561035864946700,10.17194677734375,8.32395076751709,5.074950218200684,-0.07304999977350235
1750561035874551600,10.181551513671875,8.326050758361816,5.107950210571289,-0.13695000112056732
1750561035884156400,10.191156494140625,8.398050308227539,5.16795015335083,-0.16095000505447388
1750561035893761000,10.200760986328126,8.515049934387207,5.142000198364258,-0.15405000746250153
1750561035903366000,10.210365966796875,8.464950561523438,5.1060004234313965,-0.027000000700354576
1750561035912970500,10.219970458984376,8.302050590515137,5.095950126647949,0.08700000494718552
1750561035922575600,10.22957568359375,8.12505054473877,5.137050151824951,0.09600000083446503
1750561035932180200,10.23918017578125,8.086950302124023,5.163000106811523,0.0799500048160553
1750561035941785000,10.24878515625,8.185050010681152,5.142000198364258,0.004950000438839197
1750561035951389700,10.2583896484375,8.53695011138916,5.199000358581543,-0.025050001218914986
1750561035960994600,10.26799462890625,8.752050399780273,5.142000198364258,-0.08895000070333481
1750561035970599200,10.27759912109375,8.901000022888184,5.149050235748291,-0.23100000619888306
1750561035980204000,10.2872041015625,8.857050895690918,5.161050319671631,-0.2950500249862671
1750561035989809000,10.296808837890625,8.604000091552734,5.07705020904541,0.016950000077486038
1750561035999413500,10.30641357421875,8.272950172424316,5.008050441741943,0.2639999985694885
1750561036009018400,10.316018310546875,8.155950546264648,4.966950416564941,0.30900001525878906
1750561036018623200,10.325623291015624,8.170050621032715,4.969050407409668,0.23295001685619354
1750561036028228000,10.33522802734375,8.326050758361816,4.986000061035156,0.13005000352859497
1750561036037832700,10.344832763671874,8.383049964904785,4.972050189971924,0.00795000046491623
1750561036047437300,10.354437255859375,8.271000862121582,4.984050273895264,-0.18495000898838043
1750561036057042200,10.364042236328125,8.158050537109375,5.008050441741943,-0.2569500207901001
1750561036066646800,10.373646728515626,8.233050346374512,5.029050350189209,-0.20205001533031464
1750561036076251600,10.383251708984375,8.410050392150879,5.0560503005981445,-0.05595000088214874
1750561036085856500,10.3928564453125,8.563050270080566,5.0530500411987305,0.07200000435113907
1750561036095461400,10.40246142578125,8.731050491333008,5.038950443267822,0.003000000026077032
1750561036105066200,10.412066162109374,8.83395004272461,5.023950099945068,-0.06795000284910202
1750561036114670800,10.4216708984375,8.82194995880127,5.022000312805176,-0.12105000764131546
1750561036124275700,10.431275634765624,8.431050300598145,4.990950107574463,-0.08505000174045563
1750561036133880300,10.44088037109375,7.962000370025635,4.965000152587891,0.07005000114440918
1750561036143485000,10.45048486328125,7.6870503425598145,5.046000003814697,0.22800001502037048
1750561036153089800,10.46008984375,7.557000160217285,5.023950099945068,0.4030500054359436
1750561036162695000,10.46969482421875,7.7440505027771,5.041050434112549,0.3240000009536743
1750561036172299500,10.479299560546876,7.978950500488281,5.082000255584717,0.028950002044439316
1750561036181904100,10.488904052734375,8.34000015258789,5.038950443267822,-0.25200000405311584
1750561036191509200,10.49850927734375,8.707050323486328,5.026950359344482,-0.5440500378608704
1750561036201113600,10.508113525390625,8.922000885009766,4.974000453948975,-0.625950038433075
1750561036210718500,10.517718505859374,8.818950653076172,4.878000259399414,-0.595050036907196
1750561036220323300,10.5273232421875,8.380949974060059,4.843050003051758,-0.45600003004074097
1750561036229928000,10.536927978515624,8.002950668334961,4.797000408172607,-0.35805001854896545
1750561036239533000,10.546532958984375,7.762950420379639,4.809000015258789,-0.2950500249862671
1750561036249137700,10.5561376953125,7.543050289154053,4.828050136566162,-0.3720000088214874
1750561036258742500,10.565742431640626,7.657950401306152,4.813950061798096,-0.5629500150680542
1750561036268347100,10.57534716796875,8.143950462341309,4.768050193786621,-0.7600500583648682
1750561036277952000,10.584951904296876,9.355050086975098,4.77495002746582,-1.0039499998092651
1750561036287556900,10.594556884765625,11.476950645446777,4.912050247192383,-0.32895001769065857
1750561036297161700,10.60416162109375,13.489950180053711,5.038950443267822,1.114050030708313
1750561036306766300,10.613766357421875,14.620950698852539,4.984050273895264,1.7890501022338867
1750561036316371200,10.62337109375,15.111001014709473,4.909950256347656,2.139000177383423
1750561036325976000,10.63297607421875,14.42400074005127,5.151000022888184,2.632050037384033
1750561036335580700,10.64258056640625,12.73905086517334,5.050950050354004,3.115950107574463
1750561036345185300,10.652185302734376,11.316000938415527,5.206050395965576,3.541950225830078
1750561036354790100,10.6617900390625,10.440000534057617,5.673000335693359,3.859950065612793
1750561036364395300,10.671395263671876,10.444950103759766,5.925000190734863,3.9100501537323
1750561036373999900,10.680999755859375,12.058950424194336,6.043950080871582,3.954000234603882
1750561036383604500,10.6906044921875,13.054950714111328,5.8720502853393555,3.9630002975463867
1750561036393209300,10.700209228515625,12.372000694274902,5.53695011138916,3.4480502605438232
1750561036402814200,10.709814208984374,10.498050689697266,5.379000186920166,3.100950241088867
1750561036412418800,10.719418701171875,7.64400053024292,5.563050270080566,2.4160501956939697
1750561036422023400,10.7290234375,5.343000411987305,5.889000415802002,1.897050142288208
1750561036431628300,10.738628173828126,3.1810500621795654,6.163950443267822,1.377000093460083
1750561036441233400,10.7482333984375,1.5090000629425049,6.088050365447998,1.6500000953674316
1750561036450838000,10.757838134765626,-0.18000000715255737,6.123000144958496,1.6789500713348389
1750561036460443000,10.76744287109375,-1.281000018119812,6.444000244140625,1.4040000438690186
1750561036470047500,10.777047607421874,-1.590000033378601,6.736050128936768,1.0969500541687012
1750561036479652400,10.78665234375,-1.9009500741958618,6.853950500488281,-0.40995001792907715
1750561036489257000,10.796257080078124,-1.9230000972747803,6.564000129699707,-2.5699501037597656
1750561036498861600,10.805861572265625,-2.1979501247406006,6.12600040435791,-4.141050338745117
1750561036508466700,10.815466796875,-2.236950159072876,5.779050350189209,-4.792050361633301
1750561036518071300,10.8250712890625,-1.6380001306533813,5.283000469207764,-3.6949501037597656
1750561036527676200,10.83467626953125,-0.9220500588417053,4.864050388336182,-2.3899500370025635
1750561036537280800,10.84428076171875,-0.2850000262260437,4.795050144195557,-2.6610000133514404
1750561036546885600,10.8538857421875,0.8629500269889832,4.567049980163574,-3.1710002422332764
1750561036556490500,10.863490478515626,2.584050178527832,4.39995002746582,-4.7820000648498535
1750561036566095400,10.873095458984375,3.8149502277374268,3.949050188064575,-6.058050155639648
1750561036575700000,10.882699951171874,4.681950092315674,3.0709500312805176,-6.339000225067139
1750561036585304600,10.8923046875,4.797000408172607,2.530050039291382,-6.166050434112549
1750561036594909700,10.90190966796875,4.009050369262695,2.556000232696533,-5.697000503540039
1750561036604514300,10.911514404296875,2.7300000190734863,2.688000202178955,-5.359050273895264
1750561036614119200,10.921119140625,1.8780001401901245,2.6569502353668213,-5.290050029754639
1750561036623723800,10.930723876953126,2.02905011177063,2.356950044631958,-4.33905029296875
1750561036633328600,10.94032861328125,3.8650500774383545,1.9810501337051392,-3.6190502643585205
1750561036642933500,10.94993359375,6.94005012512207,1.6560001373291016,-3.1900501251220703
1750561036652538000,10.9595380859375,11.580000877380371,1.540950059890747,-2.7810001373291016
1750561036662143000,10.96914306640625,17.167951583862305,2.2110002040863037,-2.1820499897003174
1750561036671747800,10.978747802734375,21.459001541137695,3.0229501724243164,-1.855950117111206
1750561036681352400,10.9883525390625,23.257051467895508,2.9890501499176025,-1.519050121307373
1750561036690957300,10.997957275390625,22.773000717163086,3.076050043106079,-2.338050127029419
1750561036700562000,11.00756201171875,20.367000579833984,2.9850001335144043,-1.7179501056671143
1750561036710166800,11.017166748046876,16.488000869750977,2.278050184249878,1.759950041770935
1750561036719771600,11.026771728515625,12.540000915527344,1.6320000886917114,4.642950057983398
1750561036729376500,11.03637646484375,10.593000411987305,1.8259501457214355,6.871950149536133
1750561036738981400,11.0459814453125,9.817950248718262,2.496000051498413,7.669050216674805
1750561036748586000,11.0555859375,11.635050773620605,3.106950044631958,6.750000476837158
1750561036758190600,11.065190673828125,14.842950820922852,3.604950189590454,5.2420501708984375
1750561036767795200,11.074795166015624,17.227951049804688,3.961050271987915,3.580050230026245
1750561036777400000,11.084400146484375,17.33595085144043,4.159950256347656,2.5360500812530518
1750561036787005000,11.0940048828125,15.219000816345215,4.263000011444092,2.199000120162964
1750561036796609800,11.10360986328125,12.054000854492188,4.231950283050537,2.1000001430511475
1750561036806214400,11.11321435546875,8.896050453186035,4.194000244140625,2.5789501667022705
1750561036815819300,11.1228193359375,6.360000133514404,4.171950340270996,3.4840502738952637
1750561036825424100,11.132424072265625,4.644000053405762,4.375950336456299,4.344000339508057
1750561036835028700,11.14202880859375,3.894000291824341,4.73205041885376,4.249950408935547
1750561036844633600,11.151633544921875,4.519050121307373,4.986000061035156,3.082050085067749
1750561036854238500,11.161238525390624,5.841000080108643,5.008050441741943,1.3680000305175781
1750561036863843000,11.170843017578125,6.95205020904541,4.909950256347656,0.12495000660419464
1750561036873448000,11.180447998046875,7.371000289916992,4.864050388336182,-0.5629500150680542
1750561036883052500,11.190052490234375,7.123950481414795,4.768050193786621,-0.6210000514984131
1750561036892657400,11.199657470703125,6.580050468444824,4.63200044631958,-0.1469999998807907
1750561036902262300,11.20926220703125,6.066000461578369,4.522050380706787,0.40005001425743103
1750561036911867100,11.2188671875,5.617950439453125,4.510050296783447,0.817050039768219
1750561036921471700,11.2284716796875,5.44605016708374,4.522050380706787,1.224000096321106
1750561036931076400,11.238076416015625,5.503050327301025,4.6369500160217285,1.075950026512146
1750561036940681200,11.24768115234375,6.150000095367432,4.729950428009033,0.4630500078201294
1750561036950286000,11.2572861328125,6.877050399780273,4.8070502281188965,-0.25200000405311584
1750561036959891000,11.266890869140624,7.561950206756592,4.843050003051758,-0.8770500421524048
1750561036969495600,11.27649560546875,8.062950134277344,4.88100004196167,-1.057050108909607
1750561036979100400,11.286100341796875,8.0149507522583,4.888050079345703,-0.44895002245903015
1750561036988705000,11.295705078125,7.741950511932373,4.885950088500977,0.09195000678300858
1750561036998310000,11.305309814453125,7.6870503425598145,4.948050022125244,0.3930000066757202
1750561037007914500,11.31491455078125,7.9069504737854,4.930950164794922,0.4720500111579895
1750561037017519400,11.324519287109375,8.167950630187988,4.953000068664551,0.36000001430511475
1750561037027124200,11.334124267578124,8.419050216674805,5.050950050354004,0.15105000138282776
1750561037036728800,11.343728759765625,8.569950103759766,5.041050434112549,0.036000002175569534
1750561037046333700,11.353333740234374,8.608050346374512,5.110950469970703,0.04605000093579292
1750561037055938600,11.3629384765625,8.668050765991211,5.161050319671631,0.013050000183284283
1750561037065543200,11.372543212890625,8.788050651550293,5.197050094604492,0.039000000804662704
1750561037075148000,11.38214794921875,8.769000053405762,5.211000442504883,0.0010500000789761543
1750561037084752600,11.391752685546875,8.812050819396973,5.154000282287598,-0.0970500037074089
1750561037094357500,11.401357421875,8.83395004272461,5.010000228881836,-0.17295001447200775
1750561037103962400,11.41096240234375,8.862000465393066,4.914000034332275,-0.286050021648407
1750561037113567200,11.420567138671874,8.731050491333008,4.965000152587891,-0.3550500273704529
1750561037123172000,11.430172119140625,8.69895076751709,4.9930500984191895,-0.27105000615119934
1750561037132776700,11.439776611328124,8.838000297546387,4.98900032043457,-0.025050001218914986
1750561037142381300,11.44938134765625,8.938950538635254,5.013000011444092,0.12300000339746475
1750561037151986200,11.458986083984374,9.027000427246094,5.020050048828125,-0.12105000764131546
1750561037161591000,11.468591064453125,8.938950538635254,5.044050216674805,-0.38895002007484436
1750561037171195600,11.478195556640625,8.635050773620605,5.029050350189209,-0.5059500336647034
1750561037180800500,11.487800537109376,8.315999984741211,4.972050189971924,-0.3769500255584717
1750561037190405400,11.4974052734375,8.09595012664795,4.938000202178955,-0.19200000166893005
1750561037200010000,11.507010009765626,8.08905029296875,4.926000118255615,-0.043950002640485764
1750561037209614800,11.51661474609375,8.151000022888184,4.957050323486328,0.036000002175569534
1750561037219219500,11.526219482421874,8.138999938964844,4.9770002365112305,-0.11100000888109207
1750561037228824300,11.53582421875,8.14905071258545,5.022000312805176,-0.2670000195503235
1750561037238429200,11.54542919921875,8.098050117492676,5.068050384521484,-0.364950031042099
1750561037248033800,11.55503369140625,8.0910005569458,5.010000228881836,-0.2950500249862671
1750561037257638700,11.564638671875,8.170050621032715,4.984050273895264,-0.22605000436306
1750561037267243500,11.574243408203126,8.53695011138916,4.88100004196167,0.18495000898838043
1750561037276848000,11.58384814453125,8.872050285339355,4.797000408172607,0.7279500365257263
1750561037286453000,11.593452880859376,9.063000679016113,4.809000015258789,0.999000072479248
1750561037296057600,11.6030576171875,8.97705078125,4.897950172424316,0.8719500303268433
1750561037305662500,11.612662353515624,8.57295036315918,4.984050273895264,0.4459500312805176
1750561037315267000,11.62226708984375,8.098050117492676,5.014950275421143,0.1080000028014183
1750561037324872000,11.631871826171874,7.749000549316406,5.026950359344482,-0.00795000046491623
1750561037334477000,11.64147705078125,7.675050258636475,5.092050075531006,0.027000000700354576
1750561037344081700,11.65108154296875,7.948050498962402,5.092050075531006,0.17505000531673431
1750561037353686500,11.6606865234375,8.488950729370117,5.059950351715088,0.31905001401901245
1750561037363291100,11.670291015625,9.004050254821777,4.98900032043457,0.47895002365112305
1750561037372895700,11.679895751953126,9.315000534057617,4.954950332641602,0.43905001878738403
1750561037382500600,11.68950048828125,9.360000610351562,4.9770002365112305,0.36195001006126404
1750561037392105500,11.69910546875,8.958000183105469,4.948050022125244,0.3330000042915344
1750561037401710300,11.70871044921875,8.515049934387207,4.909950256347656,0.20400001108646393
1750561037411315000,11.71831494140625,8.019000053405762,5.020050048828125,0.13695000112056732
1750561037420919800,11.727919921875,7.869000434875488,5.095950126647949,0.19200000166893005
1750561037430524400,11.7375244140625,7.975950241088867,5.1469502449035645,0.22995001077651978
1750561037440129300,11.74712939453125,8.142000198364258,5.158950328826904,0.20595000684261322
1750561037449734000,11.75673388671875,8.470050811767578,5.154000282287598,0.019950000569224358
1750561037459338800,11.7663388671875,8.794950485229492,5.125050067901611,0.08400000631809235
1750561037468943600,11.775943603515625,8.938950538635254,5.034000396728516,0.0799500048160553
1750561037478548500,11.785548583984376,8.805000305175781,4.948050022125244,0.13695000112056732
1750561037488153300,11.7951533203125,8.472000122070312,4.942950248718262,0.12495000660419464
1750561037497758000,11.804758056640624,8.197050094604492,4.960050106048584,0.17805001139640808
1750561037507362600,11.814362548828125,8.019000053405762,4.998000144958496,0.208950012922287
1750561037516967400,11.823967529296874,7.921050548553467,5.017050266265869,0.22995001077651978
1750561037526572300,11.833572265625,7.951950550079346,5.00100040435791,0.24705001711845398
1750561037536177200,11.84317724609375,8.158050537109375,5.023950099945068,0.2639999985694885
1750561037545781800,11.85278173828125,8.460000038146973,4.974000453948975,0.34095001220703125
1750561037555386600,11.86238671875,8.776050567626953,4.938000202178955,0.19905000925064087
1750561037564991500,11.871991455078126,8.908050537109375,4.98900032043457,-0.010050000622868538
1750561037574596000,11.88159619140625,8.872050285339355,4.98900032043457,-0.17100000381469727
1750561037584201000,11.891200927734374,8.707050323486328,4.942950248718262,-0.15405000746250153
1750561037593805800,11.900805908203125,8.51294994354248,4.941000461578369,-0.11100000888109207
1750561037603410400,11.910410400390624,8.355000495910645,4.984050273895264,-0.030000001192092896
1750561037613015300,11.920015380859375,8.179950714111328,4.950000286102295,0.09195000678300858
1750561037622620200,11.9296201171875,7.990950584411621,4.930950164794922,0.28095000982284546
1750561037632224800,11.939224853515626,7.978950500488281,5.020050048828125,0.453000009059906
1750561037641829400,11.948829345703125,8.070000648498535,5.010000228881836,0.4030500054359436
1750561037651434200,11.958434326171876,8.42400074005127,5.029050350189209,0.09195000678300858
1750561037661039000,11.9680390625,8.785950660705566,5.035950183868408,-0.1680000126361847
1750561037670643700,11.977643798828124,8.968050003051758,4.966950416564941,-0.2350500077009201
1750561037680248600,11.98724853515625,8.914950370788574,4.98105001449585,-0.12105000764131546
1750561037689853400,11.996853515625,8.629950523376465,4.962000370025635,0.08400000631809235
1750561037699458000,12.0064580078125,8.292000770568848,4.942950248718262,0.32100000977516174
1750561037709063000,12.01606298828125,8.07194995880127,4.990950107574463,0.5440500378608704
1750561037718667500,12.02566748046875,8.006999969482422,5.020050048828125,0.4990500211715698
1750561037728272600,12.035272705078125,8.182050704956055,5.041050434112549,0.283050000667572
1750561037737877500,12.04487744140625,8.35004997253418,5.046000003814697,0.1969500035047531
1750561037747482000,12.054482177734375,8.482049942016602,5.013000011444092,0.15600000321865082
1750561037757087000,12.0640869140625,8.709000587463379,5.062950134277344,0.05595000088214874
1750561037766691600,12.073691650390625,8.913000106811523,5.029050350189209,-0.04200000315904617
1750561037776296200,12.083296142578124,8.974950790405273,4.969050407409668,-0.11295000463724136
1750561037785901000,12.092901123046875,8.67495059967041,4.948050022125244,-0.013050000183284283
1750561037795505700,12.102505615234374,8.206049919128418,4.942950248718262,0.1489500105381012
1750561037805110500,12.112110595703125,7.930950164794922,4.918950080871582,0.3169500231742859
1750561037814715400,12.12171533203125,7.690950393676758,4.864050388336182,0.5989500284194946
1750561037824320300,12.1313203125,7.945050239562988,4.924050331115723,0.5899500250816345
1750561037833925000,12.140925048828125,8.416950225830078,5.010000228881836,0.30000001192092896
1750561037843529700,12.15052978515625,8.92905044555664,4.978950023651123,0.11505000293254852
1750561037853134300,12.16013427734375,9.26205062866211,5.041050434112549,-0.2070000171661377
1750561037862739200,12.1697392578125,9.391050338745117,5.06505012512207,-0.364950031042099
1750561037872343800,12.17934375,8.97195053100586,5.050950050354004,-0.40095001459121704
1750561037881948700,12.18894873046875,8.437950134277344,5.029050350189209,-0.21405000984668732
1750561037891553500,12.198553466796875,7.978950500488281,4.9930500984191895,0.16095000505447388
1750561037901158400,12.208158447265625,7.72005033493042,4.924050331115723,0.41700002551078796
1750561037910763000,12.217762939453126,7.723050594329834,4.942950248718262,0.5509500503540039
1750561037920367900,12.227367919921875,7.909050464630127,4.978950023651123,0.4909500181674957
1750561037929972500,12.236972412109376,8.134050369262695,4.942950248718262,0.3240000009536743
1750561037939577300,12.246577392578125,8.211000442504883,4.942950248718262,0.07200000435113907
1750561037949182000,12.256181884765626,8.428950309753418,4.9770002365112305,-0.2160000056028366
1750561037958786800,12.265786865234375,8.628000259399414,4.954950332641602,-0.46800002455711365
1750561037968391400,12.275391357421874,8.788050651550293,4.974000453948975,-0.42705002427101135
1750561037977996300,12.284996337890625,8.701950073242188,4.941000461578369,-0.27105000615119934
1750561037987601200,12.29460107421875,8.704050064086914,4.869000434875488,-0.0970500037074089
1750561037997205800,12.304205810546875,8.71095085144043,4.81095027923584,-0.031950000673532486
1750561038006810600,12.313810546875,8.551050186157227,4.73205041885376,0.13199999928474426
1750561038016415500,12.32341552734375,8.367000579833984,4.7989501953125,0.12000000476837158
1750561038026020000,12.33302001953125,8.212950706481934,4.8949503898620605,-0.04200000315904617
1750561038035625000,12.342625,8.211000442504883,4.873950004577637,-0.04905000329017639
1750561038045229600,12.3522294921875,8.368950843811035,4.9960503578186035,-0.13005000352859497
1750561038054834400,12.36183447265625,8.689949989318848,4.972050189971924,-0.0990000069141388
1750561038064439600,12.371439453125,9.025050163269043,4.978950023651123,-0.018000001087784767
1750561038074044200,12.381044189453124,9.187950134277344,4.969050407409668,0.034050002694129944
1750561038083649000,12.39064892578125,9.022950172424316,4.902000427246094,0.18000000715255737
1750561038093253600,12.400253662109375,8.68695068359375,4.89300012588501,0.19200000166893005
1750561038102858500,12.4098583984375,8.43600082397461,4.953000068664551,0.08205000311136246
