time,seconds_elapsed,z,y,x
1750561025760710400,0.06771044921875,0.3910120129585266,0.024274000898003578,-0.16019800305366516
1750561025770315000,0.07731494140625,0.5187879800796509,-0.28022700548171997,0.5582579970359802
1750561025779920000,0.086919921875,0.6948450207710266,-0.49697598814964294,0.8164129853248596
1750561025789524700,0.096524658203125,0.7411710023880005,-0.4361810088157654,0.5393570065498352
1750561025799129300,0.10612939453125,0.6553990244865417,-0.20583200454711914,-0.1305440068244934
1750561025808734200,0.115734130859375,0.77401202917099,-0.5095149874687195,-0.3356480002403259
1750561025818339000,0.125339111328125,0.5410540103912354,-1.466892957687378,-0.4351530075073242
1750561025827944000,0.13494384765625,0.6204969882965088,-0.8342660069465637,-0.7240909934043884
1750561025837548500,0.144548583984375,0.9083430171012878,0.1411769986152649,-1.0280630588531494
1750561025847153400,0.1541533203125,0.5177029967308044,0.6322519779205322,-1.1433449983596802
1750561025856758300,0.16375830078125,-0.17916999757289886,0.677245020866394,-1.0145100355148315
1750561025866363100,0.173363037109375,-0.46974799036979675,0.5266990065574646,-0.641635000705719
1750561025875967700,0.1829677734375,-0.3297260105609894,0.3319770097732544,-0.24814899265766144
1750561025885572600,0.192572509765625,-0.08868200331926346,0.17664499580860138,0.04583499953150749
1750561025895177500,0.202177490234375,0.4071879982948303,0.0552389994263649,0.2322620004415512
1750561025904782000,0.211781982421875,0.6704229712486267,0.05851199850440025,0.10385499894618988
1750561025914387200,0.22138720703125,0.9363579750061035,0.12634000182151794,0.01889600045979023
1750561025923992000,0.230991943359375,0.9723719954490662,0.247966006398201,-0.02985900081694126
1750561025933596700,0.2405966796875,0.729843020439148,0.21476499736309052,-0.19173100590705872
1750561025943201300,0.250201171875,0.3314509987831116,0.13616499304771423,-0.34636399149894714
1750561025952806100,0.25980615234375,0.030364999547600746,0.13270699977874756,-0.4318299889564514
1750561025962411000,0.269410888671875,-0.19256499409675598,0.15738700330257416,-0.4998300075531006
1750561025972015600,0.279015625,-0.2326900064945221,0.16460399329662323,-0.4928880035877228
1750561025981620500,0.288620361328125,-0.2916199862957001,0.13366200029850006,-0.35670900344848633
1750561025991225300,0.298225341796875,-0.338252991437912,0.01666400022804737,-0.04698500037193298
1750561026000830200,0.307830322265625,-0.32389798760414124,-0.048471998423337936,0.3878139853477478
1750561026010435000,0.31743505859375,-0.20670099556446075,-0.08570899814367294,0.674223005771637
1750561026020039700,0.327039794921875,0.26231899857521057,-0.19719800353050232,0.8997960090637207
1750561026029644500,0.33664453125,0.5283480286598206,-0.2716270089149475,0.6674820184707642
1750561026039249200,0.346249267578125,0.9891939759254456,-0.2102620005607605,0.2760170102119446
1750561026048854000,0.35585400390625,1.0859639644622803,-0.04483700171113014,-0.1979849934577942
1750561026058459000,0.365458984375,0.9558699727058411,0.02283499948680401,-0.42110899090766907
1750561026068063700,0.375063720703125,0.7230629920959473,0.10522200167179108,-0.40802401304244995
1750561026077668600,0.384668701171875,0.31398099660873413,0.14091600477695465,-0.1634960025548935
1750561026087273200,0.394273193359375,-0.07438000291585922,0.09473499655723572,0.10467000305652618
1750561026096878000,0.403878173828125,-0.371847003698349,-0.036247000098228455,0.3076440095901489
1750561026106483000,0.41348291015625,-0.44630399346351624,-0.06616400182247162,0.3375299870967865
1750561026116087600,0.423087646484375,-0.4980340003967285,0.003969999961555004,0.3177500069141388
1750561026125692700,0.432692626953125,-0.36897099018096924,0.0025480000767856836,0.23037299513816833
1750561026135297300,0.44229736328125,-0.09999799728393555,0.06225400045514107,0.08226100355386734
1750561026144902100,0.451902099609375,0.11176999658346176,0.10420600324869156,-0.00010399999882793054
1750561026154506800,0.4615068359375,0.11416999995708466,0.09427200257778168,-0.0870639979839325
1750561026164111600,0.471111572265625,0.1406490057706833,0.14097699522972107,-0.14042100310325623
1750561026173716500,0.480716552734375,0.24345800280570984,0.11141599714756012,-0.12315099686384201
1750561026183321300,0.4903212890625,0.31947898864746094,-0.005646999925374985,0.006302000023424625
1750561026192926000,0.499926025390625,0.1908790022134781,-0.11993499845266342,0.10907900333404541
1750561026202530800,0.50953076171875,-0.06655599921941757,-0.22194500267505646,0.0925619974732399
1750561026212135700,0.5191357421875,-0.31316301226615906,-0.1335259974002838,-0.08427499979734421
1750561026221740500,0.528740478515625,-0.508882999420166,0.002469999948516488,-0.0815650001168251
1750561026231345200,0.53834521484375,-0.6323069930076599,0.03657300025224686,0.09105999767780304
1750561026240950000,0.547949951171875,-0.6285629868507385,-0.043108999729156494,0.17299799621105194
1750561026250554600,0.5575546875,-0.4235379993915558,-0.064860999584198,0.0819540023803711
1750561026260159500,0.567159423828125,-0.04703199863433838,-0.027264000847935677,-0.10205499827861786
1750561026269764400,0.576764404296875,0.30574899911880493,-0.09452199935913086,-0.3447349965572357
1750561026279369000,0.586368896484375,0.5160099864006042,-0.03907899931073189,-0.5453550219535828
1750561026288974000,0.59597412109375,0.5275139808654785,0.14597100019454956,-0.46029600501060486
1750561026298578700,0.60557861328125,0.1653439998626709,0.12859100103378296,-0.10829900205135345
1750561026308183600,0.61518359375,-0.13266600668430328,0.02289699949324131,0.2533529996871948
1750561026317788200,0.6247880859375,-0.22599700093269348,0.03727399930357933,0.3886440098285675
1750561026327393000,0.63439306640625,-0.2112800031900406,0.023326000198721886,0.3960379958152771
1750561026336997600,0.64399755859375,-0.04028400033712387,0.015352999791502953,0.1833219975233078
1750561026346602500,0.6536025390625,0.06769999861717224,0.033695001155138016,-0.13746100664138794
1750561026356207400,0.663207275390625,0.1742829978466034,0.006320000160485506,-0.2691330015659332
1750561026365812000,0.67281201171875,0.12727700173854828,-0.01858999952673912,-0.15352100133895874
1750561026375417000,0.6824169921875,-0.06866800040006638,-0.003857000032439828,-0.0032399999909102917
1750561026385021700,0.692021728515625,-0.45127400755882263,-0.03926600143313408,0.202224999666214
1750561026394626600,0.70162646484375,-0.7232829928398132,-0.03568600118160248,0.2896119952201843
1750561026404231200,0.711231201171875,-0.6701279878616333,0.000493000028654933,0.25954100489616394
1750561026413836000,0.7208359375,-0.40870600938796997,-0.003959000110626221,0.22800199687480927
1750561026423441000,0.73044091796875,-0.09825100004673004,-0.033188000321388245,0.08998999744653702
1750561026433045800,0.740045654296875,0.10110200196504593,-0.06492900103330612,0.08395300060510635
1750561026442650600,0.749650634765625,0.13117800652980804,-0.03535199910402298,0.05013300105929375
1750561026452255200,0.759255126953125,-0.02853200025856495,-0.0018609999679028988,0.028845999389886856
1750561026461860000,0.768860107421875,-0.19140900671482086,0.054857999086380005,-0.012124000117182732
1750561026471465000,0.77846484375,-0.31301701068878174,0.04093300178647041,-0.003163000103086233
1750561026481069600,0.788069580078125,-0.1251869946718216,0.039482999593019485,-0.04906800016760826
1750561026490674400,0.79767431640625,0.2303909957408905,-0.002942000050097704,-0.061615001410245895
1750561026500279300,0.807279296875,0.3874010145664215,-0.13230299949645996,-0.07699400186538696
1750561026509884200,0.81688427734375,0.2230059951543808,-0.10903099924325943,0.14139500260353088
1750561026519488800,0.82648876953125,-0.0203079991042614,0.021750999614596367,0.26189300417900085
1750561026529093600,0.83609375,-0.1003739982843399,0.11733900010585785,0.25290700793266296
1750561026538698500,0.845698486328125,0.11873199790716171,0.13060900568962097,0.14419999718666077
1750561026548303000,0.85530322265625,0.46974799036979675,0.11024700105190277,-0.07534100115299225
1750561026557908000,0.864907958984375,0.7427690029144287,0.06664499640464783,-0.1919180005788803
1750561026567512800,0.874512939453125,0.736873984336853,0.045549001544713974,-0.1474590003490448
1750561026577117700,0.88411767578125,0.4366759955883026,0.02950100041925907,-0.12050499767065048
1750561026586722300,0.893722412109375,0.02649500034749508,0.020232999697327614,-0.10362300276756287
1750561026596327200,0.9033271484375,-0.25867700576782227,0.07302799820899963,-0.07179900258779526
1750561026605931800,0.912931884765625,-0.13865099847316742,0.08508499711751938,-0.06736999750137329
1750561026615536600,0.92253662109375,0.1477549970149994,-0.044828999787569046,-0.010339000262320042
1750561026625141500,0.9321416015625,0.3767879903316498,-0.020344000309705734,-0.033897001296281815
1750561026634746400,0.941746337890625,0.34178900718688965,0.020452000200748444,-0.04602000117301941
1750561026644351200,0.951351318359375,-0.020370999351143837,0.024049999192357063,-0.048934001475572586
1750561026653956000,0.9609560546875,-0.4644469916820526,-0.029903000220656395,-0.09850499778985977
1750561026663560700,0.970560791015625,-0.8241490125656128,-0.04314899817109108,-0.1340080052614212
1750561026673165600,0.98016552734375,-0.972590982913971,-0.03823300078511238,-0.22882899641990662
1750561026682770400,0.9897705078125,-0.8039810061454773,-0.09184099733829498,-0.23046499490737915
1750561026692375300,0.999375244140625,-0.5227789878845215,-0.13544200360774994,-0.18273399770259857
1750561026701980000,1.00897998046875,-0.2736639976501465,-0.20440199971199036,-0.10657600313425064
1750561026711584800,1.018584716796875,-0.10701099783182144,-0.2135459929704666,-0.02435299940407276
1750561026721189400,1.028189453125,-0.11989299952983856,-0.1605609953403473,0.14938700199127197
1750561026730794200,1.037794189453125,-0.1372770071029663,-0.13182400166988373,0.2381329983472824
1750561026740398800,1.04739892578125,-0.1614609956741333,-0.09383700042963028,0.31169798970222473
1750561026750003700,1.057003662109375,-0.011632000096142292,-0.0565899983048439,0.24111700057983398
1750561026759608800,1.06660888671875,0.20022200047969818,-0.03224699944257736,0.061434999108314514
1750561026769213400,1.07621337890625,0.424560010433197,-0.036014001816511154,0.025793999433517456
1750561026778818300,1.085818359375,0.503042995929718,0.0007980000227689743,-0.035523999482393265
1750561026788423200,1.095423095703125,0.45317599177360535,0.009612999856472015,0.03986800089478493
1750561026798027800,1.10502783203125,0.35053399205207825,0.036531999707221985,0.14023399353027344
1750561026807632600,1.114632568359375,0.298458993434906,0.012209000065922737,0.10819999873638153
1750561026817237500,1.124237548828125,0.24250799417495728,-0.0324149988591671,0.020406000316143036
1750561026826842400,1.13384228515625,0.18607500195503235,-0.007668000180274248,-0.06787700206041336
1750561026836447000,1.143447021484375,0.12937399744987488,0.009499999694526196,-0.1581439971923828
1750561026846051800,1.1530517578125,0.12975099682807922,0.07669900357723236,-0.22673499584197998
1750561026855656400,1.162656494140625,0.072052001953125,0.0936649963259697,-0.282137006521225
1750561026865261300,1.17226123046875,-0.016600999981164932,0.1025329977273941,-0.2588289976119995
1750561026874866200,1.1818662109375,-0.11802099645137787,0.10458499938249588,-0.1801760047674179
1750561026884471000,1.191470947265625,-0.11683700233697891,0.09515099972486496,-0.08032699674367905
1750561026894076000,1.201075927734375,-0.013976999558508396,0.08090800046920776,0.07718899846076965
1750561026903680800,1.2106806640625,0.09475699812173843,0.059498999267816544,0.1976339966058731
1750561026913285400,1.220285400390625,0.1826390027999878,0.0738300010561943,0.15927700698375702
1750561026922890000,1.229889892578125,0.23210300505161285,0.08110900223255157,-0.006390000227838755
1750561026932494800,1.239494873046875,0.047919001430273056,0.0696140006184578,-0.08655299991369247
1750561026942099700,1.249099609375,-0.18576499819755554,0.07725799828767776,-0.020419999957084656
1750561026951704600,1.25870458984375,-0.28301700949668884,0.08425699919462204,-0.006717999931424856
1750561026961309200,1.26830908203125,-0.17943499982357025,0.09471400082111359,0.02468400076031685
1750561026970914000,1.2779140625,0.07232599705457687,0.047784000635147095,0.1056549996137619
1750561026980519000,1.287518798828125,0.23664599657058716,-0.04633200168609619,0.1798350065946579
1750561026990123800,1.297123779296875,0.35149499773979187,-0.05452200025320053,0.12905600666999817
1750561026999728400,1.306728271484375,0.33213698863983154,-0.024945000186562538,0.0012120000319555402
1750561027009333200,1.316333251953125,0.2563819885253906,-0.01906299963593483,-0.09127700328826904
1750561027018938000,1.325938232421875,0.13853999972343445,-0.05353600159287453,-0.06579899787902832
1750561027028542700,1.335542724609375,-0.06691800057888031,-0.09714099764823914,0.07477299869060516
1750561027038147800,1.34514794921875,-0.16610300540924072,-0.06120600178837776,0.18750600516796112
1750561027047752400,1.35475244140625,-0.19930100440979004,-0.015015999786555767,0.19482700526714325
1750561027057357300,1.364357421875,-0.1322299987077713,0.03394300118088722,0.19288399815559387
1750561027066962000,1.3739619140625,-0.1101519986987114,0.023067999631166458,0.1141280010342598
1750561027076566800,1.38356689453125,-0.12728199362754822,-0.013059999793767929,0.04546700045466423
1750561027086172000,1.393171875,-0.21994900703430176,0.04265499860048294,-0.03592899814248085
1750561027095776500,1.402776611328125,-0.1805579960346222,0.047533001750707626,-0.07912900298833847
1750561027105381000,1.412381103515625,-0.09425800293684006,0.016126999631524086,-0.06785199791193008
1750561027114986000,1.421986083984375,0.025738999247550964,-0.03783600032329559,0.10538200289011002
1750561027124590800,1.4315908203125,0.15476399660110474,-0.07582499831914902,0.1597680002450943
1750561027134195700,1.44119580078125,0.2735449969768524,-0.03627600148320198,0.09421300143003464
1750561027143800300,1.45080029296875,0.2835809886455536,-0.03923799842596054,0.049320001155138016
1750561027153405200,1.4604052734375,0.1343660056591034,-0.054076001048088074,0.02758299931883812
1750561027163010000,1.470010009765625,0.003898999886587262,-0.014936000108718872,-0.03644099831581116
1750561027172615000,1.479614990234375,-0.24747900664806366,0.023406000807881355,-0.10707300156354904
1750561027182219500,1.489219482421875,-0.40879198908805847,0.0542449988424778,-0.12148699909448624
1750561027191824400,1.498824462890625,-0.4721429944038391,0.06390500068664551,-0.046810999512672424
1750561027201429000,1.508428955078125,-0.31854599714279175,0.037994999438524246,0.03279099985957146
1750561027211033900,1.518033935546875,0.012028999626636505,0.03914799913764,0.05568299815058708
1750561027220638700,1.527638671875,0.25938600301742554,-0.010870999656617641,0.11401399970054626
1750561027230243300,1.537243408203125,0.45496100187301636,-0.034147001802921295,0.07026500254869461
1750561027239848400,1.546848388671875,0.5286759734153748,0.03735100105404854,-0.011389999650418758
1750561027249453000,1.556453125,0.3441379964351654,0.07507099956274033,-0.05647699907422066
1750561027259058000,1.566057861328125,0.0720679983496666,0.08514700084924698,-0.06775999814271927
1750561027268662500,1.57566259765625,-0.16203899681568146,0.14131000638008118,-0.0415709987282753
1750561027278267400,1.585267333984375,-0.3145099878311157,0.10551799833774567,0.031199999153614044
1750561027287872300,1.594872314453125,-0.36988601088523865,0.11197499930858612,0.1508149951696396
1750561027297476900,1.604476806640625,-0.18747299909591675,0.07164999842643738,0.03993000090122223
1750561027307082000,1.61408203125,0.06636399775743484,0.041057001799345016,-0.027910999953746796
1750561027316686600,1.6236865234375,0.1848360002040863,-0.05585800111293793,-0.06745599955320358
1750561027326291500,1.63329150390625,0.26326900720596313,-0.0691239982843399,-0.13414299488067627
1750561027335896000,1.64289599609375,0.20020200312137604,-0.04927799850702286,-0.1864749938249588
1750561027345501000,1.6525009765625,0.08708400279283524,-0.07343900203704834,-0.05184200033545494
1750561027355105500,1.66210546875,0.011357000097632408,-0.08507899940013885,0.01896199956536293
1750561027364710400,1.67171044921875,0.07661399990320206,-0.04605099931359291,0.012357000261545181
1750561027374315500,1.6813154296875,0.20243600010871887,-0.031147999688982964,-0.04236400127410889
1750561027383920000,1.690920166015625,0.16082100570201874,-0.08108499646186829,-0.018650000914931297
1750561027393525000,1.70052490234375,0.10565900057554245,-0.10335800051689148,-0.04540200158953667
1750561027403129600,1.710129638671875,-0.0013780000153928995,-0.04135200008749962,-0.14465999603271484
1750561027412734500,1.719734375,-0.09303200244903564,-0.06929600238800049,-0.14794999361038208
1750561027422339300,1.72933935546875,-0.17769299447536469,-0.11850500106811523,-0.07616200298070908
1750561027431944000,1.73894384765625,-0.22301700711250305,-0.06368999928236008,0.0407399982213974
1750561027441548800,1.748548828125,-0.19146999716758728,0.017146000638604164,0.10464800149202347
1750561027451153700,1.758153564453125,0.013559999875724316,0.028651999309659004,0.023785000666975975
1750561027460758500,1.767758544921875,0.24013899266719818,0.02259800024330616,-0.08576600253582001
1750561027470363100,1.777363037109375,0.38159099221229553,-0.0007890000124461949,-0.2284660041332245
1750561027479968300,1.78696826171875,0.3225249946117401,-0.016163000836968422,-0.2260349988937378
1750561027489572900,1.79657275390625,0.07823900133371353,-0.03522400185465813,-0.14037500321865082
1750561027499177700,1.806177734375,-0.33183300495147705,-0.025645999237895012,-0.01568800024688244
1750561027508782600,1.815782470703125,-0.6387500166893005,0.010053999722003937,0.09733700007200241
1750561027518387200,1.82538720703125,-0.6063359975814819,0.11379899829626083,0.14430999755859375
1750561027527992000,1.834991943359375,-0.2798460125923157,0.10871700197458267,0.05519799888134003
1750561027537597000,1.844596923828125,0.16802799701690674,0.07252500206232071,-0.019401999190449715
1750561027547201500,1.854201416015625,0.5407950282096863,0.04468299821019173,-0.12808099389076233
1750561027556806400,1.863806396484375,0.5999289751052856,0.02172599919140339,-0.12228500097990036
1750561027566411300,1.873411376953125,0.32405099272727966,0.010518000461161137,-0.0007600000244565308
1750561027576016100,1.88301611328125,0.01845400035381317,0.011761999689042568,0.17815899848937988
1750561027585620700,1.892620849609375,-0.08731299638748169,0.017928000539541245,0.21659700572490692
1750561027595225600,1.9022255859375,-0.05362800136208534,0.00020799999765586108,0.19473199546337128
1750561027604830200,1.911830322265625,0.13540799915790558,-0.025126999244093895,0.10551899671554565
1750561027614435000,1.92143505859375,0.16890299320220947,-0.05219800025224686,-0.0017099999822676182
1750561027624040000,1.9310400390625,0.08673600107431412,-0.06955800205469131,-0.07899799942970276
1750561027633644800,1.940644775390625,-0.041857000440359116,-0.008313000202178955,-0.16251200437545776
1750561027643249700,1.950249755859375,-0.16824600100517273,-0.012249999679625034,-0.12714600563049316
1750561027652854300,1.959854248046875,-0.20384399592876434,-0.030260000377893448,-0.020028000697493553
1750561027662459100,1.969459228515625,-0.09210199862718582,-0.072284996509552,0.12960100173950195
1750561027672064000,1.97906396484375,0.07585400342941284,-0.03279399871826172,0.09875400364398956
1750561027681668600,1.988668701171875,0.29164499044418335,0.005179000087082386,-0.0365930013358593
1750561027691273700,1.998273681640625,0.36903300881385803,0.04253299906849861,-0.09385500103235245
1750561027700878300,2.00787841796875,0.22523100674152374,0.01722100004553795,-0.062102001160383224
1750561027710483200,2.017483154296875,-0.01803000085055828,0.01030299998819828,-0.04233099892735481
1750561027720087800,2.027087890625,-0.28787899017333984,0.04195399954915047,0.028828000649809837
1750561027729692700,2.036692626953125,-0.4573279917240143,-0.0035359999164938927,0.14410500228405
1750561027739297500,2.046297607421875,-0.4607110023498535,0.008194000460207462,0.20606599748134613
1750561027748902400,2.05590234375,-0.28502699732780457,0.027032999321818352,0.17307700216770172
1750561027758507300,2.06550732421875,-0.02205199934542179,0.07311400026082993,0.06774900108575821
1750561027768111900,2.07511181640625,0.1898999959230423,0.023545000702142715,-0.04243899881839752
1750561027777716700,2.084716796875,0.17781199514865875,-0.03620599955320358,-0.13127699494361877
1750561027787321300,2.0943212890625,0.07801199704408646,-0.0069599999114871025,-0.18839800357818604
1750561027796926200,2.10392626953125,-0.017940999940037727,0.026744000613689423,-0.1660970002412796
1750561027806530800,2.11353076171875,-0.06993599981069565,-0.010087000206112862,0.020831000059843063
1750561027816136000,2.123135986328125,-0.06994999945163727,-0.024413999170064926,0.13024799525737762
1750561027825740800,2.13274072265625,-0.043389998376369476,0.025599999353289604,0.14460299909114838
1750561027835345400,2.142345458984375,-0.07648900151252747,0.022698000073432922,0.16189199686050415
1750561027844950300,2.1519501953125,-0.15689000487327576,-0.00009100000170292333,0.1874459981918335
1750561027854555100,2.16155517578125,-0.16102899610996246,0.00392200006172061,0.1083810031414032
1750561027864159700,2.17115966796875,-0.07392200082540512,0.010688000358641148,-0.03246999904513359
1750561027873764600,2.1807646484375,0.045827001333236694,-0.00936300028115511,-0.13724499940872192
1750561027883369500,2.190369384765625,0.1899780035018921,-0.06910400092601776,-0.19631299376487732
1750561027892974300,2.199974365234375,0.1996140033006668,-0.09467200189828873,-0.15520399808883667
1750561027902579200,2.2095791015625,0.15776899456977844,-0.05077499896287918,-0.027403999119997025
1750561027912183800,2.219183837890625,0.09218700230121613,-0.03907499834895134,0.08949600160121918
1750561027921788400,2.228788330078125,-0.0021019999403506517,-0.028216000646352768,0.13350500166416168
1750561027931393300,2.238393310546875,0.024646999314427376,-0.051809001713991165,0.10771899670362473
1750561027940998100,2.247998046875,0.0929810032248497,-0.05183599889278412,-0.026877999305725098
1750561027950603000,2.25760302734375,0.07085199654102325,-0.043014999479055405,-0.0407009981572628
1750561027960208000,2.267207763671875,-0.047894999384880066,-0.06028199940919876,-0.13420400023460388
1750561027969812700,2.276812744140625,-0.06473399698734283,-0.017153000459074974,-0.17587700486183167
1750561027979417300,2.286417236328125,-0.11389800161123276,0.033959999680519104,-0.14126400649547577
1750561027989022200,2.296022216796875,-0.09138300269842148,0.06376100331544876,-0.05740100145339966
1750561027998626800,2.305626708984375,0.03129899874329567,0.04947099834680557,-0.031915001571178436
1750561028008231700,2.315231689453125,0.20100000500679016,0.05398799851536751,-0.06028600037097931
1750561028017836500,2.32483642578125,0.32215699553489685,-0.009139999747276306,-0.08315099775791168
1750561028027441400,2.33444140625,0.31492099165916443,-0.004029000177979469,-0.10020200163125992
1750561028037046000,2.3440458984375,0.11868900060653687,-0.02243099920451641,-0.08612299710512161
1750561028046651000,2.35365087890625,-0.0770300030708313,-0.00021699999342672527,0.009448999539017677
1750561028056255500,2.36325537109375,-0.21225500106811523,0.005886999890208244,0.0482730008661747
1750561028065860400,2.3728603515625,-0.2425059974193573,0.007741000037640333,0.01934799924492836
1750561028075465200,2.38246533203125,-0.1240840032696724,0.07242699712514877,-0.051291000097990036
1750561028085070000,2.392070068359375,0.021115999668836594,0.028116000816226006,-0.04891800135374069
1750561028094675000,2.401675048828125,0.1339160054922104,0.0031510000117123127,0.04790699854493141
1750561028104279800,2.41127978515625,0.1719689965248108,-0.004344000015407801,0.05833100154995918
1750561028113884400,2.420884521484375,0.11996699869632721,0.036302998661994934,0.027542000636458397
1750561028123489300,2.4304892578125,0.011981000192463398,0.0572969987988472,0.008113999851047993
1750561028133094000,2.440093994140625,-0.1290840059518814,0.04330499842762947,0.005520000122487545
1750561028142699000,2.449698974609375,-0.20105800032615662,0.04569400101900101,-0.044325001537799835
1750561028152303600,2.4593037109375,-0.2745630145072937,0.05412200093269348,-0.02493399940431118
1750561028161908500,2.468908447265625,-0.27530598640441895,0.035822998732328415,-0.007284000050276518
1750561028171513000,2.47851318359375,-0.21646200120449066,0.028324000537395477,0.08365699648857117
1750561028181118000,2.488117919921875,-0.14610500633716583,0.012713000178337097,0.1412770003080368
1750561028190722800,2.497722900390625,-0.023607000708580017,0.013047999702394009,0.17696399986743927
1750561028200327400,2.507327392578125,0.05866000056266785,-0.003157000057399273,0.1673170030117035
1750561028209932300,2.516932373046875,0.02656799927353859,-0.017734000459313393,0.08505599945783615
1750561028219537200,2.526537109375,-0.05862399935722351,-0.008662999607622623,-0.0036090000066906214
1750561028229142000,2.53614208984375,-0.1071380004286766,-0.029384000226855278,-0.08490899950265884
1750561028238747000,2.545746826171875,-0.1346299946308136,-0.04459900036454201,-0.08176100254058838
1750561028248351500,2.5553515625,-0.029975999146699905,-0.026052000001072884,-0.05921199917793274
1750561028257956400,2.564956298828125,0.010193999856710434,-0.0666939988732338,0.08122699707746506
1750561028267561000,2.57456103515625,0.07762499898672104,-0.06940499693155289,0.05780800059437752
1750561028277165800,2.584165771484375,0.16153199970722198,-0.03581300005316734,-0.05056999996304512
1750561028286770700,2.593770751953125,0.17377600073814392,-0.04791799932718277,-0.1174129992723465
1750561028296375600,2.60337548828125,0.1700430065393448,-0.039517998695373535,-0.17613400518894196
1750561028305980200,2.612980224609375,0.1287979930639267,-0.08007299900054932,-0.1633010059595108
1750561028315585000,2.6225849609375,0.009108000434935093,-0.06004999950528145,-0.0689459964632988
1750561028325190000,2.63218994140625,-0.08659899979829788,-0.03619400039315224,-0.03856299817562103
1750561028334794500,2.64179443359375,-0.2371719926595688,-0.04943900182843208,0.03282599896192551
1750561028344399600,2.651399658203125,-0.31460800766944885,-0.04052700102329254,0.16805900633335114
1750561028354004500,2.66100439453125,-0.30098700523376465,0.04970699921250343,0.13837000727653503
1750561028363609000,2.670609130859375,-0.1984570026397705,0.0048050000332295895,0.049782998859882355
1750561028373214000,2.6802138671875,-0.005578999873250723,0.01042800024151802,-0.11824099719524384
1750561028382818600,2.689818603515625,0.1671230047941208,0.035151999443769455,-0.2421019971370697
1750561028392423400,2.69942333984375,0.41502800583839417,0.04846300184726715,-0.2335350066423416
1750561028402028000,2.709028076171875,0.5702750086784363,0.04024200141429901,-0.08862800151109695
1750561028411633000,2.7186328125,0.593163013458252,0.029704999178647995,0.08312100172042847
1750561028421237800,2.72823779296875,0.47741198539733887,0.04575999826192856,0.26792699098587036
1750561028430842600,2.737842529296875,0.20325200259685516,0.05714799836277962,0.28686898946762085
1750561028440447500,2.747447509765625,-0.06398999691009521,0.10436200350522995,0.2589400112628937
1750561028450052000,2.757052001953125,-0.2451779991388321,0.152211993932724,0.15163299441337585
1750561028459657000,2.766656982421875,-0.23618899285793304,0.149275004863739,0.06779900193214417
1750561028469261600,2.776261474609375,-0.03349599987268448,0.16766999661922455,0.0029170000925660133
1750561028478866400,2.785866455078125,0.19644099473953247,0.13254299759864807,0.005526999942958355
1750561028488471600,2.795471435546875,0.3610379993915558,0.1280760020017624,-0.0025080000050365925
1750561028498076400,2.805076416015625,0.40497198700904846,0.07465299963951111,-0.04492500051856041
1750561028507681000,2.814680908203125,0.3426769971847534,0.0024210000410676003,0.035169001668691635
1750561028517285600,2.82428564453125,0.08918300271034241,-0.03382299840450287,0.1324709951877594
1750561028526890500,2.833890380859375,-0.19584700465202332,-0.012450000271201134,0.16255800426006317
1750561028536495000,2.8434951171875,-0.3557380139827728,0.0022980000358074903,0.10502800345420837
1750561028546100000,2.853099853515625,-0.3586429953575134,-0.0007060000207275152,-0.006058000028133392
1750561028555705000,2.862705078125,-0.24122700095176697,0.006756000220775604,-0.15499599277973175
1750561028565309700,2.872309814453125,-0.0440559983253479,-0.024826999753713608,-0.27858400344848633
1750561028574914600,2.88191455078125,0.08515600115060806,-0.01585100032389164,-0.25557801127433777
1750561028584519400,2.89151953125,0.22104200720787048,-0.05301300063729286,-0.12870299816131592
1750561028594124000,2.9011240234375,0.2560499906539917,-0.07288199663162231,-0.007575999945402145
1750561028603729000,2.91072900390625,0.2514199912548065,-0.08940800279378891,0.017354000359773636
1750561028613333800,2.920333740234375,0.157027006149292,-0.06787999719381332,-0.038033999502658844
1750561028622938600,2.929938720703125,-0.026240000501275063,-0.0646200031042099,-0.004821999929845333
1750561028632543500,2.93954345703125,-0.2432059943675995,-0.05342299863696098,0.0641229972243309
1750561028642148000,2.949148193359375,-0.4016610085964203,-0.01585800014436245,0.11156900227069855
1750561028651752700,2.958752685546875,-0.415118008852005,-0.005508999805897474,0.11573799699544907
1750561028661357800,2.96835791015625,-0.24269500374794006,-0.013678999617695808,-0.007540999911725521
1750561028670962400,2.97796240234375,0.08000800013542175,-0.003969000186771154,-0.12024100124835968
1750561028680567300,2.9875673828125,0.30682799220085144,-0.0544469989836216,-0.17234300076961517
1750561028690172200,2.997172119140625,0.34962499141693115,-0.0574209988117218,-0.0833749994635582
1750561028699776800,3.00677685546875,0.23025600612163544,-0.03442399948835373,0.05548999831080437
1750561028709381600,3.016381591796875,-0.07842200249433517,-0.059546999633312225,0.14278200268745422
1750561028718986500,3.025986572265625,-0.3416840136051178,-0.02990500070154667,0.19898700714111328
1750561028728591400,3.03559130859375,-0.4619629979133606,-0.031332001090049744,0.13157400488853455
1750561028738196200,3.0451962890625,-0.490898996591568,-0.051454998552799225,0.05032400041818619
1750561028747800800,3.05480078125,-0.3789840042591095,0.00891099963337183,0.012195000424981117
1750561028757405700,3.06440576171875,-0.15546399354934692,0.010126999579370022,-0.002061000093817711
1750561028767010300,3.07401025390625,0.03630800172686577,-0.01949699968099594,-0.029214000329375267
1750561028776615200,3.083615234375,0.19854600727558136,-0.04232100024819374,-0.11209800094366074
1750561028786220000,3.093219970703125,0.11919700354337692,-0.011331000365316868,-0.13996100425720215
1750561028795825000,3.102824951171875,-0.06801900267601013,-0.029881000518798828,-0.07997799664735794
1750561028805429800,3.1124296875,-0.26576000452041626,-0.056113000959157944,0.03525000065565109
1750561028815034400,3.122034423828125,-0.31547799706459045,0.01790199987590313,0.06905099749565125
1750561028824639200,3.13163916015625,-0.27044999599456787,0.03591199964284897,0.11047200113534927
1750561028834244000,3.141244140625,-0.06317199766635895,0.039802998304367065,0.11061800271272659
1750561028843848700,3.1508486328125,0.1986059993505478,0.0415010005235672,0.007501999847590923
1750561028853453300,3.160453369140625,0.3267799913883209,0.043400999158620834,-0.15181699395179749
1750561028863058400,3.170058349609375,0.18002399802207947,0.005483000073581934,-0.1983249932527542
1750561028872663300,3.179663330078125,-0.05534899979829788,-0.019879000261425972,-0.11612600088119507
1750561028882268000,3.189267822265625,-0.21719899773597717,0.0017579999985173345,-0.01836399920284748
1750561028891872800,3.198872802734375,-0.2924410104751587,0.027648000046610832,0.09685300290584564
1750561028901477400,3.208477294921875,-0.27180299162864685,0.02085299976170063,0.16452500224113464
1750561028911082200,3.218082275390625,-0.06638500094413757,0.04405200108885765,0.09241600334644318
1750561028920687000,3.22768701171875,0.2730560004711151,0.04376799985766411,-0.09629099816083908
1750561028930292000,3.2372919921875,0.5154460072517395,0.05587200075387955,-0.16624300181865692
1750561028939896800,3.246896728515625,0.44053199887275696,-0.012517999857664108,-0.19965499639511108
1750561028949501700,3.256501708984375,0.14422999322414398,0.03888599947094917,-0.148717001080513
1750561028959106300,3.266106201171875,-0.14491599798202515,0.04905499890446663,-0.06694699823856354
1750561028968711200,3.275711181640625,-0.26734501123428345,0.01641100086271763,0.062199000269174576
1750561028978315800,3.285315673828125,-0.11921799927949905,0.01447799988090992,0.14392900466918945
1750561028987920600,3.294920654296875,0.16225600242614746,-0.04331900179386139,0.1316719949245453
1750561028997525500,3.304525390625,0.39496299624443054,-0.0834520012140274,0.096110999584198
1750561029007130000,3.314130126953125,0.44504401087760925,-0.12972700595855713,0.028384000062942505
1750561029016735000,3.32373486328125,0.3662070035934448,-0.12002900242805481,-0.08107499778270721
1750561029026339800,3.33333984375,0.15758800506591797,-0.074413001537323,-0.11081399768590927
1750561029035944700,3.34294482421875,-0.0215000007301569,-0.02723499946296215,-0.08791399747133255
1750561029045549300,3.35254931640625,-0.10553400218486786,-0.04710099846124649,-0.009554999880492687
1750561029055154200,3.362154296875,-0.08940999954938889,-0.04003499820828438,0.036524999886751175
1750561029064759000,3.371759033203125,-0.06115100160241127,0.0051020001992583275,0.012641999870538712
1750561029074364000,3.381364013671875,-0.08805699646472931,0.012063000351190567,0.021005000919103622
1750561029083968800,3.39096875,-0.2471410036087036,-0.007664000149816275,-0.03511999920010567
1750561029093573400,3.400573486328125,-0.26618000864982605,0.049917999655008316,-0.1518319994211197
1750561029103178000,3.410177978515625,-0.15853500366210938,0.04183800145983696,-0.1443829983472824
1750561029112783000,3.419783203125,0.062950000166893,-0.005714000202715397,-0.018850000575184822
1750561029122388000,3.429387939453125,0.30772700905799866,-0.05504300072789192,0.013505999930202961
1750561029131992600,3.43899267578125,0.48483699560165405,-0.08321099728345871,0.029207000508904457
1750561029141597400,3.448597412109375,0.38687199354171753,-0.10078199952840805,0.05807900056242943
1750561029151202300,3.458202392578125,0.13384300470352173,-0.04573599994182587,-0.00355300004594028
1750561029160807000,3.467806884765625,-0.17615100741386414,-0.0018189999973401427,-0.04442400112748146
1750561029170411800,3.477411865234375,-0.44259101152420044,0.09814800322055817,-0.0698850005865097
1750561029180016400,3.487016357421875,-0.5421929955482483,0.10011599957942963,-0.055316001176834106
1750561029189621500,3.49662158203125,-0.4708150029182434,0.08848000317811966,0.0006000000284984708
1750561029199226000,3.50622607421875,-0.29274800419807434,0.07322800159454346,0.10746999830007553
1750561029208831000,3.5158310546875,0.019826000556349754,0.07475399971008301,0.07435400038957596
1750561029218435600,3.525435546875,0.3140909969806671,0.04938500002026558,-0.00405499991029501
1750561029228040400,3.53504052734375,0.3885110020637512,-0.03539099916815758,-0.08601599931716919
1750561029237645300,3.544645263671875,0.22922100126743317,0.029705999419093132,-0.11615400016307831
1750561029247250000,3.55425,-0.08177000284194946,0.07754600048065186,-0.09605199843645096
1750561029256854800,3.563854736328125,-0.28992798924446106,0.06606899946928024,0.0237869992852211
1750561029266459600,3.573459716796875,-0.41391998529434204,0.05172999948263168,0.12425799667835236
1750561029276064300,3.583064208984375,-0.288906991481781,0.03225399926304817,0.1710440069437027
1750561029285669000,3.592669189453125,-0.10536699742078781,-0.007280000019818544,0.20123900473117828
1750561029295274000,3.60227392578125,0.15362100303173065,-0.016821999102830887,0.08708299696445465
1750561029304878800,3.61187890625,0.36113598942756653,-0.04517599940299988,0.029749000445008278
1750561029314483700,3.621483642578125,0.36048999428749084,-0.08565100282430649,-0.0810609981417656
1750561029324088300,3.63108837890625,0.12380799651145935,-0.08169099688529968,-0.039487000554800034
1750561029333693200,3.640693115234375,-0.14012999832630157,-0.05794300138950348,0.08484599739313126
1750561029343297800,3.6502978515625,-0.34620100259780884,-0.09324800223112106,0.10415799915790558
1750561029352903000,3.65990283203125,-0.40840399265289307,-0.07856900244951248,0.10695800185203552
1750561029362507500,3.669507568359375,-0.2801220118999481,-0.06616999953985214,0.05550200119614601
1750561029372112400,3.6791123046875,-0.0007130000158213079,-0.041561998426914215,0.003785999957472086
1750561029381717000,3.688717041015625,0.28221601247787476,-0.029817000031471252,-0.06452299654483795
1750561029391321900,3.69832177734375,0.4497460126876831,-0.05695199966430664,-0.09663599729537964
1750561029400926700,3.7079267578125,0.4958510100841522,-0.06341399997472763,-0.13270199298858643
1750561029410531300,3.71753125,0.3343549966812134,-0.03465700149536133,-0.09946700185537338
1750561029420136400,3.727136474609375,0.05099799856543541,-0.00950200017541647,0.008775999769568443
1750561029429741000,3.736740966796875,-0.1591939926147461,0.040293000638484955,0.13822199404239655
1750561029439346000,3.746345947265625,-0.15091900527477264,0.06532599776983261,0.12382999807596207
1750561029448950500,3.755950439453125,-0.008267000317573547,0.02743300050497055,0.051461998373270035
1750561029458555400,3.765555419921875,0.1028280034661293,0.03432000055909157,0.0009260000078938901
1750561029468160000,3.775159912109375,0.08973799645900726,0.028750000521540642,-0.06941299885511398
1750561029477765000,3.78476513671875,0.05461600050330162,0.07065600156784058,-0.15640999376773834
1750561029487369700,3.79436962890625,-0.10478299856185913,0.03215299919247627,-0.14704599976539612
1750561029496974600,3.803974609375,-0.19092699885368347,0.03951999917626381,-0.005836999975144863
1750561029506579500,3.813579345703125,-0.15174600481987,0.04680100083351135,0.06984099745750427
1750561029516184000,3.82318408203125,0.046907998621463776,0.09004300087690353,0.08967699855566025
1750561029525789000,3.832788818359375,0.2988409996032715,0.09860800206661224,0.03866799920797348
1750561029535393500,3.8423935546875,0.38311100006103516,0.0436829999089241,0.02204499952495098
1750561029544998400,3.851998291015625,0.16427800059318542,0.029373999685049057,0.0019039999460801482
1750561029554603500,3.861603515625,-0.05355200171470642,0.0521249994635582,-0.016016999259591103
1750561029564208400,3.87120849609375,-0.22705599665641785,-0.022647999227046967,0.11107400059700012
1750561029573813000,3.88081298828125,-0.25346800684928894,-0.03317299857735634,0.20630699396133423
1750561029583417900,3.89041796875,-0.049417998641729355,-0.020901000127196312,0.16279500722885132
1750561029593022500,3.9000224609375,0.16033099591732025,-0.08094800263643265,0.07837200164794922
1750561029602627300,3.90962744140625,0.2112630009651184,-0.06080299988389015,-0.005654000211507082
1750561029612232400,3.919232421875,0.1399810016155243,-0.0559610016644001,-0.1996529996395111
1750561029621836800,3.9288369140625,-0.001303000026382506,-0.02850000001490116,-0.28784099221229553
1750561029631441700,3.938441650390625,-0.14393000304698944,-0.013148000463843346,-0.3337650001049042
1750561029641046500,3.948046630859375,-0.18764999508857727,0.0035780000034719706,-0.20090800523757935
1750561029650651100,3.957651123046875,-0.149058997631073,-0.023079000413417816,-0.03650199994444847
1750561029660256000,3.967256103515625,-0.0446540005505085,-0.09003899991512299,0.08196400105953217
1750561029669860900,3.97686083984375,0.15667200088500977,-0.060729000717401505,0.11204200237989426
1750561029679465700,3.9864658203125,0.16475999355316162,-0.07308299839496613,0.004166000057011843
1750561029689070600,3.996070556640625,-0.06830500066280365,-0.05509199947118759,-0.08659200370311737
1750561029698675200,4.00567529296875,-0.19918200373649597,-0.007040000054985285,-0.14811000227928162
1750561029708280000,4.015280029296875,-0.1651660054922104,-0.011177999898791313,-0.12761400640010834
1750561029717885000,4.024885009765625,-0.009883999824523926,-0.01537999976426363,-0.10756299644708633
1750561029727489500,4.034489501953125,0.06681700050830841,-0.031101999804377556,-0.07370000332593918
1750561029737094400,4.044094482421875,-0.028150999918580055,0.01797099970281124,-0.006068000104278326
1750561029746699300,4.05369921875,-0.1864210069179535,0.054255999624729156,0.1528089940547943
1750561029756304100,4.06330419921875,-0.2996149957180023,0.049316998571157455,0.23398999869823456
1750561029765908700,4.07290869140625,-0.26687198877334595,0.10687000304460526,0.24305400252342224
1750561029775513600,4.082513671875,-0.0934009999036789,0.16399699449539185,0.14098499715328217
1750561029785118200,4.0921181640625,0.13445700705051422,0.08548200130462646,0.02228900045156479
1750561029794723000,4.10172314453125,0.33932098746299744,-0.0102530000731349,-0.0340690016746521
1750561029804328000,4.111327880859375,0.2037460058927536,-0.0034580000210553408,0.017968999221920967
1750561029813932800,4.120932861328125,-0.026854999363422394,0.004811999853700399,0.1399179995059967
1750561029823537700,4.13053759765625,-0.3068459928035736,0.031106000766158104,0.10357499867677689
1750561029833142300,4.140142333984375,-0.3699379861354828,0.08169600367546082,0.07791899889707565
1750561029842747100,4.1497470703125,-0.19763199985027313,0.10229399800300598,-0.058768000453710556
1750561029852351700,4.159351806640625,0.10527200251817703,0.05123100057244301,-0.15559500455856323
1750561029861956600,4.16895654296875,0.31617799401283264,-0.02955400012433529,-0.19101299345493317
1750561029871561500,4.1785615234375,0.15307599306106567,-0.041221000254154205,-0.1824599951505661
1750561029881166300,4.188166259765625,-0.154666006565094,-0.06443600356578827,-0.1433050036430359
1750561029890771200,4.197771240234375,-0.32536500692367554,-0.06340499967336655,0.026054000481963158
1750561029900376000,4.2073759765625,-0.21088799834251404,-0.06650400161743164,0.1461150050163269
1750561029909980700,4.216980712890625,-0.13707199692726135,-0.0936719998717308,0.13279500603675842
1750561029919585300,4.226585205078125,-0.12145200371742249,-0.04539800062775612,0.01726200059056282
1750561029929190100,4.236190185546875,-0.0683090016245842,0.09161899983882904,-0.1472170054912567
1750561029938795300,4.245795166015625,-0.04198399931192398,0.06422200053930283,-0.20448200404644012
1750561029948399900,4.25539990234375,0.16722699999809265,0.06428799778223038,-0.2830049991607666
1750561029958004700,4.265004638671875,0.4227299988269806,0.05852299928665161,-0.3329089879989624
1750561029967609300,4.274609375,0.625823974609375,0.032113999128341675,-0.33059200644493103
1750561029977214200,4.284214111328125,0.7267799973487854,-0.0050130002200603485,-0.3848569989204407
1750561029986818800,4.29381884765625,0.5052260160446167,-0.043637000024318695,-0.21816299855709076
1750561029996423700,4.303423583984375,0.2542789876461029,-0.042291998863220215,-0.05155399814248085
1750561030006028500,4.313028564453125,-0.038927000015974045,0.06409700214862823,-0.044183000922203064
1750561030015633400,4.32263330078125,0.12016700208187103,0.07772500067949295,0.1603509932756424
1750561030025238300,4.33223828125,0.5947579741477966,0.24616500735282898,0.21707400679588318
1750561030034843100,4.341843017578125,1.6657719612121582,0.31012099981307983,0.006453000009059906
1750561030044447700,4.35144775390625,3.0648090839385986,0.4314590096473694,-0.2739560008049011
1750561030054052600,4.361052490234375,4.408711910247803,0.249891996383667,-0.143654003739357
1750561030063657500,4.370657470703125,5.718846797943115,-0.01235399954020977,0.4249500036239624
1750561030073262000,4.380261962890625,6.364867210388184,-0.24162699282169342,1.2342300415039062
1750561030082867200,4.3898671875,6.192637920379639,-0.5752390027046204,2.408642053604126
1750561030092471800,4.399471923828125,5.566874980926514,-0.9762899875640869,4.254999160766602
1750561030102076400,4.409076416015625,4.909882068634033,-1.1319489479064941,5.509579181671143
1750561030111681300,4.418681396484375,3.445004940032959,-0.972337007522583,4.547604084014893
1750561030121286100,4.4282861328125,2.3855059146881104,-0.853314995765686,2.5931060314178467
1750561030130890800,4.437890869140625,1.4073779582977295,-0.5908380150794983,0.7929109930992126
1750561030140495600,4.44749560546875,0.40519601106643677,-0.517100989818573,-0.047322001308202744
1750561030150100500,4.4571005859375,-0.3741750121116638,-0.5923349857330322,0.45490801334381104
1750561030159705300,4.466705322265625,-0.7930489778518677,-0.7311859726905823,2.0296308994293213
1750561030169310000,4.47631005859375,-1.5944370031356812,-1.0466639995574951,3.4233510494232178
1750561030178914800,4.485914794921875,-2.959197998046875,-1.2125489711761475,3.746890068054199
1750561030188519700,4.495519775390625,-4.566105842590332,-1.3863439559936523,3.0894529819488525
1750561030198124300,4.505124267578125,-5.878246784210205,-1.4173630475997925,2.002751111984253
1750561030207729200,4.514729248046875,-6.751105785369873,-1.4405640363693237,0.74481201171875
1750561030217334000,4.524333984375,-7.669933795928955,-1.4819890260696411,-0.3236370086669922
1750561030226939000,4.53393896484375,-8.550539016723633,-1.4970790147781372,-1.101449966430664
1750561030236543500,4.54354345703125,-8.893681526184082,-1.6037989854812622,-0.6759840250015259
1750561030246148400,4.5531484375,-7.7970452308654785,-1.5942399501800537,1.2887909412384033
1750561030255753200,4.562753173828125,-6.034811973571777,-1.4944939613342285,2.407335042953491
1750561030265357800,4.57235791015625,-4.337441921234131,-1.7889879941940308,1.2433029413223267
1750561030274962700,4.581962646484375,-2.9897379875183105,-1.8556749820709229,-1.125918984413147
1750561030284567600,4.591567626953125,-2.740633964538574,-1.7473880052566528,-3.463534116744995
1750561030294172400,4.60117236328125,-2.3497729301452637,-1.4736089706420898,-4.783662796020508
1750561030303777300,4.61077734375,-2.8185079097747803,-1.3872079849243164,-4.71106481552124
1750561030313382000,4.6203818359375,-3.105196952819824,-1.4908210039138794,-3.761388063430786
1750561030322986800,4.62998681640625,-3.310746908187866,-1.5781949758529663,-2.851327896118164
1750561030332591600,4.639591552734375,-3.4475810527801514,-1.9840190410614014,-2.1914150714874268
1750561030342196500,4.649196533203125,-3.6197669506073,-2.417695999145508,-1.9527850151062012
1750561030351801000,4.658801025390625,-3.0862390995025635,-2.639241933822632,-1.9131050109863281
1750561030361406000,4.668406005859375,-1.2642680406570435,-2.1757171154022217,-2.698503017425537
1750561030371010600,4.678010498046875,-0.6035760045051575,-2.2072980403900146,-2.6797099113464355
1750561030380615400,4.687615478515625,0.3811750113964081,-2.9193639755249023,-1.7898919582366943
1750561030390220300,4.69722021484375,1.2784160375595093,-2.8764889240264893,-1.4007899761199951
1750561030399825200,4.7068251953125,2.017091989517212,-2.560610055923462,-1.5221600532531738
1750561030409430000,4.716429931640625,2.3894689083099365,-2.007030963897705,-2.082698106765747
1750561030419034600,4.72603466796875,2.6589889526367188,-1.554664969444275,-2.031632900238037
1750561030428639500,4.735639404296875,2.66635799407959,-1.102431058883667,-1.6990230083465576
1750561030438244400,4.745244384765625,2.434546947479248,-0.7584499716758728,-0.9517539739608765
1750561030447849000,4.754848876953125,3.1816821098327637,-0.5317670106887817,0.06425400078296661
1750561030457453600,4.76445361328125,5.387808799743652,0.038888998329639435,0.4772610068321228
1750561030467058700,4.77405859375,8.009195327758789,0.49457499384880066,1.1522719860076904
1750561030476663600,4.78366357421875,10.628119468688965,0.6960819959640503,1.8463159799575806
1750561030486268200,4.79326806640625,11.494023323059082,0.6968759894371033,1.7024940252304077
1750561030495873000,4.802873046875,10.651396751403809,0.18569299578666687,3.116831064224243
1750561030505477600,4.8124775390625,8.333688735961914,-0.518966019153595,4.967601776123047
1750561030515082500,4.82208251953125,5.193939208984375,-0.7829210162162781,5.862094879150391
1750561030524687400,4.831687255859375,2.3116331100463867,-0.6683440208435059,6.820048809051514
1750561030534292200,4.841292236328125,0.592943012714386,-0.30172199010849,7.168190002441406
1750561030543897000,4.85089697265625,0.3814780116081238,0.18240700662136078,6.92241907119751
1750561030553501700,4.860501708984375,0.9925619959831238,0.5736590027809143,6.10745906829834
1750561030563106600,4.8701064453125,1.753432035446167,0.7944920063018799,4.747931957244873
1750561030572711400,4.87971142578125,2.1041030883789062,0.9063050150871277,3.405277967453003
1750561030582316000,4.88931591796875,1.3123420476913452,0.8347619771957397,2.7623438835144043
1750561030591920600,4.898920654296875,-0.3031170070171356,0.3537139892578125,3.054619073867798
1750561030601525500,4.908525390625,-1.8352810144424438,-0.06199900060892105,4.052917003631592
1750561030611130400,4.91813037109375,-2.834929943084717,-0.1719059944152832,4.72096586227417
1750561030620735200,4.9277353515625,-2.9143810272216797,-0.10111699998378754,4.259696960449219
1750561030630340000,4.937340087890625,-2.269547939300537,-0.001230000052601099,3.2799079418182373
1750561030639945000,4.946945068359375,-1.6766480207443237,-0.24230000376701355,2.310991048812866
1750561030649549600,4.956549560546875,-0.847108006477356,-0.3323340117931366,1.614928960800171
1750561030659154200,4.966154296875,-0.9137769937515259,-0.18316900730133057,1.084293007850647
1750561030668759300,4.97575927734375,-1.747380018234253,-0.31962499022483826,1.1893190145492554
1750561030678364200,4.9853642578125,-2.6986470222473145,-0.4583599865436554,1.5429049730300903
1750561030687968800,4.99496875,-3.3753280639648438,-0.43307700753211975,1.6179490089416504
1750561030697573600,5.00457373046875,-3.2302069664001465,-0.4915980100631714,1.4902540445327759
1750561030707178200,5.01417822265625,-2.803899049758911,-0.6049469709396362,1.2338919639587402
1750561030716783000,5.023783203125,-2.2871499061584473,-0.6960499882698059,1.0578190088272095
1750561030726387700,5.0333876953125,-1.6649500131607056,-0.7095360159873962,1.0499240159988403
1750561030735992600,5.04299267578125,-1.1613049507141113,-0.7359499931335449,1.2406129837036133
1750561030745597400,5.052597412109375,-0.95591801404953,-0.7086989879608154,1.481199026107788
1750561030755202300,5.062202392578125,-0.4671970009803772,-0.5344070196151733,1.6393680572509766
1750561030764807200,5.07180712890625,-0.22558000683784485,-0.339493989944458,1.5020439624786377
1750561030774411800,5.081411865234375,0.017048999667167664,-0.3089190125465393,0.9858610033988953
1750561030784016600,5.0910166015625,0.2169719934463501,-0.14245599508285522,0.2968040108680725
1750561030793621500,5.10062158203125,0.0660569965839386,-0.054211001843214035,-0.07668700069189072
1750561030803226000,5.11022607421875,-0.4039260149002075,-0.22590099275112152,0.2455340027809143
1750561030812831200,5.119831298828125,-0.808601975440979,-0.2756679952144623,0.6306560039520264
1750561030832040400,5.13904052734375,-0.37722501158714294,-0.28194400668144226,1.3942309617996216
1750561030841645300,5.148645263671875,0.19904999434947968,-0.219759002327919,1.1342899799346924
1750561030851250200,5.158250244140625,0.8386800289154053,-0.18019999563694,0.727599024772644
1750561030860855000,5.16785498046875,1.322996973991394,-0.11655300110578537,0.25099900364875793
1750561030870460000,5.1774599609375,1.557737946510315,-0.14785799384117126,-0.16112999618053436
1750561030880064800,5.187064697265625,1.2496860027313232,-0.07647600024938583,-0.1999409943819046
1750561030889669400,5.19666943359375,0.47500500082969666,0.014272999949753284,-0.010603000409901142
1750561030899274200,5.206274169921875,-0.1866849958896637,0.05515399947762489,0.3961470127105713
1750561030908878800,5.21587890625,-0.5242409706115723,0.0851769968867302,0.8967559933662415
1750561030918483700,5.225483642578125,-0.42451900243759155,0.14404000341892242,1.2093260288238525
1750561030928088600,5.235088623046875,-0.007726999931037426,0.2172970026731491,1.0685880184173584
1750561030937693400,5.244693359375,0.40446698665618896,0.20722800493240356,0.6913639903068542
1750561030947298300,5.25429833984375,0.534400999546051,0.20371200144290924,0.20710699260234833
1750561030956903000,5.26390283203125,0.4520680010318756,0.22182899713516235,-0.20316599309444427
1750561030966507800,5.2735078125,0.06459899991750717,0.22129200398921967,-0.2409520000219345
1750561030976112400,5.2831123046875,-0.24421699345111847,0.23169200122356415,-0.142412006855011
1750561030985717500,5.292717529296875,-0.4392150044441223,0.1934340000152588,0.10599400103092194
1750561030995322000,5.302322021484375,-0.4509980082511902,0.03051299974322319,0.38147398829460144
1750561031004927000,5.311927001953125,-0.3755500018596649,-0.07256700098514557,0.48555201292037964
1750561031014531600,5.321531494140625,-0.18841999769210815,-0.17597399652004242,0.5435420274734497
1750561031024136700,5.33113671875,0.03145499899983406,-0.2237509936094284,0.4312329888343811
1750561031033741300,5.3407412109375,0.1351349949836731,-0.19912700355052948,0.28241199254989624
1750561031043346200,5.35034619140625,0.30069398880004883,-0.09670499712228775,0.01434400025755167
1750561031052950800,5.35995068359375,0.4414040148258209,-0.04293999820947647,-0.1961279958486557
1750561031062555600,5.3695556640625,0.3171350061893463,-0.07509700208902359,-0.20855599641799927
1750561031072160500,5.379160400390625,0.011509999632835388,-0.06896699965000153,0.027170000597834587
1750561031081765000,5.38876513671875,-0.17354999482631683,-0.0791739970445633,0.3067919909954071
1750561031091370000,5.398369873046875,-0.0689840018749237,-0.08422300219535828,0.4944849908351898
1750561031100974800,5.407974853515625,0.04623299837112427,-0.12494499981403351,0.6962069869041443
1750561031110579700,5.417579833984375,-0.02299799956381321,-0.12024799734354019,0.7850620150566101
1750561031120184300,5.427184326171875,-0.21952800452709198,-0.061285000294446945,0.5403980016708374
1750561031129789200,5.4367890625,-0.3147830069065094,-0.008101999759674072,0.22068099677562714
1750561031139394000,5.44639404296875,-0.1814119964838028,0.02426300011575222,-0.024359000846743584
1750561031148998700,5.45599853515625,0.21177099645137787,0.06922399997711182,-0.2188279926776886
1750561031158603500,5.465603515625,0.6645339727401733,0.09838400036096573,-0.24673399329185486
1750561031168208100,5.4752080078125,0.7849649786949158,0.014644999988377094,0.02210400067269802
1750561031177813000,5.48481298828125,0.5460219979286194,-0.018069999292492867,0.35650599002838135
1750561031187417900,5.49441796875,0.08391600102186203,-0.027830999344587326,0.5506269931793213
1750561031197022700,5.504022705078125,-0.4220069944858551,-0.02502400055527687,0.47921499609947205
1750561031206627600,5.513627685546875,-0.5945799946784973,-0.0064119999296963215,0.19232399761676788
1750561031216232200,5.523232177734375,-0.368943989276886,0.0366239994764328,-0.07111100107431412
1750561031225837000,5.532837158203125,0.09235099703073502,0.06494999676942825,-0.12141899764537811
1750561031235441700,5.542441650390625,0.5455679893493652,0.0387750007212162,-0.04742699861526489
1750561031245046500,5.552046630859375,0.8010830283164978,0.08835899829864502,0.09340400248765945
1750561031254651100,5.561651123046875,0.8005819916725159,0.15793000161647797,0.26058799028396606
1750561031264256000,5.571256103515625,0.4116230010986328,0.1553570032119751,0.26356300711631775
1750561031273860900,5.58086083984375,-0.07434999942779541,0.08954600244760513,0.10026399791240692
1750561031283465700,5.5904658203125,-0.5058979988098145,0.04988500103354454,-0.0923679992556572
1750561031293070600,5.600070556640625,-0.7350749969482422,0.001449999981559813,-0.03846599906682968
1750561031302675200,5.60967529296875,-0.8722860217094421,-0.020586000755429268,0.0837239995598793
1750561031312280000,5.619280029296875,-0.538561999797821,0.05866599828004837,0.06773699820041656
1750561031321885000,5.628885009765625,-0.09310699999332428,0.04186299815773964,-0.013682999648153782
1750561031331489500,5.638489501953125,0.464601993560791,0.04778200015425682,-0.09510999917984009
1750561031341094100,5.64809423828125,0.6363440155982971,0.024831000715494156,-0.19256199896335602
1750561031350699000,5.657698974609375,0.3753640055656433,-0.035371001809835434,-0.24978399276733398
1750561031360304000,5.66730419921875,-0.05716700106859207,-0.06060599908232689,-0.0741100013256073
1750561031369908700,5.67690869140625,-0.4005360007286072,-0.039753999561071396,0.22311900556087494
1750561031379513600,5.686513671875,-0.4190309941768646,-0.06317199766635895,0.31603801250457764
1750561031389118500,5.696118408203125,-0.08034499734640121,-0.018146000802516937,0.22305500507354736
1750561031398723000,5.70572314453125,0.316307008266449,-0.007763000205159187,0.029959000647068024
1750561031408327700,5.71532763671875,0.609565019607544,-0.03453600034117699,-0.03009900078177452
1750561031417932500,5.7249326171875,0.701291024684906,0.00267999991774559,-0.183461993932724
1750561031427537700,5.73453759765625,0.39834898710250854,-0.017555000260472298,-0.30260300636291504
1750561031437142300,5.744142333984375,0.0037380000576376915,0.000577000027988106,-0.28537800908088684
1750561031446747100,5.7537470703125,-0.39090999960899353,-0.012141999788582325,-0.1202320009469986
1750561031456351700,5.763351806640625,-0.5809659957885742,-0.03407000005245209,0.1097629964351654
1750561031465956600,5.77295654296875,-0.5229880213737488,-0.055500999093055725,0.27157101035118103
1750561031475561200,5.782561279296875,-0.28391900658607483,-0.11428099870681763,0.2956019937992096
1750561031485166000,5.792166015625,-0.0005699999746866524,-0.06029700115323067,0.07953599840402603
1750561031494771000,5.80177099609375,0.2071399986743927,-0.07179299741983414,-0.11676099896430969
1750561031504375800,5.811375732421875,0.3469200134277344,-0.06478500366210938,-0.31062498688697815
1750561031513980400,5.82098046875,0.4514949917793274,-0.05631000176072121,-0.38270699977874756
1750561031523585300,5.830585205078125,0.327796995639801,-0.05186399817466736,-0.32310301065444946
1750561031533190100,5.840190185546875,0.01512600015848875,-0.016673000529408455,-0.04726399853825569
1750561031542795000,5.849794921875,-0.40003401041030884,-0.0012359999818727374,0.13155700266361237
1750561031552400000,5.85939990234375,-0.8622289896011353,-0.04492099955677986,0.2263229936361313
1750561031562004500,5.86900439453125,-0.9393230080604553,-0.02536099962890148,0.24483899772167206
1750561031571609300,5.878609375,-0.6751880049705505,-0.01632699929177761,0.1257299929857254
1750561031581214000,5.8882138671875,-0.03910600021481514,0.03322000056505203,-0.06308700144290924
1750561031590818800,5.89781884765625,0.5774340033531189,0.03390999883413315,-0.1808999925851822
1750561031600423700,5.907423583984375,0.8854579925537109,0.057100001722574234,-0.14712999761104584
1750561031610028300,5.9170283203125,0.7486550211906433,0.03826799988746643,0.013399000279605389
1750561031619633200,5.926633056640625,0.3876360058784485,0.08882900327444077,0.18785199522972107
1750561031629238000,5.936238037109375,-0.15348400175571442,-0.0019529999699443579,0.26045799255371094
1750561031638843000,5.9458427734375,-0.5478230118751526,-0.031929001212120056,0.2955999970436096
1750561031648447500,5.955447509765625,-0.6449819803237915,0.0001049999991664663,0.27204498648643494
1750561031658052400,5.96505224609375,-0.4352189898490906,-0.0337349995970726,0.18898999691009521
1750561031667657200,5.9746572265625,-0.008364999666810036,-0.060819998383522034,0.038795001804828644
1750561031677262000,5.984261962890625,0.31761300563812256,-0.11435399949550629,-0.14388999342918396
1750561031686866700,5.99386669921875,0.4561240077018738,-0.06603000313043594,-0.3044849932193756
1750561031696471600,6.003471435546875,0.3969239890575409,-0.01951099932193756,-0.4327999949455261
1750561031706076400,6.013076416015625,0.23683199286460876,-0.011145999655127525,-0.3334690034389496
1750561031715681000,6.022680908203125,-0.02185799926519394,-0.04819199815392494,-0.1905370056629181
1750561031725286000,6.032285888671875,-0.25029098987579346,-0.02227500081062317,0.016193000599741936
1750561031734890800,6.041890869140625,-0.4176259934902191,-0.04868699982762337,0.1247830018401146
1750561031744495600,6.05149560546875,-0.4903540015220642,-0.0612029992043972,0.18871299922466278
1750561031754100200,6.061100341796875,-0.4272040128707886,-0.040167998522520065,0.2285809963941574
1750561031763705000,6.070705078125,-0.1044130027294159,0.024101000279188156,0.20948000252246857
1750561031773310000,6.08031005859375,0.22493599355220795,0.03711700066924095,0.05186999961733818
1750561031782914600,6.08991455078125,0.6051539778709412,0.07127100229263306,-0.15723100304603577
1750561031792519400,6.09951953125,0.6729199886322021,0.06539300084114075,-0.32163599133491516
1750561031802124000,6.1091240234375,0.5132910013198853,0.03746899962425232,-0.2831149995326996
1750561031811729000,6.11872900390625,0.10513799637556076,0.013968000188469887,-0.17834900319576263
1750561031821333800,6.128333740234375,-0.35771501064300537,-0.012214000336825848,0.08016300201416016
1750561031830938600,6.137938720703125,-0.5816429853439331,0.05291299894452095,0.352741003036499
1750561031840543200,6.147543212890625,-0.5475130081176758,0.0055519999004900455,0.41618698835372925
1750561031850148000,6.157148193359375,-0.13430100679397583,0.034474000334739685,0.2716690003871918
1750561031859752700,6.166752685546875,0.2692809998989105,0.0676409974694252,-0.03713100031018257
1750561031869357800,6.17635791015625,0.4828279912471771,0.053390998393297195,-0.25186899304389954
1750561031878962400,6.18596240234375,0.33480799198150635,0.09876000136137009,-0.34997400641441345
1750561031888567600,6.195567626953125,0.04503199830651283,0.09522499889135361,-0.23144599795341492
1750561031898172200,6.205172119140625,-0.17586100101470947,0.08725900202989578,-0.02990500070154667
1750561031907776800,6.21477685546875,-0.060752999037504196,0.06007299944758415,0.2777310013771057
1750561031917381600,6.224381591796875,0.2868900001049042,0.03182600066065788,0.3151180148124695
1750561031926986200,6.233986328125,0.47978898882865906,0.00030899999546818435,0.2286359965801239
1750561031936591400,6.24359130859375,0.28559398651123047,-0.03138300031423569,0.036242999136447906
1750561031946196000,6.253196044921875,-0.07336799800395966,0.02536500059068203,-0.23691299557685852
1750561031955800800,6.26280078125,-0.4934140145778656,0.09053400158882141,-0.24924999475479126
1750561031965405700,6.27240576171875,-0.6950219869613647,-0.007799999788403511,-0.12265600264072418
1750561031975010600,6.282010498046875,-0.42126700282096863,-0.02353600040078163,-0.09763099998235703
1750561031984615200,6.291615234375,0.028025999665260315,-0.07912799715995789,-0.049497999250888824
1750561031994220000,6.301219970703125,0.4010159969329834,-0.18240700662136078,-0.0411750003695488
1750561032003825000,6.310824951171875,0.4201290011405945,-0.1595979928970337,0.05308600142598152
1750561032013429800,6.3204296875,-0.04771900177001953,-0.16976000368595123,0.10415799915790558
1750561032023034400,6.330034423828125,-0.3451339900493622,-0.12723800539970398,-0.06531000137329102
1750561032032639200,6.33963916015625,-0.3739300072193146,-0.03395500034093857,-0.23919600248336792
1750561032042243800,6.349243896484375,-0.5019090175628662,-0.10641299933195114,-0.35834598541259766
1750561032051848700,6.3588486328125,-0.5024229884147644,-0.11839199811220169,-0.34255099296569824
1750561032061453300,6.368453369140625,-0.34702301025390625,-0.09935399889945984,-0.25276198983192444
1750561032071058200,6.37805810546875,-0.08338899910449982,-0.12744100391864777,-0.11420000344514847
1750561032080663000,6.3876630859375,0.22363699972629547,-0.11970199644565582,-0.0713760033249855
1750561032090268000,6.397267822265625,0.40561699867248535,-0.0416329987347126,-0.0392410010099411
1750561032099872800,6.406872802734375,0.16209900379180908,-0.06100200116634369,0.03913399949669838
1750561032109477400,6.416477294921875,-0.091389000415802,-0.12335799634456635,0.07172899693250656
1750561032119082200,6.426082275390625,-0.32593101263046265,-0.07816600054502487,0.03588100150227547
1750561032128686800,6.435686767578125,-0.14973700046539307,-0.01440299954265356,-0.06262300163507462
1750561032138291700,6.445291748046875,0.13919399678707123,0.008976999670267105,-0.21398599445819855
1750561032147896600,6.454896484375,0.397830992937088,0.056501999497413635,-0.35479000210762024
1750561032157501400,6.46450146484375,0.4410000145435333,0.10260400176048279,-0.49512699246406555
1750561032167106000,6.47410595703125,0.2997179925441742,0.10726600140333176,-0.356795996427536
1750561032176711000,6.4837109375,0.19825699925422668,0.1364469975233078,-0.24664899706840515
1750561032186315500,6.4933154296875,0.38503599166870117,0.08883000165224075,-0.012632000260055065
1750561032195920400,6.50292041015625,1.333340048789978,0.14295099675655365,0.5802680253982544
1750561032205525200,6.512525146484375,2.573896884918213,0.1362289935350418,0.4763379991054535
1750561032215130000,6.522130126953125,4.0577569007873535,0.1095379963517189,0.321476012468338
1750561032224734700,6.531734619140625,5.313094139099121,0.2163030058145523,-0.23393799364566803
1750561032234339800,6.54133984375,6.736248016357422,0.1609169989824295,-0.5118619799613953
1750561032243944400,6.5509443359375,7.7860307693481445,-0.32099398970603943,0.8559849858283997
1750561032253549000,6.560549072265625,7.283249855041504,-0.8587740063667297,2.8893790245056152
1750561032263154000,6.57015380859375,5.758430004119873,-1.176203966140747,5.357219219207764
1750561032272758800,6.5797587890625,3.679248094558716,-1.1613229513168335,6.183862209320068
1750561032282363400,6.58936328125,2.6842041015625,-1.2352240085601807,5.5599517822265625
1750561032291968000,6.598968017578125,2.4820380210876465,-1.053676962852478,4.043291091918945
1750561032301573000,6.608572998046875,2.2293429374694824,-0.9476869702339172,2.8716509342193604
1750561032311178000,6.618177978515625,0.9903969764709473,-0.8864039778709412,1.851817011833191
1750561032320782600,6.627782470703125,-0.29019299149513245,-0.8006380200386047,1.2749409675598145
1750561032330387500,6.637387451171875,-2.3961780071258545,-0.8599349856376648,1.3924200534820557
1750561032339992300,6.646992431640625,-4.843307018280029,-1.1735520362854004,1.8829100131988525
1750561032349597000,6.656596923828125,-6.531644821166992,-1.2216860055923462,2.7528939247131348
1750561032359201800,6.666201904296875,-7.567033767700195,-1.1681760549545288,3.4268479347229004
1750561032368806700,6.675806640625,-7.898197174072266,-1.290215015411377,2.6101529598236084
1750561032378411300,6.685411376953125,-8.334824562072754,-1.480855941772461,0.48205000162124634
1750561032388016000,6.69501611328125,-9.48267936706543,-1.6074069738388062,-1.5759869813919067
1750561032397621000,6.70462109375,-9.759906768798828,-1.7060949802398682,-2.6681079864501953
1750561032407225600,6.7142255859375,-9.055602073669434,-1.7516340017318726,-2.4096860885620117
1750561032416830500,6.72383056640625,-8.450773239135742,-1.9337799549102783,-1.4889370203018188
1750561032426435300,6.733435302734375,-6.568230152130127,-2.1360208988189697,-1.1970659494400024
1750561032436040000,6.7430400390625,-4.781521797180176,-2.301162004470825,-1.0696680545806885
1750561032445644800,6.752644775390625,-3.409498929977417,-3.110076904296875,-0.6483250260353088
1750561032455249700,6.762249755859375,-2.305569887161255,-3.465512990951538,-0.7104700207710266
1750561032464854500,6.7718544921875,-1.7331550121307373,-3.3192789554595947,-1.1355730295181274
1750561032474459100,6.781459228515625,-0.8598880171775818,-3.1182820796966553,-1.7340960502624512
1750561032484064000,6.79106396484375,0.05948000028729439,-2.5131590366363525,-3.0199599266052246
1750561032493668900,6.8006689453125,0.6293929815292358,-2.3420300483703613,-4.476545810699463
1750561032503273500,6.8102734375,1.13754403591156,-2.337048053741455,-5.973490238189697
1750561032512878300,6.81987841796875,1.3240660429000854,-2.0240559577941895,-6.701385974884033
1750561032522483200,6.829483154296875,0.41378098726272583,-1.615020990371704,-5.820974826812744
1750561032532087800,6.839087890625,-0.10675899684429169,-1.5228359699249268,-4.432627201080322
1750561032541692700,6.848692626953125,0.47582200169563293,-1.595790982246399,-3.8764638900756836
1750561032551297500,6.858297607421875,2.349195957183838,-1.8887749910354614,-3.64949893951416
1750561032560902400,6.86790234375,4.570309162139893,-2.1683990955352783,-2.472709894180298
1750561032570507300,6.87750732421875,5.858148097991943,-2.4456980228424072,0.051656000316143036
1750561032580112000,6.88711181640625,6.423810005187988,-2.115973949432373,1.9050450325012207
1750561032589716700,6.896716796875,5.952645778656006,-1.341539978981018,3.208638906478882
1750561032599321300,6.9063212890625,5.717483997344971,-0.9415839910507202,4.175990104675293
1750561032608926200,6.91592626953125,5.968280792236328,-0.8136900067329407,3.8051350116729736
1750561032618531000,6.925531005859375,6.163928031921387,-0.995468020439148,3.360603094100952
1750561032628136000,6.935135986328125,5.505423069000244,-0.8741729855537415,2.902456045150757
1750561032637740800,6.94474072265625,3.9748029708862305,-0.48975399136543274,3.7804360389709473
1750561032647345400,6.954345458984375,1.8499499559402466,-0.33356499671936035,5.572289943695068
1750561032656950300,6.9639501953125,0.1955229938030243,-0.44513100385665894,6.855045795440674
1750561032666555000,6.973554931640625,0.48361900448799133,0.09775599837303162,6.7331461906433105
1750561032676159700,6.98315966796875,1.637279987335205,0.89444899559021,4.808626174926758
1750561032685764600,6.9927646484375,3.025408983230591,0.7642650008201599,3.269901990890503
1750561032695369200,7.002369140625,3.4270830154418945,0.5123350024223328,2.186816930770874
1750561032704974000,7.01197412109375,2.7443130016326904,0.1616010069847107,1.7336900234222412
1750561032714579000,7.021578857421875,1.3539149761199951,0.025685999542474747,2.3087730407714844
1750561032724183800,7.031183837890625,-0.33684098720550537,0.1316390037536621,2.7138280868530273
1750561032733788400,7.040788330078125,-2.0048019886016846,0.16149599850177765,2.7386488914489746
1750561032743393000,7.05039306640625,-3.0211970806121826,0.06001200154423714,2.821661949157715
1750561032752998000,7.059997802734375,-3.033355951309204,0.00648800004273653,2.382848024368286
1750561032762603000,7.06960302734375,-2.131256103515625,-0.0037269999738782644,1.9484989643096924
1750561032772207600,7.07920751953125,-1.302780032157898,-0.18848900496959686,1.612684965133667
1750561032781812500,7.0888125,-0.7354900240898132,-0.3975270092487335,1.0319080352783203
1750561032791417000,7.0984169921875,-0.3882899880409241,-0.518775999546051,0.6762740015983582
1750561032801022000,7.10802197265625,-0.37402498722076416,-0.7282649874687195,0.24415600299835205
1750561032810626600,7.11762646484375,-0.6595110297203064,-0.8149740099906921,0.012543999589979649
1750561032820231400,7.1272314453125,-1.0635089874267578,-0.7117319703102112,-0.045476000756025314
1750561032829836000,7.1368359375,-1.723235011100769,-0.8598819971084595,0.35627999901771545
1750561032839441200,7.146441162109375,-2.214097023010254,-0.9918339848518372,0.9892650246620178
1750561032849046000,7.1560458984375,-1.9715410470962524,-0.9923670291900635,1.1955419778823853
1750561032858650600,7.165650634765625,-1.2244499921798706,-0.9346179962158203,1.1565580368041992
1750561032868255500,7.17525537109375,-0.2571119964122772,-0.8051999807357788,0.6086180210113525
1750561032877860000,7.184860107421875,0.4447459876537323,-0.7262579798698425,0.07195299863815308
1750561032887465000,7.19446484375,0.7048490047454834,-0.732437014579773,-0.2711000144481659
1750561032897069600,7.204069580078125,0.758538007736206,-0.7131109833717346,-0.5453720092773438
1750561032906674400,7.21367431640625,0.33672600984573364,-0.5990020036697388,-0.38100799918174744
1750561032916279600,7.223279541015625,-0.3292509913444519,-0.5447999835014343,-0.06797699630260468
1750561032925884200,7.23288427734375,-0.9317629933357239,-0.4645340144634247,0.3900189995765686
1750561032935488800,7.24248876953125,-1.114819049835205,-0.4193600118160248,0.8450769782066345
1750561032945093600,7.25209375,-0.8407620191574097,-0.3127880096435547,0.9548969864845276
1750561032954698500,7.261698486328125,-0.1103219985961914,-0.2209720015525818,0.7402499914169312
1750561032964303000,7.27130322265625,0.6971349716186523,-0.18188899755477905,0.2632420063018799
1750561032973908200,7.280908203125,1.2985700368881226,-0.14274300634860992,-0.24794700741767883
1750561032983512800,7.290512939453125,1.4418790340423584,-0.11831899732351303,-0.5306419730186462
1750561032993117700,7.30011767578125,1.015802025794983,-0.1335120052099228,-0.6834200024604797
1750561033002722600,7.30972265625,0.2983439862728119,-0.10828399658203125,-0.5198320150375366
1750561033012327200,7.3193271484375,-0.41255199909210205,-0.08498399704694748,-0.08724100142717361
1750561033021932000,7.32893212890625,-0.8970209956169128,-0.1726980060338974,0.3359780013561249
1750561033031536600,7.33853662109375,-0.9358559846878052,-0.1916860044002533,0.8302649855613708
1750561033041141500,7.3481416015625,-0.5625370144844055,-0.1770389974117279,1.0917409658432007
1750561033050746400,7.357746337890625,0.1993280053138733,-0.17110000550746918,0.6639459729194641
1750561033060351200,7.367351318359375,0.9139900207519531,-0.08616600185632706,0.07738800346851349
1750561033069955800,7.376955810546875,1.3763279914855957,-0.07387299835681915,-0.40656301379203796
1750561033079560700,7.386560791015625,1.3896889686584473,-0.05049100145697594,-0.6474900245666504
1750561033089165600,7.39616552734375,0.8466920256614685,-0.0880260020494461,-0.37150099873542786
1750561033098770200,7.405770263671875,0.1328980028629303,-0.07975699752569199,-0.11008500307798386
1750561033108375000,7.415375,-0.4410499930381775,-0.10517500340938568,0.3854059875011444
1750561033117979600,7.424979736328125,-0.7581110000610352,-0.11707500368356705,0.823947012424469
1750561033127584500,7.43458447265625,-0.6640920042991638,-0.020181000232696533,0.8154969811439514
1750561033137189400,7.444189453125,-0.24230000376701355,0.04197699949145317,0.43167299032211304
1750561033146794200,7.453794189453125,0.23907099664211273,0.036963000893592834,0.09271299839019775
1750561033156398800,7.46339892578125,0.6410350203514099,0.04087600111961365,-0.22924399375915527
1750561033166003700,7.473003662109375,0.7996479868888855,0.06259199976921082,-0.32470500469207764
1750561033175608600,7.482608642578125,0.7492610216140747,0.03886000066995621,-0.19708499312400818
1750561033185213400,7.49221337890625,0.46680301427841187,-0.08709300309419632,0.0764399990439415
1750561033194818000,7.501818115234375,-0.009568000212311745,-0.1368439942598343,0.36040300130844116
1750561033204423000,7.5114228515625,-0.5391039848327637,-0.1175990030169487,0.4466730058193207
1750561033214027800,7.52102783203125,-0.9870910048484802,-0.19449099898338318,0.4045239984989166
1750561033223632400,7.53063232421875,-1.0021549463272095,-0.20175500214099884,0.18151099979877472
1750561033233237200,7.5402373046875,-0.6689289808273315,-0.2100529968738556,-0.05875999853014946
1750561033242841900,7.549841796875,-0.1984959989786148,-0.2093919962644577,-0.3023500144481659
1750561033252446700,7.55944677734375,0.28692901134490967,-0.15713100135326385,-0.4182409942150116
1750561033262051800,7.5690517578125,0.7049670219421387,-0.06694699823856354,-0.3513469994068146
1750561033271656200,7.57865625,0.7239030003547668,-0.08538699895143509,-0.07679399847984314
1750561033281261000,7.588260986328125,0.5465880036354065,-0.037133000791072845,0.07540799677371979
1750561033290866000,7.597865966796875,-0.020382000133395195,-0.08480200171470642,0.2319519966840744
1750561033300470500,7.607470458984375,-0.5877509713172913,-0.04911600053310394,0.31215500831604004
1750561033310075400,7.617075439453125,-0.8635889887809753,-0.0006890000076964498,0.36072400212287903
1750561033319680000,7.626679931640625,-0.825186014175415,-0.007269999943673611,0.42635300755500793
1750561033329284900,7.636284912109375,-0.5940009951591492,-0.004945000167936087,0.40981701016426086
1750561033338889700,7.6458896484375,-0.019339000806212425,0.07951799780130386,0.215489000082016
1750561033348494300,7.655494384765625,0.5297319889068604,0.10876700282096863,0.022756999358534813
1750561033358099500,7.665099365234375,0.8874769806861877,0.04746200144290924,-0.06518200039863586
1750561033367704000,7.6747041015625,0.8704419732093811,0.05241300165653229,-0.11787699908018112
1750561033377309000,7.684308837890625,0.4976319968700409,-0.0084610003978014,0.13944700360298157
1750561033386913500,7.69391357421875,-0.05700000002980232,0.0011759999906644225,0.3903909921646118
1750561033396518400,7.703518310546875,-0.3965570032596588,0.007197000086307526,0.48659801483154297
1750561033406123000,7.713123046875,-0.4754840135574341,-0.012524999678134918,0.36429399251937866
1750561033415727900,7.722727783203125,-0.23398199677467346,-0.044401999562978745,0.09147399663925171
1750561033425332700,7.732332763671875,0.18104299902915955,-0.015169999562203884,-0.13724499940872192
1750561033434937600,7.7419375,0.39160099625587463,-0.018843999132514,-0.22173599898815155
1750561033444542500,7.75154248046875,0.4953779876232147,0.004914000164717436,-0.15659700334072113
1750561033454147000,7.76114697265625,0.23166200518608093,0.023770000785589218,-0.05890199914574623
1750561033463751700,7.770751708984375,-0.17837299406528473,-0.004540000110864639,0.09360300004482269
1750561033473356800,7.780356689453125,-0.5082700252532959,0.01032199990004301,0.2406029999256134
1750561033482961400,7.78996142578125,-0.4891349971294403,-0.041673000901937485,0.2546679973602295
1750561033492566300,7.799566162109375,-0.24720199406147003,-0.09166199713945389,0.21356399357318878
1750561033502171100,7.809171142578125,-0.06544599682092667,-0.10460899770259857,0.09193500131368637
1750561033511775700,7.818775634765625,0.10086899995803833,-0.013163999654352665,-0.0782030001282692
1750561033521380600,7.828380615234375,0.07733000069856644,0.03944399952888489,-0.19205200672149658
1750561033530985500,7.8379853515625,0.04655899852514267,0.08564700186252594,-0.3215239942073822
1750561033540590000,7.847590087890625,-0.05918499827384949,0.10278599709272385,-0.3214850127696991
1750561033550195000,7.85719482421875,-0.10515400022268295,0.031596001237630844,-0.15696200728416443
1750561033559799800,7.8667998046875,-0.12440399825572968,-0.024341000244021416,-0.06245199963450432
1750561033569404700,7.87640478515625,0.1152620017528534,-0.1456020027399063,0.016529999673366547
1750561033579009300,7.88600927734375,0.5034729838371277,-0.09130900353193283,0.05222000181674957
1750561033588614100,7.8956142578125,0.6238849759101868,-0.09715399891138077,0.07071399688720703
1750561033598218800,7.90521875,0.6020069718360901,-0.087398000061512,0.06789399683475494
1750561033607823600,7.91482373046875,0.3824479877948761,-0.07282999902963638,0.06615599989891052
1750561033617428500,7.924428466796875,0.046248000115156174,-0.10328499972820282,0.06800500303506851
1750561033627033300,7.934033447265625,-0.301580011844635,-0.08992499858140945,-0.011258999817073345
1750561033636638000,7.943637939453125,-0.43903499841690063,-0.06379800289869308,-0.13482500612735748
1750561033646242800,7.953242919921875,-0.3878040015697479,-0.045402999967336655,-0.26403799653053284
1750561033655847700,7.96284765625,-0.3109399974346161,-0.03386100009083748,-0.22533999383449554
1750561033665452300,7.972452392578125,-0.24312299489974976,-0.004579999949783087,-0.11256799846887589
1750561033675057000,7.982056884765625,-0.0683939978480339,0.0015660000499337912,-0.06865999847650528
1750561033684662000,7.991662109375,0.10527600347995758,-0.010123999789357185,0.010901999659836292
1750561033694267000,8.001266845703125,0.17511199414730072,-0.01284400001168251,0.05896100029349327
1750561033703871500,8.01087158203125,0.21048200130462646,0.027726000174880028,0.07373499870300293
1750561033713476400,8.020476318359375,0.23735900223255157,0.004075999837368727,-0.02305000089108944
1750561033723081000,8.0300810546875,0.2667500078678131,-0.02726699970662594,-0.10981299728155136
1750561033732685800,8.039685791015625,0.09137900173664093,-0.01203100010752678,-0.07706300169229507
1750561033742290700,8.049290771484374,-0.16067899763584137,-0.026204999536275864,0.024810999631881714
1750561033751895300,8.058895263671875,-0.428398996591568,-0.026801999658346176,0.18365299701690674
1750561033761500400,8.06850048828125,-0.3864920139312744,-0.01738400012254715,0.17226700484752655
1750561033771105000,8.07810498046875,-0.4045419991016388,-0.037248000502586365,0.18523800373077393
1750561033780709600,8.087709716796875,-0.3461439907550812,-0.019222000613808632,0.18587300181388855
1750561033790314500,8.097314453125,-0.13972200453281403,0.022424999624490738,0.054930999875068665
1750561033799919400,8.10691943359375,0.1082639992237091,0.05104399845004082,-0.10650099813938141
1750561033809524200,8.116524169921876,0.3045800030231476,0.07445800304412842,-0.31152498722076416
1750561033819129000,8.126129150390625,0.3027209937572479,0.029882999137043953,-0.33777299523353577
1750561033828733700,8.135733642578124,0.15721100568771362,-0.018331000581383705,-0.1189579963684082
1750561033838338600,8.145338623046875,-0.05650800094008446,-0.007571000140160322,0.10700000077486038
1750561033847943200,8.154943115234374,-0.163783997297287,-0.048569999635219574,0.2847990095615387
1750561033857548000,8.164548095703125,-0.18544000387191772,-0.04998999834060669,0.3746950030326843
1750561033867153000,8.17415283203125,-0.08207400143146515,-0.012515000067651272,0.2258410006761551
1750561033876757500,8.183757568359376,0.25007298588752747,0.051982998847961426,0.03864600136876106
1750561033886362400,8.1933623046875,0.564516007900238,0.06201300024986267,-0.14412599802017212
1750561033895967200,8.20296728515625,0.6007040143013,-0.018106000497937202,-0.2205449938774109
1750561033905571800,8.21257177734375,0.39538100361824036,0.012690999545156956,-0.24051399528980255
1750561033915176700,8.2221767578125,0.019744999706745148,0.026986999437212944,-0.11344999819993973
1750561033924781600,8.231781494140625,-0.4178149998188019,-0.06310799717903137,0.07051999866962433
1750561033934386400,8.241386474609374,-0.512794017791748,-0.04069200158119202,0.21534399688243866
1750561033943991300,8.2509912109375,-0.35719600319862366,-0.10413499921560287,0.3077310025691986
1750561033953596000,8.260595947265625,-0.1618330031633377,-0.10959800332784653,0.30801498889923096
1750561033963200800,8.27020068359375,0.0388059988617897,-0.04000699892640114,0.16519400477409363
1750561033972805600,8.2798056640625,0.10683900117874146,-0.03621299937367439,-0.0427279993891716
1750561033982410200,8.28941015625,0.07371199876070023,-0.01209499966353178,-0.26980099081993103
1750561033992014800,8.299014892578125,-0.06589099764823914,0.0218260008841753,-0.48179399967193604
1750561034001619700,8.30861962890625,-0.0787850022315979,0.09243500232696533,-0.5445740222930908
1750561034011224600,8.318224609375,-0.1265379935503006,0.10407800227403641,-0.4066469967365265
1750561034020829400,8.327829345703124,0.04683300107717514,-0.008921000175178051,-0.2522999942302704
1750561034030434000,8.33743408203125,0.07998800277709961,-0.0020020001102238894,-0.09672600030899048
1750561034040039000,8.347038818359374,0.005326999817043543,0.02506900019943714,0.06694100052118301
1750561034049643800,8.356643798828125,-0.19056500494480133,-0.06389299780130386,0.3323709964752197
1750561034059248400,8.366248291015625,-0.2955400049686432,-0.051010001450777054,0.4871790111064911
1750561034068853200,8.375853271484376,-0.15710699558258057,0.03761100023984909,0.365774005651474
1750561034078458000,8.3854580078125,-0.0446619987487793,0.03139900043606758,0.22619199752807617
1750561034088063000,8.39506298828125,-0.0656450018286705,-0.012868000194430351,0.0314599983394146
1750561034097667600,8.40466748046875,-0.11851900070905685,0.08308199793100357,-0.0989300012588501
1750561034107272400,8.4142724609375,-0.06621100008487701,0.11414799839258194,-0.20015400648117065
1750561034116877300,8.423877197265625,0.16550199687480927,0.06232000142335892,-0.3443619906902313
1750561034126482000,8.43348193359375,0.4117879867553711,0.001851000008173287,-0.3309819996356964
1750561034136086500,8.44308642578125,0.6112040281295776,0.0017659999430179596,-0.23378199338912964
1750561034145691400,8.45269140625,0.5359330177307129,-0.01750900037586689,-0.03467800095677376
1750561034155296300,8.462296142578126,0.16992099583148956,-0.06143999844789505,0.18499299883842468
1750561034164901000,8.471901123046875,-0.2956239879131317,-0.01193500030785799,0.0862559974193573
1750561034174506000,8.481506103515626,-0.5206220149993896,0.002452000044286251,-0.104823999106884
1750561034184110600,8.491110595703125,-0.4963020086288452,0.01789199933409691,-0.2105109989643097
1750561034193715500,8.500715576171874,-0.2855849862098694,0.03717999905347824,-0.37977099418640137
1750561034203320000,8.510320068359375,0.2557139992713928,0.11148600280284882,-0.6708620190620422
1750561034212925000,8.519925048828124,0.9929199814796448,0.12261400371789932,-0.9766839742660522
1750561034222529800,8.52952978515625,1.7166719436645508,0.08322799950838089,-0.9906929731369019
1750561034232134400,8.539134521484375,2.305166006088257,0.05087200179696083,-0.5433459877967834
1750561034241739300,8.5487392578125,2.5119640827178955,0.035645000636577606,0.10996899753808975
1750561034251344100,8.55834423828125,2.8062469959259033,-0.04331199824810028,0.8167539834976196
1750561034260948700,8.56794873046875,3.561645030975342,-0.06119599938392639,0.9782260060310364
1750561034270553600,8.5775537109375,5.554315090179443,0.026277000084519386,1.597311019897461
1750561034280158200,8.587158203125,6.863354206085205,0.09656800329685211,1.256404995918274
1750561034289763000,8.59676318359375,7.720648765563965,-0.5569660067558289,2.092737913131714
1750561034299368000,8.606367919921874,6.2398681640625,-1.024865984916687,2.495274066925049
1750561034308972800,8.615972900390625,3.7958829402923584,-1.338608980178833,2.6609020233154297
1750561034318577700,8.62557763671875,1.8814740180969238,-1.1048849821090698,3.941459894180298
1750561034328182300,8.635182373046876,-0.19723500311374664,-0.7719539999961853,4.797994136810303
1750561034337787100,8.644787109375,-1.632694959640503,-0.8743209838867188,4.309048175811768
1750561034347391700,8.654391845703126,-1.1068329811096191,-0.6057990193367004,4.259181022644043
1750561034356996600,8.66399658203125,-0.49553099274635315,-0.375883013010025,3.7632949352264404
1750561034366601200,8.673601318359376,0.1865610033273697,-0.7240750193595886,2.867511034011841
1750561034376206300,8.683206298828125,-0.3947469890117645,-0.802649974822998,1.5070199966430664
1750561034385811000,8.69281103515625,-2.0492970943450928,-0.8219990134239197,-0.5499230027198792
1750561034395415800,8.702415771484375,-3.9899799823760986,-0.8850870132446289,-1.902351975440979
1750561034405020400,8.7120205078125,-5.90826416015625,-1.0030720233917236,-0.9714959859848022
1750561034414625300,8.721625244140625,-7.193999767303467,-0.9328359961509705,0.5314980149269104
1750561034424230100,8.731230224609375,-8.027103424072266,-1.0872520208358765,1.0998929738998413
1750561034433834800,8.740834716796876,-8.42006778717041,-1.630033016204834,0.8579180240631104
1750561034443439400,8.750439453125,-8.446859359741211,-2.049436092376709,-0.01384000014513731
1750561034453044500,8.76004443359375,-7.917366027832031,-2.269850015640259,-1.3122119903564453
1750561034462649300,8.7696494140625,-7.177416801452637,-2.0862479209899902,-2.8219709396362305
1750561034472254000,8.77925390625,-6.047900199890137,-2.4629321098327637,-3.1258060932159424
1750561034481858800,8.78885888671875,-5.3176350593566895,-2.9762959480285645,-2.0153470039367676
1750561034491463400,8.79846337890625,-4.270744800567627,-3.279278039932251,-1.067613959312439
1750561034501068300,8.808068359375,-3.2911200523376465,-3.19795298576355,-2.209217071533203
1750561034510673200,8.817673095703125,-2.7276270389556885,-3.3584420680999756,-4.272101879119873
1750561034520277800,8.82727783203125,-2.0407330989837646,-3.5342180728912354,-5.7647199630737305
1750561034529882600,8.836882568359375,-1.1373599767684937,-3.127657890319824,-6.003330230712891
1750561034539487500,8.846487548828126,-0.6197180151939392,-2.53574800491333,-5.231994152069092
1750561034549092000,8.856092041015625,-1.8014830350875854,-2.256340980529785,-4.26712703704834
1750561034558697000,8.865697021484374,-3.887708902359009,-2.528872013092041,-2.82737398147583
1750561034568301600,8.875301513671875,-4.471106052398682,-2.80116605758667,-1.7586549520492554
1750561034577906700,8.88490673828125,-2.699321985244751,-2.833559989929199,-1.8947219848632812
1750561034587511300,8.89451123046875,1.3851569890975952,-2.370574951171875,-2.0849449634552
1750561034597116200,8.9041162109375,5.82428503036499,-1.6264270544052124,-2.3356471061706543
1750561034606721000,8.913720947265626,9.451199531555176,-0.772508978843689,-2.8351941108703613
1750561034616325600,8.92332568359375,11.527932167053223,-0.26628801226615906,-3.616426944732666
1750561034625930500,8.932930419921876,11.862009048461914,-0.24606099724769592,-3.631908893585205
1750561034635535000,8.94253515625,10.262003898620605,-0.3413969874382019,-2.104259967803955
1750561034645140000,8.952139892578124,6.992855072021484,-0.6473090052604675,0.09760899841785431
1750561034654744800,8.961744873046875,3.5200119018554688,-1.3113280534744263,3.7473700046539307
1750561034664349700,8.971349609375,1.1382540464401245,-1.5867120027542114,6.5227508544921875
1750561034673954600,8.98095458984375,0.7485610246658325,-1.0883640050888062,7.791888236999512
1750561034683559200,8.99055908203125,1.9106329679489136,-0.13141100108623505,7.30082893371582
1750561034693164000,9.0001640625,4.8698320388793945,0.4781759977340698,5.264102935791016
1750561034702768600,9.0097685546875,6.940079212188721,0.7837200164794922,2.8907599449157715
1750561034712373800,9.019373779296876,7.212441921234131,0.8798320293426514,0.7221310138702393
1750561034721978400,9.028978271484375,5.50104284286499,0.6435139775276184,-0.2988539934158325
1750561034731583000,9.0385830078125,2.680182933807373,0.32526400685310364,0.07044299691915512
1750561034741187800,9.048187744140625,-0.06846699863672256,0.34175801277160645,1.4510829448699951
1750561034750792700,9.057792724609374,-2.658263921737671,0.3123970031738281,3.4514670372009277
1750561034760397300,9.067397216796875,-4.088813781738281,0.16328999400138855,5.529627799987793
1750561034770002200,9.077002197265625,-4.3653130531311035,0.4709610044956207,5.230888843536377
1750561034779606800,9.086606689453125,-2.621875047683716,0.7407540082931519,3.173845052719116
1750561034789211600,9.096211669921875,-0.9385690093040466,0.6253640055656433,0.8877170085906982
1750561034798816500,9.10581640625,0.1612820029258728,0.32608500123023987,-0.4134399890899658
1750561034808421400,9.11542138671875,0.17184899747371674,0.29128599166870117,-0.6644319891929626
1750561034818026200,9.125026123046876,-0.9073799848556519,0.14393900334835052,-0.025404000654816628
1750561034827630800,9.134630859375,-1.9026930332183838,-0.16573099792003632,0.8132579922676086
1750561034837235700,9.144235595703124,-2.6628470420837402,-0.2642250061035156,1.1653319597244263
1750561034846840300,9.15384033203125,-3.1053900718688965,-0.39706599712371826,1.0449910163879395
1750561034856445000,9.16344482421875,-3.1397058963775635,-0.5653809905052185,0.6417019963264465
1750561034866049800,9.1730498046875,-2.443281888961792,-0.6203640103340149,0.24705800414085388
1750561034875655000,9.182655029296875,-1.6617599725723267,-0.6389529705047607,-0.010007999837398529
1750561034885259500,9.192259521484376,-1.0559250116348267,-0.673740029335022,-0.2755579948425293
1750561034894864400,9.201864501953125,-0.48026201128959656,-0.593038022518158,-0.4630810022354126
1750561034904469200,9.21146923828125,-0.20466500520706177,-0.49639299511909485,-0.47311198711395264
1750561034914073900,9.221073974609375,-0.17136000096797943,-0.5134789943695068,-0.22725699841976166
1750561034923678500,9.230678466796874,-0.22227999567985535,-0.4240429997444153,-0.043331000953912735
1750561034933283300,9.240283447265625,-0.36554500460624695,-0.4487070143222809,0.15112300217151642
1750561034942888200,9.24988818359375,-0.6313560009002686,-0.5329369902610779,0.682545006275177
1750561034952493000,9.2594931640625,-0.9252550005912781,-0.44784799218177795,1.0697599649429321
1750561034962097700,9.26909765625,-0.8681399822235107,-0.40980198979377747,1.0561360120773315
1750561034971702500,9.27870263671875,-0.3362480103969574,-0.32685598731040955,0.539035975933075
1750561034981307100,9.28830712890625,0.4588199853897095,-0.17505599558353424,-0.09402299672365189
1750561034990912000,9.297912109375,1.2193870544433594,-0.13851700723171234,-0.6513820290565491
1750561035000516900,9.307516845703125,1.6490470170974731,-0.19287000596523285,-0.8996120095252991
1750561035010121500,9.31712158203125,1.3228269815444946,-0.22531099617481232,-0.7628949880599976
1750561035019726600,9.3267265625,0.5060139894485474,-0.21756500005722046,-0.44315001368522644
1750561035029331200,9.336331298828124,-0.44191399216651917,-0.22612999379634857,0.010627999901771545
1750561035038936000,9.34593603515625,-1.2084870338439941,-0.18658199906349182,0.43257200717926025
1750561035048540700,9.355540771484375,-1.2732069492340088,-0.07626699656248093,0.22047799825668335
1750561035058145500,9.3651455078125,-0.732903003692627,0.05443599820137024,-0.16612699627876282
1750561035067750400,9.37475048828125,0.10580100119113922,0.033107999712228775,-0.4344410002231598
1750561035077355300,9.384355224609376,0.7048199772834778,-0.03723900020122528,-0.5005919933319092
1750561035086959900,9.3939599609375,1.0226900577545166,0.00889500044286251,-0.5069190263748169
1750561035096564700,9.403564697265624,0.9275990128517151,0.0554950013756752,-0.205703005194664
1750561035106169300,9.41316943359375,0.47370800375938416,0.03381900116801262,0.02668200060725212
1750561035115774200,9.422774169921874,0.0067819999530911446,0.10373900085687637,0.1060359999537468
1750561035125378800,9.43237890625,-0.27528199553489685,0.06726499646902084,0.01666099950671196
1750561035134983700,9.441983642578125,-0.3543420135974884,0.034627001732587814,-0.049525998532772064
1750561035144588500,9.451588623046876,-0.533577024936676,0.025713000446558,-0.11858099699020386
1750561035154193200,9.461193115234375,-0.5229949951171875,0.0294560007750988,-0.12786799669265747
1750561035163798300,9.47079833984375,-0.40138399600982666,0.048983000218868256,-0.1133740022778511
1750561035173403000,9.48040283203125,-0.15131500363349915,0.048666998744010925,-0.052306998521089554
1750561035183007700,9.4900078125,0.08911799639463425,0.024903999641537666,-0.015985000878572464
1750561035192612400,9.4996123046875,0.5688009858131409,0.07076500356197357,0.12233799695968628
1750561035202217200,9.50921728515625,0.974481999874115,0.027247000485658646,0.36036399006843567
1750561035211821800,9.51882177734375,1.0477830171585083,-0.003611000021919608,0.2571380138397217
1750561035221427000,9.528427001953125,0.553197979927063,0.00481700012460351,0.04740900173783302
1750561035231031600,9.538031494140625,-0.11473999917507172,-0.07164599746465683,-0.023902999237179756
1750561035240636400,9.547636474609375,-0.6276090145111084,-0.05886700004339218,0.1456650048494339
1750561035250241000,9.557240966796876,-0.9692999720573425,-0.01398599985986948,0.28666698932647705
1750561035259846000,9.566845947265625,-0.8745759725570679,0.07849899679422379,0.3716590106487274
1750561035269450800,9.57645068359375,-0.5154529809951782,0.033622998744249344,0.29155299067497253
1750561035279055400,9.586055419921875,-0.040132999420166016,0.056836001574993134,0.18478399515151978
1750561035288660500,9.595660400390624,0.36805999279022217,0.06581799685955048,0.15512199699878693
1750561035298265000,9.60526513671875,0.6082820296287537,0.036511000245809555,0.19380399584770203
1750561035307869700,9.61486962890625,0.6534039974212646,0.01039199996739626,0.13983400166034698
1750561035317474600,9.624474609375,0.45269298553466797,0.025730999186635017,0.015922000631690025
1750561035327079200,9.6340791015625,0.25220799446105957,0.008851000107824802,0.026057999581098557
1750561035336684000,9.64368408203125,0.12150699645280838,0.0039049999322742224,0.09927099943161011
1750561035346289000,9.653288818359375,0.09414699673652649,-0.03075999952852726,0.21308399736881256
1750561035355893500,9.6628935546875,0.13791200518608093,-0.006988999899476767,0.2445259988307953
1750561035365498600,9.67249853515625,0.18605999648571014,-0.013558999635279179,0.1886730045080185
1750561035375103200,9.682103271484374,0.11291500180959702,-0.03559599816799164,0.06454800069332123
1750561035384707800,9.691707763671875,-0.05615999922156334,-0.03963400050997734,0.021932000294327736
1750561035394312700,9.701312744140624,-0.16737100481987,-0.019429000094532967,-0.08359599858522415
1750561035403917600,9.71091748046875,-0.08188699930906296,-0.0077149998396635056,-0.11589200049638748
1750561035413522200,9.720522216796875,-0.06316699832677841,-0.06682900339365005,0.05311200022697449
1750561035423127300,9.730127197265626,-0.11678899824619293,-0.08214399963617325,0.15867100656032562
1750561035432732200,9.739732177734375,-0.05400700122117996,0.01261099986732006,0.12138699740171432
1750561035442336800,9.749336669921876,-0.027427000924944878,-0.002239000052213669,0.020080000162124634
1750561035451941400,9.75894140625,0.09940700232982635,-0.0580499991774559,-0.05865500122308731
1750561035461546200,9.768546142578124,0.1344289928674698,-0.04066599905490875,-0.035592999309301376
1750561035471151000,9.778151123046875,0.030573999509215355,-0.036795999854803085,-0.020246999338269234
1750561035480756000,9.787755859375,-0.09998100250959396,-0.07219900190830231,0.06350500136613846
1750561035490360600,9.797360595703125,-0.19627200067043304,-0.06569100171327591,0.02354400046169758
1750561035499965400,9.80696533203125,-0.1500539928674698,-0.033263999968767166,-0.006903999950736761
1750561035509570000,9.816570068359376,-0.06302999705076218,-0.03045699931681156,-0.10726600140333176
1750561035519175000,9.8261748046875,0.08238600194454193,-0.013128000311553478,-0.23849399387836456
1750561035528779800,9.83577978515625,0.22412699460983276,0.030244000256061554,-0.267875999212265
1750561035538384600,9.845384521484375,0.277538001537323,0.01793299987912178,-0.15725600719451904
1750561035547989200,9.8549892578125,0.20626899600028992,-0.002991999965161085,-0.09046799689531326
1750561035557594000,9.864593994140625,0.0925310030579567,0.016464000567793846,0.0025019999593496323
1750561035567199000,9.874198974609374,-0.1911180019378662,0.013435999862849712,0.022797999903559685
1750561035576803600,9.883803466796875,-0.4532940089702606,0.05056700110435486,-0.009759999811649323
1750561035586408400,9.893408447265625,-0.5973029732704163,0.06969600170850754,-0.03824999928474426
1750561035596013000,9.903012939453125,-0.4446350038051605,0.06851699948310852,-0.0728750005364418
1750561035605618000,9.912617919921875,-0.06314799934625626,0.10257700085639954,-0.12924599647521973
1750561035615222800,9.922222900390626,0.3015640079975128,0.047965001314878464,-0.10395000129938126
1750561035624827400,9.931827392578125,0.5420870184898376,0.10458099842071533,-0.12158499658107758
1750561035634432500,9.9414326171875,0.5007539987564087,0.11765500158071518,0.037831999361515045
1750561035644037000,9.951037109375,0.2987160086631775,0.07971999794244766,0.3062779903411865
1750561035653641700,9.960641845703124,0.10392799973487854,0.08628900349140167,0.3145099878311157
1750561035663246600,9.97024658203125,-0.04382200166583061,0.04967299848794937,0.2720879912376404
1750561035672851500,9.9798515625,-0.06131900101900101,0.07156000286340714,0.032933998852968216
1750561035682456000,9.9894560546875,-0.10147099941968918,0.011633000336587429,-0.06504099816083908
1750561035692060700,9.999060791015625,-0.024173999205231667,-0.018048999831080437,-0.19450899958610535
1750561035701665500,10.00866552734375,0.17674200236797333,-0.030186999589204788,-0.2453559935092926
1750561035711270400,10.0182705078125,0.16175900399684906,-0.05133400112390518,-0.10420600324869156
1750561035720875300,10.027875244140626,-0.06783100217580795,-0.09493699669837952,0.06525599956512451
1750561035730479900,10.03747998046875,-0.26555299758911133,-0.07924100011587143,0.15291400253772736
1750561035740084700,10.047084716796874,-0.45737698674201965,-0.14445500075817108,0.23185700178146362
1750561035749689300,10.056689453125,-0.3691689968109131,-0.13614100217819214,0.3221229910850525
1750561035759294200,10.066294189453124,-0.07973899692296982,-0.0696140006184578,0.1650339961051941
1750561035768899000,10.075899169921875,0.4567359983921051,-0.044332001358270645,-0.10019399970769882
1750561035778504000,10.08550390625,0.7819759845733643,-0.009128999896347523,-0.34902000427246094
1750561035788108500,10.095108642578126,0.7316110134124756,-0.052588000893592834,-0.38659098744392395
1750561035797713400,10.10471337890625,0.24762700498104095,-0.044867001473903656,-0.21828599274158478
1750561035807318300,10.114318359375,-0.287214994430542,-0.07156699895858765,-0.006949999835342169
1750561035816923000,10.1239228515625,-0.5950919985771179,-0.09110900014638901,0.18973399698734283
1750561035826527500,10.133527587890624,-0.6599689722061157,-0.07250799983739853,0.2048870027065277
1750561035836132400,10.14313232421875,-0.5134279727935791,-0.05416399985551834,0.11967600136995316
1750561035845737200,10.1527373046875,-0.27522599697113037,-0.044110000133514404,-0.005563999991863966
1750561035855342000,10.162342041015625,-0.0974849984049797,0.00204299995675683,-0.033764999359846115
1750561035864946700,10.17194677734375,-0.07335399836301804,0.010510999709367752,-0.024165000766515732
1750561035874551600,10.181551513671875,-0.07171899825334549,0.045329999178647995,-0.0847420021891594
1750561035884156400,10.191156494140625,0.00006299999949987978,0.10531099885702133,-0.10433100163936615
1750561035893761000,10.200760986328126,0.1167289987206459,0.08009999990463257,-0.09360499680042267
1750561035903366000,10.210365966796875,0.06614299863576889,0.04465299844741821,0.029920000582933426
1750561035912970500,10.219970458984376,-0.09405100345611572,0.03062799945473671,0.13424299657344818
1750561035922575600,10.22957568359375,-0.26514101028442383,0.0611720010638237,0.13356199860572815
1750561035932180200,10.23918017578125,-0.2970080077648163,0.07683800160884857,0.11083599925041199
1750561035941785000,10.24878515625,-0.19620800018310547,0.05093200132250786,0.03365499898791313
1750561035951389700,10.2583896484375,0.15359799563884735,0.11192599684000015,-0.0002530000056140125
1750561035960994600,10.26799462890625,0.3631719946861267,0.06420700252056122,-0.06699799746274948
1750561035970599200,10.27759912109375,0.5050579905509949,0.08225999772548676,-0.2050199955701828
1750561035980204000,10.2872041015625,0.45843398571014404,0.10009899735450745,-0.26630499958992004
1750561035989809000,10.296808837890625,0.20452700555324554,0.01643100008368492,0.03613600134849548
1750561035999413500,10.30641357421875,-0.12226299941539764,-0.05903400108218193,0.2587519884109497
1750561036009018400,10.316018310546875,-0.23609499633312225,-0.10544999688863754,0.2842090129852295
1750561036018623200,10.325623291015624,-0.22004200518131256,-0.10578600317239761,0.19738100469112396
1750561036028228000,10.33522802734375,-0.0654899999499321,-0.08723299950361252,0.09291400015354156
1750561036037832700,10.344832763671874,-0.011288999579846859,-0.0962349995970726,-0.024212999269366264
1750561036047437300,10.354437255859375,-0.12574300169944763,-0.08115199953317642,-0.20295900106430054
1750561036057042200,10.364042236328125,-0.23866599798202515,-0.0565899983048439,-0.25494399666786194
1750561036066646800,10.373646728515626,-0.16568900644779205,-0.032944001257419586,-0.18468999862670898
1750561036076251600,10.383251708984375,0.007302999962121248,0.00036299999919719994,-0.033229000866413116
1750561036085856500,10.3928564453125,0.1544169932603836,0.008150000125169754,0.09498699754476547
1750561036095461400,10.40246142578125,0.31480199098587036,0.005841999780386686,0.0281980000436306
1750561036105066200,10.412066162109374,0.41078999638557434,0.0031799999997019768,-0.036727000027894974
1750561036114670800,10.4216708984375,0.3939320147037506,0.009026000276207924,-0.08419699966907501
1750561036124275700,10.431275634765624,0.00506999995559454,-0.02446099929511547,-0.048177000135183334
1750561036133880300,10.44088037109375,-0.4565480053424835,-0.06371799856424332,0.09640099853277206
1750561036143485000,10.45048486328125,-0.7195259928703308,-0.0030169999226927757,0.2351980060338974
1750561036153089800,10.46008984375,-0.837939977645874,-0.04258900135755539,0.38168901205062866
1750561036162695000,10.46969482421875,-0.6467450261116028,-0.0330360010266304,0.2806139886379242
1750561036172299500,10.479299560546876,-0.4140230119228363,0.010844999924302101,-0.014465999789536
1750561036181904100,10.488904052734375,-0.061622001230716705,-0.01723100058734417,-0.2780590057373047
1750561036191509200,10.49850927734375,0.2894290089607239,-0.003790999995544553,-0.5361469984054565
1750561036201113600,10.508113525390625,0.48899099230766296,-0.029548000544309616,-0.5831220149993896
1750561036210718500,10.517718505859374,0.37202998995780945,-0.10139100253582001,-0.5292620062828064
1750561036220323300,10.5273232421875,-0.07269100099802017,-0.1260319948196411,-0.38206198811531067
1750561036229928000,10.536927978515624,-0.45150598883628845,-0.1707330048084259,-0.2902590036392212
1750561036239533000,10.546532958984375,-0.6892989873886108,-0.161748006939888,-0.24500800669193268
1750561036249137700,10.5561376953125,-0.9063090085983276,-0.14830900728702545,-0.34240201115608215
1750561036258742500,10.565742431640626,-0.7923449873924255,-0.1611189991235733,-0.5526000261306763
1750561036268347100,10.57534716796875,-0.3182869851589203,-0.1862040013074875,-0.770226001739502
1750561036277952000,10.584951904296876,0.8653020262718201,-0.1308719962835312,-1.044700026512146
1750561036287556900,10.594556884765625,2.9740490913391113,0.02948099933564663,-0.4756770133972168
1750561036297161700,10.60416162109375,4.9874491691589355,0.16182400286197662,0.8475189805030823
1750561036306766300,10.613766357421875,6.140214920043945,0.07391399890184402,1.4225939512252808
1750561036316371200,10.62337109375,6.68159294128418,-0.08139599859714508,1.7071969509124756
1750561036325976000,10.63297607421875,6.071103096008301,0.036653000861406326,2.160693883895874
1750561036335580700,10.64258056640625,4.485645771026611,-0.22289200127124786,2.6328940391540527
1750561036345185300,10.652185302734376,3.179210901260376,-0.245945006608963,3.0792620182037354
1750561036354790100,10.6617900390625,2.4252231121063232,0.03874000161886215,3.4484341144561768
1750561036364395300,10.671395263671876,2.553942918777466,0.11274900287389755,3.5784010887145996
1750561036373999900,10.680999755859375,4.294981002807617,0.05873500183224678,3.72257399559021
1750561036383604500,10.6906044921875,5.4338507652282715,-0.2977379858493805,3.8474159240722656
1750561036393209300,10.700209228515625,4.925937175750732,-0.8434069752693176,3.474376916885376
1750561036402814200,10.709814208984374,3.2623770236968994,-1.2370450496673584,3.298564910888672
1750561036412418800,10.719418701171875,0.6216250061988831,-1.2742550373077393,2.730057954788208
1750561036422023400,10.7290234375,-1.4395960569381714,-1.1796369552612305,2.3382880687713623
1750561036431628300,10.738628173828126,-3.351149082183838,-1.121222972869873,2.0225260257720947
1750561036441233400,10.7482333984375,-4.781714916229248,-1.3862090110778809,2.500063896179199
1750561036450838000,10.757838134765626,-6.252795219421387,-1.5038859844207764,2.7344601154327393
1750561036460443000,10.76744287109375,-7.169213771820068,-1.2958650588989258,2.6655728816986084
1750561036470047500,10.777047607421874,-7.338254928588867,-1.0718729496002197,2.5669939517974854
1750561036479652400,10.78665234375,-7.555971145629883,-0.9788900017738342,1.2759050130844116
1750561036489257000,10.796257080078124,-7.524855136871338,-1.2542710304260254,-0.6568009853363037
1750561036498861600,10.805861572265625,-7.784914970397949,-1.6459959745407104,-2.0064098834991455
1750561036508466700,10.815466796875,-7.846746921539307,-1.9183460474014282,-2.4575929641723633
1750561036518071300,10.8250712890625,-7.314458847045898,-2.310797929763794,-1.1896460056304932
1750561036527676200,10.83467626953125,-6.709662914276123,-2.596334934234619,0.2579919993877411
1750561036537280800,10.84428076171875,-6.224582195281982,-2.5016419887542725,0.10600300133228302
1750561036546885600,10.8538857421875,-5.26649284362793,-2.536067008972168,-0.3198609948158264
1750561036556490500,10.863490478515626,-3.779642105102539,-2.483581066131592,-1.9056129455566406
1750561036566095400,10.873095458984375,-2.820251941680908,-2.6942009925842285,-3.232027053833008
1750561036575700000,10.882699951171874,-2.2406210899353027,-3.328687906265259,-3.6401290893554688
1750561036585304600,10.8923046875,-2.4098451137542725,-3.6316919326782227,-3.664638042449951
1750561036594909700,10.90190966796875,-3.46492600440979,-3.3767940998077393,-3.439220905303955
1750561036604514300,10.911514404296875,-4.994534969329834,-3.0157549381256104,-3.371769905090332
1750561036614119200,10.921119140625,-6.09059476852417,-2.797616958618164,-3.584800958633423
1750561036623723800,10.930723876953126,-6.1846442222595215,-2.809886932373047,-2.927544116973877
1750561036633328600,10.94032861328125,-4.597365856170654,-2.848839044570923,-2.5198349952697754
1750561036642933500,10.94993359375,-1.766855001449585,-2.79115891456604,-2.4293510913848877
1750561036652538000,10.9595380859375,2.6229310035705566,-2.42274808883667,-2.3090569972991943
1750561036662143000,10.96914306640625,8.03444766998291,-1.3555690050125122,-2.0664520263671875
1750561036671747800,10.978747802734375,12.201931953430176,-0.20649200677871704,-2.06500506401062
1750561036681352400,10.9883525390625,13.930251121520996,-0.003200999926775694,-1.988353967666626
1750561036690957300,10.997957275390625,13.42029857635498,0.20183199644088745,-2.9907310009002686
1750561036700562000,11.00756201171875,11.020017623901367,0.12191800028085709,-2.493349075317383
1750561036710166800,11.017166748046876,7.16945219039917,-0.6490920186042786,0.8933990001678467
1750561036719771600,11.026771728515625,3.2598910331726074,-1.3986220359802246,3.7180700302124023
1750561036729376500,11.03637646484375,1.3498300313949585,-1.3096779584884644,5.931838035583496
1750561036738981400,11.0459814453125,0.5991250276565552,-0.7210360169410706,6.759976863861084
1750561036748586000,11.0555859375,2.42808198928833,-0.16655300557613373,5.926161766052246
1750561036758190600,11.065190673828125,5.643683910369873,0.28485798835754395,4.530869007110596
1750561036767795200,11.074795166015624,8.045782089233398,0.5736160278320312,2.9726829528808594
1750561036777400000,11.084400146484375,8.192680358886719,0.6557049751281738,2.004633903503418
1750561036787005000,11.0940048828125,6.140480995178223,0.5887060165405273,1.7138530015945435
1750561036796609800,11.10360986328125,3.059993028640747,0.35147199034690857,1.642645001411438
1750561036806214400,11.11321435546875,0.0024470000062137842,0.09322000294923782,2.077265977859497
1750561036815819300,11.1228193359375,-2.4249870777130127,-0.1467379927635193,2.914825916290283
1750561036825424100,11.132424072265625,-4.054750919342041,-0.11822699755430222,3.794318914413452
1750561036835028700,11.14202880859375,-4.733701229095459,0.10008999705314636,3.7411179542541504
1750561036844633600,11.151633544921875,-4.057378768920898,0.2525320053100586,2.640810012817383
1750561036854238500,11.161238525390624,-2.6997320652008057,0.20223000645637512,1.013381004333496
1750561036863843000,11.170843017578125,-1.5604790449142456,0.048558998852968216,-0.14268699288368225
1750561036873448000,11.180447998046875,-1.1055330038070679,-0.06356699764728546,-0.7380959987640381
1750561036883052500,11.190052490234375,-1.321903944015503,-0.2124370038509369,-0.7475519776344299
1750561036892657400,11.199657470703125,-1.8338119983673096,-0.40276700258255005,-0.2433599978685379
1750561036902262300,11.20926220703125,-2.3187689781188965,-0.5627269744873047,0.3242650032043457
1750561036911867100,11.2188671875,-2.741492986679077,-0.6158999800682068,0.754925012588501
1750561036921471700,11.2284716796875,-2.896085023880005,-0.6329460144042969,1.171481966972351
1750561036931076400,11.238076416015625,-2.8294780254364014,-0.5328390002250671,1.0283759832382202
1750561036940681200,11.24768115234375,-2.182265043258667,-0.4407089948654175,0.4185520112514496
1750561036950286000,11.2572861328125,-1.4597280025482178,-0.3555150032043457,-0.29559800028800964
1750561036959891000,11.266890869140624,-0.7802659869194031,-0.3111959993839264,-0.8859850168228149
1750561036969495600,11.27649560546875,-0.2876250147819519,-0.25987398624420166,-0.9908419847488403
1750561036979100400,11.286100341796875,-0.34198999404907227,-0.24141299724578857,-0.3395349979400635
1750561036988705000,11.295705078125,-0.6159650087356567,-0.24198700487613678,0.20833800733089447
1750561036998310000,11.305309814453125,-0.6699849963188171,-0.18179599940776825,0.49327200651168823
1750561037007914500,11.31491455078125,-0.4533909857273102,-0.19305500388145447,0.5419939756393433
1750561037017519400,11.324519287109375,-0.20220600068569183,-0.15585200488567352,0.3939180076122284
1750561037027124200,11.334124267578124,0.038417998701334,-0.0401029996573925,0.15158100426197052
1750561037036728800,11.343728759765625,0.17771899700164795,-0.030549999326467514,0.00762900011613965
1750561037046333700,11.353333740234374,0.20616300404071808,0.05542200058698654,-0.005251999944448471
1750561037055938600,11.3629384765625,0.258976012468338,0.11748600006103516,-0.04433700069785118
1750561037065543200,11.372543212890625,0.371845006942749,0.16477100551128387,-0.012307999655604362
1750561037075148000,11.38214794921875,0.3477810025215149,0.1872279942035675,-0.03594899922609329
1750561037084752600,11.391752685546875,0.38498300313949585,0.13954399526119232,-0.11240500211715698
1750561037094357500,11.401357421875,0.398140013217926,0.010001000016927719,-0.16419099271297455
1750561037103962400,11.41096240234375,0.41613999009132385,-0.06752000004053116,-0.2532559931278229
1750561037113567200,11.420567138671874,0.27683401107788086,-0.004172999877482653,-0.30723100900650024
1750561037123172000,11.430172119140625,0.24106399714946747,0.0324850007891655,-0.2218170017004013
1750561037132776700,11.439776611328124,0.37344101071357727,0.038651999086141586,0.010096999816596508
1750561037142381300,11.44938134765625,0.4680030047893524,0.07275699824094772,0.1355469971895218
1750561037151986200,11.458986083984374,0.551410973072052,0.08883500099182129,-0.10804499685764313
1750561037161591000,11.468591064453125,0.4610840082168579,0.11589600145816803,-0.35117998719215393
1750561037171195600,11.478195556640625,0.16061900556087494,0.09574200212955475,-0.4320549964904785
1750561037180800500,11.487800537109376,-0.15066300332546234,0.02657400071620941,-0.2715649902820587
1750561037190405400,11.4974052734375,-0.362278014421463,-0.021421000361442566,-0.07313500344753265
1750561037200010000,11.507010009765626,-0.3630659878253937,-0.044353000819683075,0.07231699675321579
1750561037209614800,11.51661474609375,-0.2965239882469177,-0.02092299982905388,0.13479000329971313
1750561037219219500,11.526219482421874,-0.30438199639320374,-0.0090549997985363,-0.03125600144267082
1750561037228824300,11.53582421875,-0.2910589873790741,0.02999499998986721,-0.1934570074081421
1750561037238429200,11.54542919921875,-0.3366070091724396,0.06759700179100037,-0.2851000130176544
1750561037248033800,11.55503369140625,-0.34164300560951233,0.00674099987372756,-0.20252999663352966
1750561037257638700,11.564638671875,-0.26347100734710693,-0.017878999933600426,-0.11806199699640274
1750561037267243500,11.574243408203126,0.0943790003657341,-0.10654299706220627,0.2923949956893921
1750561037276848000,11.58384814453125,0.41469499468803406,-0.1656779944896698,0.8020949959754944
1750561037286453000,11.593452880859376,0.5916299819946289,-0.12923100590705872,1.0188230276107788
1750561037296057600,11.6030576171875,0.4972270131111145,-0.02644900046288967,0.8377150297164917
1750561037305662500,11.612662353515624,0.09433099627494812,0.05714000016450882,0.3753019869327545
1750561037315267000,11.62226708984375,-0.3696329891681671,0.07116600126028061,0.022417999804019928
1750561037324872000,11.631871826171874,-0.7043560147285461,0.057868000119924545,-0.09879299998283386
1750561037334477000,11.64147705078125,-0.763929009437561,0.09768100082874298,-0.06317000091075897
1750561037344081700,11.65108154296875,-0.4836449921131134,0.08535800129175186,0.08252900093793869
1750561037353686500,11.6606865234375,0.05431300029158592,0.05964399874210358,0.2208009958267212
1750561037363291100,11.670291015625,0.556784987449646,0.008860000409185886,0.36970698833465576
1750561037372895700,11.679895751953126,0.8535900115966797,0.00016500000492669642,0.31914201378822327
1750561037382500900,11.6895009765625,0.8880829811096191,0.0407399982213974,0.23469200730323792
1750561037392105500,11.69910546875,0.48315998911857605,0.0168830007314682,0.19599899649620056
1750561037401710300,11.70871044921875,0.04468199983239174,-0.028814999386668205,0.05715499818325043
1750561037411315000,11.71831494140625,-0.43764498829841614,0.05887100100517273,-0.01877499930560589
1750561037420919800,11.727919921875,-0.5721690058708191,0.10823500156402588,0.022266000509262085
1750561037430524400,11.7375244140625,-0.4515100121498108,0.13726100325584412,0.045448001474142075
1750561037440129300,11.74712939453125,-0.2787410020828247,0.1368750035762787,0.012450999580323696
1750561037449734000,11.75673388671875,0.05069899931550026,0.1294029951095581,-0.16649800539016724
1750561037459338800,11.7663388671875,0.3719269931316376,0.10769300162792206,-0.09217599779367447
1750561037468943600,11.775943603515625,0.508696973323822,0.028010999783873558,-0.088919997215271
1750561037478548500,11.785548583984376,0.3697200119495392,-0.05008799955248833,-0.026630999520421028
1750561037488153300,11.7951533203125,0.03749699890613556,-0.055948998779058456,-0.0359020009636879
1750561037497758000,11.804758056640624,-0.23223400115966797,-0.04856500029563904,0.014368999749422073
1750561037507362600,11.814362548828125,-0.4013569951057434,-0.023574000224471092,0.03913699835538864
1750561037516967400,11.823967529296874,-0.49201700091362,-0.016721999272704124,0.053141999989748
1750561037526572300,11.833572265625,-0.45582500100135803,-0.04166100174188614,0.06216900050640106
1750561037536177200,11.84317724609375,-0.24932600557804108,-0.0184480007737875,0.07211600244045258
1750561037545781800,11.85278173828125,0.046448998153209686,-0.05857900157570839,0.1412539929151535
1750561037555386600,11.86238671875,0.35148900747299194,-0.07624100148677826,0.004867999814450741
1750561037564991500,11.871991455078126,0.4721530079841614,-0.008111000061035156,-0.1866369992494583
1750561037574596000,11.88159619140625,0.42921000719070435,0.0029140000697225332,-0.3207390010356903
