time,seconds_elapsed,z,y,x
1750561025760710400,0.06771044921875,-0.14464999735355377,0.12526249885559082,-0.18507499992847443
1750561025770315000,0.07731494140625,-0.1311749964952469,0.23278750479221344,-0.14836250245571136
1750561025779920000,0.086919921875,-0.1825999915599823,0.3880249857902527,-0.0835999995470047
1750561025789524700,0.096524658203125,-0.2937000095844269,0.45512500405311584,-0.012787500396370888
1750561025799129300,0.10612939453125,-0.3792249858379364,0.39778751134872437,0.05197500064969063
1750561025808734200,0.115734130859375,-0.37798750400543213,0.2083124965429306,0.08016250282526016
1750561025818339000,0.125339111328125,-0.3119874894618988,-0.09336250275373459,0.06792499870061874
1750561025827944000,0.13494384765625,-0.2143625020980835,-0.271699994802475,0.08016250282526016
1750561025837548500,0.144548583984375,-0.14217500388622284,-0.34869998693466187,0.11550000309944153
1750561025847153400,0.1541533203125,-0.07631249725818634,-0.3536500036716461,0.09597499668598175
1750561025856758300,0.16375830078125,0.015399999916553497,-0.1691250056028366,0.020212499424815178
1750561025866363100,0.173363037109375,0.12526249885559082,0.1289750039577484,-0.08607500046491623
1750561025875967700,0.1829677734375,0.19978749752044678,0.34402498602867126,-0.19717499613761902
1750561025885572600,0.192572509765625,0.2120250016450882,0.41731250286102295,-0.27912500500679016
1750561025895177500,0.202177490234375,0.18521249294281006,0.37812501192092896,-0.3059374988079071
1750561025904782000,0.211781982421875,0.13392500579357147,0.2437874972820282,-0.2778874933719635
1750561025914387200,0.22138720703125,0.0752125009894371,0.0752125009894371,-0.21312500536441803
1750561025923992000,0.230991943359375,0.010449999943375587,-0.1153625026345253,-0.1434125006198883
1750561025933596700,0.2405966796875,-0.04331250116229057,-0.22165000438690186,-0.06283749639987946
1750561025943201300,0.250201171875,-0.06888750195503235,-0.21917499601840973,0.0019249999895691872
1750561025952806100,0.25980615234375,-0.057887498289346695,-0.1288374960422516,0.028737500309944153
1750561025962411000,0.269410888671875,-0.01759999990463257,-0.007837500423192978,0.020212499424815178
1750561025972015600,0.279015625,0.043449997901916504,0.0789249986410141,-0.015124999918043613
1750561025981620500,0.288620361328125,0.1106875017285347,0.09968750178813934,-0.06159999966621399
1750561025991225300,0.298225341796875,0.1704999953508377,0.06668750196695328,-0.10683749616146088
1750561026000830200,0.307830322265625,0.19978749752044678,0.0031624999828636646,-0.15936249494552612
1750561026010435000,0.31743505859375,0.164450004696846,-0.06407500058412552,-0.22536249458789825
1750561026020039700,0.327039794921875,0.07768750190734863,-0.10436250269412994,-0.27912500500679016
1750561026029644500,0.33664453125,-0.013887500390410423,-0.048124998807907104,-0.271699994802475
1750561026039249200,0.346249267578125,-0.07383749634027481,0.055687498301267624,-0.20336249470710754
1750561026048854000,0.35585400390625,-0.08841250091791153,0.12168750166893005,-0.09212499856948853
1750561026058459000,0.365458984375,-0.04936249926686287,0.15826250612735748,0.04221250116825104
1750561026068063700,0.375063720703125,0.015399999916553497,0.13997499644756317,0.15702499449253082
1750561026077668600,0.384668701171875,0.06916250288486481,0.09597499668598175,0.22550000250339508
1750561026087273200,0.394273193359375,0.09239999949932098,0.05692499876022339,0.2340250015258789
1750561026096878000,0.403878173828125,0.09597499668598175,0.055687498301267624,0.19978749752044678
1750561026106483000,0.41348291015625,0.07768750190734863,0.07026249915361404,0.1424500048160553
1750561026116087600,0.423087646484375,0.04221250116825104,0.08249999582767487,0.08016250282526016
1750561026125692700,0.432692626953125,0.009212499484419823,0.12526249885559082,0.028737500309944153
1750561026135297300,0.44229736328125,-0.011549999937415123,0.16321249306201935,-0.0005499999970197678
1750561026144902100,0.451902099609375,-0.022549999877810478,0.17173749208450317,0.004399999976158142
1750561026154506800,0.4615068359375,-0.028599999845027924,0.16802500188350677,0.03616249933838844
1750561026164111600,0.471111572265625,-0.031075000762939453,0.1424500048160553,0.06916250288486481
1750561026173716500,0.480716552734375,-0.038362499326467514,0.08621250092983246,0.09844999760389328
1750561026183321300,0.4903212890625,-0.05912499874830246,0.020212499424815178,0.1424500048160553
1750561026192926000,0.499926025390625,-0.09336250275373459,-0.03231250122189522,0.20102499425411224
1750561026202530800,0.50953076171875,-0.133650004863739,-0.04702499881386757,0.24997499585151672
1750561026212135700,0.5191357421875,-0.14464999735355377,-0.045787498354911804,0.2694999873638153
1750561026221740500,0.528740478515625,-0.12636250257492065,-0.05431250110268593,0.2475000023841858
1750561026231345200,0.53834521484375,-0.10683749616146088,-0.04702499881386757,0.19373749196529388
1750561026240950000,0.547949951171875,-0.10917499661445618,0.005499999970197678,0.12044999748468399
1750561026250554600,0.5575546875,-0.1153625026345253,0.08002500236034393,0.04468749836087227
1750561026260159500,0.567159423828125,-0.10312499850988388,0.1424500048160553,-0.0030249999836087227
1750561026269764400,0.576764404296875,-0.07383749634027481,0.1742125004529953,-0.0017874999903142452
1750561026279369000,0.586368896484375,-0.038362499326467514,0.148499995470047,0.03492499887943268
1750561026288974000,0.59597412109375,0.022687500342726707,0.08744999766349792,0.09473749995231628
1750561026298578700,0.60557861328125,0.0752125009894371,0.018975000828504562,0.13626250624656677
1750561026308183600,0.61518359375,0.08373750001192093,-0.031075000762939453,0.1350249946117401
1750561026317788200,0.6247880859375,0.05444999784231186,-0.06283749639987946,0.10449999570846558
1750561026327393000,0.63439306640625,0.018975000828504562,-0.058024998754262924,0.07273750007152557
1750561026336997600,0.64399755859375,-0.010312499478459358,-0.026262499392032623,0.05197500064969063
1750561026346602500,0.6536025390625,-0.004124999977648258,-0.009074999950826168,0.0494999997317791
1750561026356207400,0.663207275390625,0.028875000774860382,-0.023787500336766243,0.06173750013113022
1750561026365812000,0.67281201171875,0.06421250104904175,-0.05912499874830246,0.08016250282526016
1750561026375417000,0.6824169921875,0.0849749967455864,-0.06531249731779099,0.08992499858140945
1750561026385021700,0.692021728515625,0.09350000321865082,-0.020075000822544098,0.07768750190734863
1750561026394626600,0.70162646484375,0.09116250276565552,0.04592499881982803,0.018975000828504562
1750561026404231200,0.711231201171875,0.07768750190734863,0.08744999766349792,-0.060362499207258224
1750561026413836000,0.7208359375,0.05816249921917915,0.0849749967455864,-0.12264999747276306
1750561026423441000,0.73044091796875,0.03863750025629997,0.03616249933838844,-0.14231249690055847
1750561026433045800,0.740045654296875,0.022687500342726707,-0.04207500070333481,-0.12264999747276306
1750561026442650600,0.749650634765625,0.009212499484419823,-0.11412499845027924,-0.08483749628067017
1750561026452255200,0.759255126953125,0.004399999976158142,-0.1288374960422516,-0.050599999725818634
1750561026461860000,0.768860107421875,0.014162499457597733,-0.10807500034570694,-0.03959999978542328
1750561026471465000,0.77846484375,0.021449999883770943,-0.08112499862909317,-0.053075000643730164
1750561026481069600,0.788069580078125,0.023924998939037323,-0.07878749817609787,-0.0835999995470047
1750561026490674400,0.79767431640625,0.025162499397993088,-0.08607500046491623,-0.09336250275373459
1750561026500279300,0.807279296875,0.03987500071525574,-0.0775500014424324,-0.05678749829530716
1750561026509884200,0.81688427734375,0.04963750019669533,-0.07259999960660934,-0.010312499478459358
1750561026519488800,0.82648876953125,0.03739999979734421,-0.08236250281333923,-0.0030249999836087227
1750561026529093600,0.83609375,0.011687500402331352,-0.0873124971985817,-0.03355000168085098
1750561026538698500,0.845698486328125,-0.010312499478459358,-0.09583749622106552,-0.07507500052452087
1750561026548303000,0.85530322265625,-0.018837500363588333,-0.10807500034570694,-0.08855000138282776
1750561026557908000,0.864907958984375,-0.005362499970942736,-0.12264999747276306,-0.05678749829530716
1750561026567512800,0.874512939453125,0.008112499490380287,-0.12264999747276306,0.0006874999962747097
1750561026577117700,0.88411767578125,0.022687500342726707,-0.09459999948740005,0.05321250110864639
1750561026586722300,0.893722412109375,0.03616249933838844,-0.04455000162124634,0.07026249915361404
1750561026596327200,0.9033271484375,0.04839999973773956,0.0019249999895691872,0.043449997901916504
1750561026605931800,0.912931884765625,0.05816249921917915,0.017737500369548798,-0.0017874999903142452
1750561026615536600,0.92253662109375,0.055687498301267624,-0.015262499451637268,-0.015124999918043613
1750561026625141500,0.9321416015625,0.03244999796152115,-0.08236250281333923,0.022687500342726707
1750561026634746400,0.941746337890625,0.009212499484419823,-0.17036250233650208,0.08744999766349792
1750561026644351200,0.951351318359375,-0.007837500423192978,-0.21188749372959137,0.14726249873638153
1750561026653956000,0.9609560546875,-0.01759999990463257,-0.18741250038146973,0.16926249861717224
1750561026663560700,0.970560791015625,-0.021312499418854713,-0.13255000114440918,0.14121249318122864
1750561026673165600,0.98016552734375,-0.015124999918043613,-0.05431250110268593,0.07397499680519104
1750561026682770400,0.9897705078125,0.0031624999828636646,0.014162499457597733,-0.005362499970942736
1750561026692375300,0.999375244140625,0.026399999856948853,0.05321250110864639,-0.060362499207258224
1750561026701980000,1.00897998046875,0.04097500070929527,0.05073750019073486,-0.08483749628067017
1750561026711584800,1.018584716796875,0.05692499876022339,-0.0042624999769032,-0.09088750183582306
1750561026721189400,1.028189453125,0.06792499870061874,-0.07631249725818634,-0.09459999948740005
1750561026730794200,1.037794189453125,0.05692499876022339,-0.1190750002861023,-0.1116499975323677
1750561026740398800,1.04739892578125,0.03616249933838844,-0.11288750171661377,-0.13983750343322754
1750561026750003700,1.057003662109375,0.012924999929964542,-0.06283749639987946,-0.172837495803833
1750561026759608800,1.06660888671875,0.0056374999694526196,0.014162499457597733,-0.18617500364780426
1750561026769213400,1.07621337890625,0.009212499484419823,0.07768750190734863,-0.1691250056028366
1750561026778818300,1.085818359375,0.016637500375509262,0.09226249903440475,-0.13241249322891235
1750561026788423200,1.095423095703125,0.020212499424815178,0.06421250104904175,-0.09459999948740005
1750561026798027800,1.10502783203125,0.009212499484419823,0.018975000828504562,-0.06407500058412552
1750561026807632600,1.114632568359375,-0.011549999937415123,-0.02983750030398369,-0.045787498354911804
1750561026817237500,1.124237548828125,-0.028599999845027924,-0.08236250281333923,-0.031075000762939453
1750561026826842400,1.13384228515625,-0.035887498408555984,-0.12264999747276306,-0.021312499418854713
1750561026836447000,1.143447021484375,-0.03355000168085098,-0.12388750165700912,-0.016362499445676804
1750561026846051800,1.1530517578125,-0.02488750033080578,-0.09583749622106552,-0.012787500396370888
1750561026855656400,1.162656494140625,-0.010312499478459358,-0.05678749829530716,-0.007837500423192978
1750561026865261300,1.17226123046875,0.008112499490380287,-0.010312499478459358,-0.009074999950826168
1750561026874866200,1.1818662109375,0.027637500315904617,0.03726249933242798,-0.023787500336766243
1750561026884471000,1.191470947265625,0.04839999973773956,0.06916250288486481,-0.04455000162124634
1750561026894076000,1.201075927734375,0.06297499686479568,0.07273750007152557,-0.06407500058412552
1750561026903680800,1.2106806640625,0.05444999784231186,0.05692499876022339,-0.07012499868869781
1750561026913285400,1.220285400390625,0.031212499365210533,0.03492499887943268,-0.06531249731779099
1750561026922890000,1.229889892578125,0.011687500402331352,-0.005362499970942736,-0.04936249926686287
1750561026932494800,1.239494873046875,0.011687500402331352,-0.0518375001847744,-0.031075000762939453
1750561026942099700,1.249099609375,0.018975000828504562,-0.050599999725818634,-0.03478749841451645
1750561026951704600,1.25870458984375,0.025162499397993088,-0.006599999964237213,-0.057887498289346695
1750561026961309200,1.26830908203125,0.029975000768899918,0.03849999979138374,-0.08607500046491623
1750561026970914000,1.2779140625,0.03368749842047691,0.05444999784231186,-0.09955000132322311
1750561026980519000,1.287518798828125,0.022687500342726707,0.043449997901916504,-0.08483749628067017
1750561026990123800,1.297123779296875,0.0056374999694526196,0.011687500402331352,-0.05431250110268593
1750561026999728400,1.306728271484375,-0.005362499970942736,-0.02502499893307686,-0.016362499445676804
1750561027009333200,1.316333251953125,-0.0028874999843537807,-0.053075000643730164,0.015399999916553497
1750561027018938000,1.325938232421875,0.014162499457597733,-0.06283749639987946,0.03616249933838844
1750561027028542700,1.335542724609375,0.027637500315904617,-0.04702499881386757,0.04839999973773956
1750561027038147800,1.34514794921875,0.027637500315904617,-0.018837500363588333,0.04097500070929527
1750561027047752400,1.35475244140625,0.015399999916553497,-0.0042624999769032,0.023924998939037323
1750561027057357300,1.364357421875,-0.0017874999903142452,0.0031624999828636646,0.007974999956786633
1750561027066962000,1.3739619140625,-0.013887500390410423,0.010449999943375587,-0.007837500423192978
1750561027076566800,1.38356689453125,-0.016362499445676804,0.03244999796152115,-0.016362499445676804
1750561027086172000,1.393171875,-0.009074999950826168,0.05926249921321869,-0.02983750030398369
1750561027095776500,1.402776611328125,0.006874999962747097,0.0789249986410141,-0.04702499881386757
1750561027105381000,1.412381103515625,0.025162499397993088,0.07273750007152557,-0.06159999966621399
1750561027114986000,1.421986083984375,0.028875000774860382,0.03973750025033951,-0.06159999966621399
1750561027124590800,1.4315908203125,0.015399999916553497,-0.012787500396370888,-0.048124998807907104
1750561027134195700,1.44119580078125,-0.011549999937415123,-0.06283749639987946,-0.023787500336766243
1750561027143800300,1.45080029296875,-0.022549999877810478,-0.08978749811649323,0.009212499484419823
1750561027153405200,1.4604052734375,-0.02488750033080578,-0.07631249725818634,0.04097500070929527
1750561027163010000,1.470010009765625,-0.022549999877810478,-0.045787498354911804,0.055687498301267624
1750561027172615000,1.479614990234375,-0.016362499445676804,-0.02736249938607216,0.0471624992787838
1750561027182219500,1.489219482421875,-0.0005499999970197678,-0.0017874999903142452,0.011687500402331352
1750561027191824400,1.498824462890625,0.011687500402331352,0.03849999979138374,-0.04207500070333481
1750561027201429000,1.508428955078125,0.016637500375509262,0.08744999766349792,-0.09583749622106552
1750561027211033900,1.518033935546875,0.010449999943375587,0.10449999570846558,-0.12636250257492065
1750561027220638700,1.527638671875,-0.0028874999843537807,0.08373750001192093,-0.12031249701976776
1750561027230243300,1.537243408203125,-0.018837500363588333,0.029975000768899918,-0.0798875018954277
1750561027239848400,1.546848388671875,-0.031075000762939453,-0.04207500070333481,-0.021312499418854713
1750561027249453000,1.556453125,-0.03355000168085098,-0.09459999948740005,0.03616249933838844
1750561027259058000,1.566057861328125,-0.026124998927116394,-0.09707500040531158,0.06916250288486481
1750561027268662500,1.57566259765625,-0.013887500390410423,-0.07136250287294388,0.06544999778270721
1750561027278267400,1.585267333984375,-0.009074999950826168,-0.036024998873472214,0.03616249933838844
1750561027287872300,1.594872314453125,-0.015124999918043613,0.004399999976158142,-0.007837500423192978
1750561027297476900,1.604476806640625,-0.03231250122189522,0.03492499887943268,-0.04936249926686287
1750561027307082000,1.61408203125,-0.04331250116229057,0.04097500070929527,-0.07259999960660934
1750561027316686600,1.6236865234375,-0.04331250116229057,0.03973750025033951,-0.06531249731779099
1750561027326291500,1.63329150390625,-0.03959999978542328,0.03973750025033951,-0.045787498354911804
1750561027335896000,1.64289599609375,-0.02983750030398369,0.027499999850988388,-0.026124998927116394
1750561027345501000,1.6525009765625,-0.015124999918043613,0.015399999916553497,-0.015124999918043613
1750561027355105500,1.66210546875,-0.012787500396370888,0.014162499457597733,-0.01759999990463257
1750561027364710400,1.67171044921875,-0.018837500363588333,0.011687500402331352,-0.023787500336766243
1750561027374315500,1.6813154296875,-0.022549999877810478,-0.0030249999836087227,-0.020075000822544098
1750561027383920000,1.690920166015625,-0.02488750033080578,-0.015262499451637268,-0.0017874999903142452
1750561027393525000,1.70052490234375,-0.03355000168085098,-0.020075000822544098,0.007974999956786633
1750561027403129600,1.710129638671875,-0.03464999794960022,-0.015262499451637268,0.0031624999828636646
1750561027412734500,1.719734375,-0.016362499445676804,0.020212499424815178,-0.006599999964237213
1750561027422339300,1.72933935546875,0.006874999962747097,0.060499999672174454,-0.02502499893307686
1750561027431944000,1.73894384765625,0.017875000834465027,0.09597499668598175,-0.050599999725818634
1750561027441548800,1.748548828125,0.012924999929964542,0.11426249891519547,-0.07507500052452087
1750561027451153700,1.758153564453125,-0.005362499970942736,0.10944999754428864,-0.0873124971985817
1750561027460758500,1.767758544921875,-0.020075000822544098,0.06916250288486481,-0.06888750195503235
1750561027470363100,1.777363037109375,-0.02488750033080578,-0.006599999964237213,-0.02736249938607216
1750561027479968300,1.78696826171875,-0.01759999990463257,-0.0775500014424324,0.027499999850988388
1750561027489572900,1.79657275390625,-0.0028874999843537807,-0.10312499850988388,0.07644999772310257
1750561027499177700,1.806177734375,0.010449999943375587,-0.08236250281333923,0.0849749967455864
1750561027508782600,1.815782470703125,0.017875000834465027,-0.021312499418854713,0.03616249933838844
1750561027518387200,1.82538720703125,0.020212499424815178,0.04097500070929527,-0.045787498354911804
1750561027527992000,1.834991943359375,0.014162499457597733,0.0752125009894371,-0.11659999936819077
1750561027537597000,1.844596923828125,0.006874999962747097,0.06668750196695328,-0.14464999735355377
1750561027547201500,1.854201416015625,0.009212499484419823,0.029975000768899918,-0.1153625026345253
1750561027556806400,1.863806396484375,0.017875000834465027,-0.016362499445676804,-0.04702499881386757
1750561027566411300,1.873411376953125,0.026399999856948853,-0.03959999978542328,0.020212499424815178
1750561027576016100,1.88301611328125,0.025162499397993088,-0.028599999845027924,0.04592499881982803
1750561027585620700,1.892620849609375,0.012924999929964542,-0.005362499970942736,0.03492499887943268
1750561027595225600,1.9022255859375,-0.0028874999843537807,0.012924999929964542,0.010449999943375587
1750561027604830200,1.911830322265625,-0.018837500363588333,0.015399999916553497,-0.0042624999769032
1750561027614435000,1.92143505859375,-0.026124998927116394,0.015399999916553497,0.0056374999694526196
1750561027624040000,1.9310400390625,-0.023787500336766243,0.031212499365210533,0.020212499424815178
1750561027633644800,1.940644775390625,-0.010312499478459358,0.03973750025033951,0.020212499424815178
1750561027643249700,1.950249755859375,0.0056374999694526196,0.03368749842047691,0.006737499963492155
1750561027652854300,1.959854248046875,0.017875000834465027,0.021449999883770943,-0.018837500363588333
1750561027662459100,1.969459228515625,0.015399999916553497,0.011687500402331352,-0.03959999978542328
1750561027672064000,1.97906396484375,0.004399999976158142,0.010449999943375587,-0.045787498354911804
1750561027681668600,1.988668701171875,-0.004124999977648258,0.011687500402331352,-0.02736249938607216
1750561027691273700,1.998273681640625,0.004399999976158142,0.0019249999895691872,0.010449999943375587
1750561027700878300,2.00787841796875,0.018975000828504562,-0.0005499999970197678,0.05321250110864639
1750561027710483200,2.017483154296875,0.028875000774860382,0.007974999956786633,0.07768750190734863
1750561027720087800,2.027087890625,0.03244999796152115,0.018975000828504562,0.07397499680519104
1750561027729692700,2.036692626953125,0.03244999796152115,0.026399999856948853,0.04221250116825104
1750561027739297500,2.046297607421875,0.023924998939037323,0.018975000828504562,-0.006599999964237213
1750561027748902400,2.05590234375,0.0031624999828636646,-0.0017874999903142452,-0.048124998807907104
1750561027758507300,2.06550732421875,-0.01759999990463257,-0.02983750030398369,-0.07507500052452087
1750561027768111900,2.07511181640625,-0.02736249938607216,-0.028599999845027924,-0.07012499868869781
1750561027777716700,2.084716796875,-0.018837500363588333,0.0031624999828636646,-0.03959999978542328
1750561027787321300,2.0943212890625,-0.0028874999843537807,0.03368749842047691,-0.016362499445676804
1750561027796926200,2.10392626953125,0.020212499424815178,0.04468749836087227,-0.010312499478459358
1750561027806530800,2.11353076171875,0.03863750025629997,0.04592499881982803,-0.015124999918043613
1750561027816136000,2.123135986328125,0.03616249933838844,0.04097500070929527,-0.022549999877810478
1750561027825740800,2.13274072265625,0.025162499397993088,0.029975000768899918,-0.023787500336766243
1750561027835345400,2.142345458984375,0.011687500402331352,0.006737499963492155,-0.02736249938607216
1750561027844950300,2.1519501953125,-0.005362499970942736,-0.016362499445676804,-0.03959999978542328
1750561027854555100,2.16155517578125,-0.02983750030398369,-0.02502499893307686,-0.057887498289346695
1750561027864159700,2.17115966796875,-0.04207500070333481,-0.022549999877810478,-0.07012499868869781
1750561027873764600,2.1807646484375,-0.038362499326467514,-0.010312499478459358,-0.07507500052452087
1750561027883369500,2.190369384765625,-0.023787500336766243,0.012924999929964542,-0.06283749639987946
1750561027892974300,2.199974365234375,-0.0017874999903142452,0.031212499365210533,-0.03712499886751175
1750561027902579200,2.2095791015625,0.014162499457597733,0.04097500070929527,-0.012787500396370888
1750561027912183800,2.219183837890625,0.015399999916553497,0.026399999856948853,0.0019249999895691872
1750561027921788400,2.228788330078125,0.0031624999828636646,-0.007837500423192978,0.0006874999962747097
1750561027931393300,2.238393310546875,-0.01759999990463257,-0.03355000168085098,-0.009074999950826168
1750561027940998100,2.247998046875,-0.02983750030398369,-0.048124998807907104,-0.010312499478459358
1750561027950603000,2.25760302734375,-0.03355000168085098,-0.036024998873472214,-0.0030249999836087227
1750561027960208000,2.267207763671875,-0.031075000762939453,0.006737499963492155,-0.0005499999970197678
1750561027969812700,2.276812744140625,-0.015124999918043613,0.03726249933242798,-0.011549999937415123
1750561027979417300,2.286417236328125,0.004399999976158142,0.04097500070929527,-0.028599999845027924
1750561027989022200,2.296022216796875,0.014162499457597733,0.03726249933242798,-0.045787498354911804
1750561027998626800,2.305626708984375,0.009212499484419823,0.03973750025033951,-0.060362499207258224
1750561028008231700,2.315231689453125,0.004399999976158142,0.03616249933838844,-0.057887498289346695
1750561028017836500,2.32483642578125,-0.0005499999970197678,0.014162499457597733,-0.03231250122189522
1750561028027441400,2.33444140625,0.0006874999962747097,-0.020075000822544098,0.004399999976158142
1750561028037046000,2.3440458984375,0.0031624999828636646,-0.04702499881386757,0.03739999979734421
1750561028046651000,2.35365087890625,0.0056374999694526196,-0.04455000162124634,0.04468749836087227
1750561028056255500,2.36325537109375,0.008112499490380287,-0.007837500423192978,0.029975000768899918
1750561028065860400,2.3728603515625,0.010449999943375587,0.03849999979138374,-0.0005499999970197678
1750561028075465200,2.38246533203125,0.014162499457597733,0.06421250104904175,-0.031075000762939453
1750561028085070000,2.392070068359375,0.025162499397993088,0.06544999778270721,-0.04455000162124634
1750561028094675000,2.401675048828125,0.029975000768899918,0.043449997901916504,-0.038362499326467514
1750561028104279800,2.41127978515625,0.021449999883770943,0.010449999943375587,-0.015124999918043613
1750561028113884400,2.420884521484375,0.010449999943375587,-0.02736249938607216,0.009212499484419823
1750561028123489300,2.4304892578125,0.0056374999694526196,-0.0518375001847744,0.029975000768899918
1750561028133094000,2.440093994140625,0.0031624999828636646,-0.05431250110268593,0.03739999979734421
1750561028142699000,2.449698974609375,0.0056374999694526196,-0.03355000168085098,0.028737500309944153
1750561028152303600,2.4593037109375,0.012924999929964542,-0.0030249999836087227,0.007974999956786633
1750561028161908500,2.468908447265625,0.025162499397993088,0.029975000768899918,-0.015124999918043613
1750561028171513000,2.47851318359375,0.029975000768899918,0.04097500070929527,-0.03959999978542328
1750561028181118000,2.488117919921875,0.023924998939037323,0.031212499365210533,-0.05678749829530716
1750561028190722800,2.497722900390625,0.010449999943375587,0.017737500369548798,-0.06159999966621399
1750561028200327400,2.507327392578125,-0.007837500423192978,0.004399999976158142,-0.05431250110268593
1750561028209932300,2.516932373046875,-0.02736249938607216,-0.0042624999769032,-0.040837500244379044
1750561028219537200,2.526537109375,-0.03355000168085098,-0.0017874999903142452,-0.03478749841451645
1750561028229142000,2.53614208984375,-0.026124998927116394,-0.0017874999903142452,-0.038362499326467514
1750561028238747000,2.545746826171875,-0.015124999918043613,-0.009074999950826168,-0.0518375001847744
1750561028248351500,2.5553515625,-0.005362499970942736,-0.011549999937415123,-0.06283749639987946
1750561028257956400,2.564956298828125,-0.004124999977648258,0.005499999970197678,-0.06407500058412552
1750561028267561000,2.57456103515625,-0.013887500390410423,0.027499999850988388,-0.06159999966621399
1750561028277165800,2.584165771484375,-0.020075000822544098,0.023924998939037323,-0.0518375001847744
1750561028286770700,2.593770751953125,-0.01759999990463257,-0.0030249999836087227,-0.03712499886751175
1750561028296375600,2.60337548828125,-0.005362499970942736,-0.03231250122189522,-0.021312499418854713
1750561028305980200,2.612980224609375,0.011687500402331352,-0.048124998807907104,-0.007837500423192978
1750561028315585000,2.6225849609375,0.026399999856948853,-0.036024998873472214,0.0006874999962747097
1750561028325190000,2.63218994140625,0.03616249933838844,-0.011549999937415123,-0.0005499999970197678
1750561028334794500,2.64179443359375,0.03987500071525574,0.009212499484419823,-0.012787500396370888
1750561028344399600,2.651399658203125,0.031212499365210533,0.029975000768899918,-0.036024998873472214
1750561028354004500,2.66100439453125,0.008112499490380287,0.03616249933838844,-0.07136250287294388
1750561028363609000,2.670609130859375,-0.009074999950826168,0.03368749842047691,-0.10436250269412994
1750561028373214000,2.6802138671875,-0.015124999918043613,0.016499999910593033,-0.1251250058412552
1750561028382818600,2.689818603515625,0.004399999976158142,-0.0042624999769032,-0.13488750159740448
1750561028392423400,2.69942333984375,0.03863750025629997,-0.020075000822544098,-0.12264999747276306
1750561028402028000,2.709028076171875,0.06668750196695328,-0.040837500244379044,-0.08483749628067017
1750561028411633000,2.7186328125,0.07644999772310257,-0.053075000643730164,-0.03231250122189522
1750561028421237800,2.72823779296875,0.06297499686479568,-0.050599999725818634,0.018975000828504562
1750561028430842600,2.737842529296875,0.03739999979734421,-0.03355000168085098,0.05444999784231186
1750561028440447500,2.747447509765625,0.010449999943375587,-0.0030249999836087227,0.055687498301267624
1750561028450052000,2.757052001953125,-0.006599999964237213,0.025162499397993088,0.026399999856948853
1750561028459657000,2.766656982421875,-0.010312499478459358,0.04221250116825104,-0.01759999990463257
1750561028469261600,2.776261474609375,-0.007837500423192978,0.03849999979138374,-0.05555000156164169
1750561028478866400,2.785866455078125,-0.0028874999843537807,0.029975000768899918,-0.06159999966621399
1750561028488471600,2.795471435546875,-0.0028874999843537807,0.017737500369548798,-0.040837500244379044
1750561028498076400,2.805076416015625,-0.0017874999903142452,0.004399999976158142,-0.0030249999836087227
1750561028507681000,2.814680908203125,0.0006874999962747097,-0.006599999964237213,0.04592499881982803
1750561028517285600,2.82428564453125,-0.005362499970942736,-0.018837500363588333,0.08249999582767487
1750561028526890500,2.833890380859375,-0.02488750033080578,-0.022549999877810478,0.08621250092983246
1750561028536495000,2.8434951171875,-0.040837500244379044,-0.028599999845027924,0.05321250110864639
1750561028546100000,2.853099853515625,-0.0518375001847744,-0.018837500363588333,0.006737499963492155
1750561028555705000,2.862705078125,-0.0518375001847744,0.0031624999828636646,-0.03355000168085098
1750561028565309700,2.872309814453125,-0.03231250122189522,0.018975000828504562,-0.05912499874830246
1750561028574914600,2.88191455078125,-0.007837500423192978,0.029975000768899918,-0.06159999966621399
1750561028584519400,2.89151953125,0.010449999943375587,0.03726249933242798,-0.04702499881386757
1750561028594124000,2.9011240234375,0.014162499457597733,0.04097500070929527,-0.014024999924004078
1750561028603729000,2.91072900390625,0.008112499490380287,0.03368749842047691,0.022687500342726707
1750561028613333800,2.920333740234375,0.0019249999895691872,0.010449999943375587,0.05197500064969063
1750561028622938600,2.929938720703125,0.0031624999828636646,-0.014024999924004078,0.06792499870061874
1750561028632543500,2.93954345703125,0.0056374999694526196,-0.021312499418854713,0.060499999672174454
1750561028642148000,2.949148193359375,0.0031624999828636646,-0.007837500423192978,0.025162499397993088
1750561028651752700,2.958752685546875,0.0006874999962747097,0.015399999916553497,-0.02502499893307686
1750561028661357800,2.96835791015625,-0.0028874999843537807,0.04468749836087227,-0.07136250287294388
1750561028670962400,2.97796240234375,0.0031624999828636646,0.05321250110864639,-0.0873124971985817
1750561028680567300,2.9875673828125,0.017875000834465027,0.04468749836087227,-0.06159999966621399
1750561028690172200,2.997172119140625,0.031212499365210533,0.026399999856948853,-0.009074999950826168
1750561028699776800,3.00677685546875,0.03368749842047691,-0.0017874999903142452,0.04468749836087227
1750561028709381600,3.016381591796875,0.021449999883770943,-0.02502499893307686,0.08016250282526016
1750561028718986500,3.025986572265625,0.0056374999694526196,-0.036024998873472214,0.07644999772310257
1750561028728591400,3.03559130859375,-0.006599999964237213,-0.03712499886751175,0.03973750025033951
1750561028738196200,3.0451962890625,-0.009074999950826168,-0.02736249938607216,-0.0042624999769032
1750561028747800800,3.05480078125,-0.006599999964237213,-0.009074999950826168,-0.045787498354911804
1750561028757405700,3.06440576171875,-0.005362499970942736,0.0019249999895691872,-0.07507500052452087
1750561028767010300,3.07401025390625,-0.009074999950826168,0.009212499484419823,-0.07631249725818634
1750561028776615200,3.083615234375,-0.010312499478459358,0.0019249999895691872,-0.053075000643730164
1750561028786220000,3.093219970703125,-0.0017874999903142452,-0.007837500423192978,-0.01759999990463257
1750561028795825000,3.102824951171875,0.010449999943375587,-0.007837500423192978,0.004399999976158142
1750561028805429800,3.1124296875,0.016637500375509262,0.0031624999828636646,0.0031624999828636646
1750561028815034400,3.122034423828125,0.012924999929964542,0.005499999970197678,-0.02502499893307686
1750561028824639200,3.13163916015625,0.004399999976158142,-0.0017874999903142452,-0.06159999966621399
1750561028834244000,3.141244140625,-0.007837500423192978,-0.006599999964237213,-0.08483749628067017
1750561028843848700,3.1508486328125,-0.022549999877810478,-0.015262499451637268,-0.08236250281333923
1750561028853453300,3.160453369140625,-0.02736249938607216,-0.03712499886751175,-0.053075000643730164
1750561028863058400,3.170058349609375,-0.012787500396370888,-0.045787498354911804,-0.016362499445676804
1750561028872663300,3.179663330078125,0.008112499490380287,-0.020075000822544098,-0.0030249999836087227
1750561028882268000,3.189267822265625,0.021449999883770943,0.015399999916553497,-0.018837500363588333
1750561028891872800,3.198872802734375,0.025162499397993088,0.04221250116825104,-0.05431250110268593
1750561028901477400,3.208477294921875,0.009212499484419823,0.05816249921917915,-0.09583749622106552
1750561028911082200,3.218082275390625,-0.020075000822544098,0.04592499881982803,-0.1288374960422516
1750561028920687000,3.22768701171875,-0.03355000168085098,-0.0017874999903142452,-0.1373624950647354
1750561028930292000,3.2372919921875,-0.04207500070333481,-0.06778749823570251,-0.10559999942779541
1750561028939896800,3.246896728515625,-0.038362499326467514,-0.1093124970793724,-0.048124998807907104
1750561028949501700,3.256501708984375,-0.023787500336766243,-0.08607500046491623,-0.005362499970942736
1750561028959106300,3.266106201171875,-0.0017874999903142452,-0.016362499445676804,-0.005362499970942736
1750561028968711200,3.275711181640625,0.015399999916553497,0.05197500064969063,-0.040837500244379044
1750561028978315800,3.285315673828125,0.015399999916553497,0.09473749995231628,-0.0873124971985817
1750561028987920600,3.294920654296875,0.0056374999694526196,0.1069749966263771,-0.10436250269412994
1750561028997525500,3.304525390625,-0.009074999950826168,0.07768750190734863,-0.09088750183582306
1750561029007130000,3.314130126953125,-0.018837500363588333,0.04221250116825104,-0.0518375001847744
1750561029016735000,3.32373486328125,-0.018837500363588333,0.010449999943375587,-0.006599999964237213
1750561029026339800,3.33333984375,-0.011549999937415123,-0.014024999924004078,0.027499999850988388
1750561029035944700,3.34294482421875,-0.004124999977648258,-0.023787500336766243,0.03849999979138374
1750561029045549300,3.35254931640625,0.0019249999895691872,-0.023787500336766243,0.031212499365210533
1750561029055154200,3.362154296875,-0.0005499999970197678,-0.021312499418854713,0.018975000828504562
1750561029064759000,3.371759033203125,-0.005362499970942736,-0.018837500363588333,0.009212499484419823
1750561029074364000,3.381364013671875,-0.007837500423192978,-0.0017874999903142452,0.0031624999828636646
1750561029083968800,3.39096875,-0.010312499478459358,0.03368749842047691,-0.006599999964237213
1750561029093573400,3.400573486328125,-0.006599999964237213,0.07150000333786011,-0.03355000168085098
1750561029103178000,3.410177978515625,0.009212499484419823,0.07768750190734863,-0.057887498289346695
1750561029112783000,3.419783203125,0.016637500375509262,0.04221250116825104,-0.06655000150203705
1750561029122388000,3.429387939453125,0.011687500402331352,-0.010312499478459358,-0.053075000643730164
1750561029131992600,3.43899267578125,0.006874999962747097,-0.05555000156164169,-0.015124999918043613
1750561029141597400,3.448597412109375,0.0031624999828636646,-0.07507500052452087,0.03492499887943268
1750561029151202300,3.458202392578125,0.0031624999828636646,-0.0518375001847744,0.07644999772310257
1750561029160807000,3.467806884765625,0.011687500402331352,-0.0030249999836087227,0.08868750184774399
1750561029170411800,3.477411865234375,0.018975000828504562,0.05692499876022339,0.06544999778270721
1750561029180016400,3.487016357421875,0.027637500315904617,0.10326249897480011,0.016637500375509262
1750561029189621500,3.49662158203125,0.03368749842047691,0.11426249891519547,-0.03478749841451645
1750561029199226000,3.50622607421875,0.027637500315904617,0.09350000321865082,-0.07012499868869781
1750561029208831000,3.5158310546875,0.011687500402331352,0.03849999979138374,-0.0873124971985817
1750561029218435600,3.525435546875,-0.005362499970942736,-0.021312499418854713,-0.06888750195503235
1750561029228040400,3.53504052734375,-0.007837500423192978,-0.06159999966621399,-0.01759999990463257
1750561029237645300,3.544645263671875,-0.0005499999970197678,-0.07259999960660934,0.03739999979734421
1750561029247250000,3.55425,0.010449999943375587,-0.04936249926686287,0.060499999672174454
1750561029256854800,3.563854736328125,0.020212499424815178,-0.0042624999769032,0.03973750025033951
1750561029266459600,3.573459716796875,0.023924998939037323,0.0471624992787838,-0.005362499970942736
1750561029276064300,3.583064208984375,0.020212499424815178,0.0812624990940094,-0.053075000643730164
1750561029285669000,3.592669189453125,0.008112499490380287,0.08621250092983246,-0.0835999995470047
1750561029295274000,3.60227392578125,-0.0028874999843537807,0.06173750013113022,-0.08236250281333923
1750561029304878800,3.61187890625,-0.015124999918043613,0.010449999943375587,-0.05555000156164169
1750561029314483700,3.621483642578125,-0.013887500390410423,-0.04455000162124634,-0.007837500423192978
1750561029324088300,3.63108837890625,-0.005362499970942736,-0.07507500052452087,0.031212499365210533
1750561029333693200,3.640693115234375,-0.0017874999903142452,-0.06531249731779099,0.03849999979138374
1750561029343297800,3.6502978515625,-0.005362499970942736,-0.031075000762939453,0.016637500375509262
1750561029352903000,3.65990283203125,-0.009074999950826168,0.014162499457597733,-0.026124998927116394
1750561029362507500,3.669507568359375,-0.009074999950826168,0.04468749836087227,-0.07507500052452087
1750561029372112400,3.6791123046875,-0.007837500423192978,0.0471624992787838,-0.11055000126361847
1750561029381717000,3.688717041015625,-0.007837500423192978,0.031212499365210533,-0.11412499845027924
1750561029391321900,3.69832177734375,-0.007837500423192978,0.012924999929964542,-0.0873124971985817
1750561029400926700,3.7079267578125,0.0019249999895691872,-0.006599999964237213,-0.03959999978542328
1750561029410531300,3.71753125,0.014162499457597733,-0.021312499418854713,0.011687500402331352
1750561029420136400,3.727136474609375,0.022687500342726707,-0.021312499418854713,0.04097500070929527
1750561029429741000,3.736740966796875,0.020212499424815178,-0.014024999924004078,0.03849999979138374
1750561029439346000,3.746345947265625,0.008112499490380287,-0.007837500423192978,0.011687500402331352
1750561029448950500,3.755950439453125,-0.005362499970942736,-0.014024999924004078,-0.009074999950826168
1750561029458555400,3.765555419921875,-0.015124999918043613,-0.026262499392032623,-0.010312499478459358
1750561029468160000,3.775159912109375,-0.020075000822544098,-0.02736249938607216,0.0019249999895691872
1750561029477765000,3.78476513671875,-0.01759999990463257,-0.02736249938607216,0.012924999929964542
1750561029487369700,3.79436962890625,-0.006599999964237213,-0.031075000762939453,0.015399999916553497
1750561029496974600,3.803974609375,0.006874999962747097,-0.028599999845027924,0.0006874999962747097
1750561029506579500,3.813579345703125,0.009212499484419823,-0.022549999877810478,-0.026124998927116394
1750561029516184000,3.82318408203125,0.0019249999895691872,-0.007837500423192978,-0.045787498354911804
1750561029525789000,3.832788818359375,0.0006874999962747097,0.010449999943375587,-0.04702499881386757
1750561029535393500,3.8423935546875,0.006874999962747097,0.017737500369548798,-0.021312499418854713
1750561029544998400,3.851998291015625,0.0019249999895691872,0.03973750025033951,0.007974999956786633
1750561029554603500,3.861603515625,0.0031624999828636646,0.07397499680519104,0.010449999943375587
1750561029564208400,3.87120849609375,0.009212499484419823,0.10202500224113464,-0.007837500423192978
1750561029573813000,3.88081298828125,-0.005362499970942736,0.11178749799728394,-0.04207500070333481
1750561029583417900,3.89041796875,-0.02983750030398369,0.09721250087022781,-0.07012499868869781
1750561029593022500,3.9000224609375,-0.050599999725818634,0.055687498301267624,-0.07136250287294388
1750561029602627300,3.90962744140625,-0.06407500058412552,0.028737500309944153,-0.053075000643730164
1750561029612232400,3.919232421875,-0.05912499874830246,0.031212499365210533,-0.026124998927116394
1750561029621836800,3.9288369140625,-0.03464999794960022,0.05321250110864639,-0.015124999918043613
1750561029631441700,3.938441650390625,-0.0005499999970197678,0.08373750001192093,-0.021312499418854713
1750561029641046500,3.948046630859375,0.029975000768899918,0.09102500230073929,-0.03712499886751175
1750561029650651100,3.957651123046875,0.03863750025629997,0.07397499680519104,-0.050599999725818634
1750561029660256000,3.967256103515625,0.028875000774860382,0.048262499272823334,-0.05555000156164169
1750561029669860900,3.97686083984375,0.0056374999694526196,0.010449999943375587,-0.04331250116229057
1750561029679465700,3.9864658203125,-0.011549999937415123,-0.016362499445676804,-0.009074999950826168
1750561029689070600,3.996070556640625,-0.015124999918043613,-0.016362499445676804,0.014162499457597733
1750561029698675200,4.00567529296875,-0.0005499999970197678,0.0031624999828636646,0.007974999956786633
1750561029708280000,4.015280029296875,0.018975000828504562,0.017737500369548798,-0.011549999937415123
1750561029717885000,4.024885009765625,0.029975000768899918,0.014162499457597733,-0.018837500363588333
1750561029727489500,4.034489501953125,0.03492499887943268,0.0006874999962747097,-0.0042624999769032
1750561029737094400,4.044094482421875,0.03863750025629997,-0.012787500396370888,0.014162499457597733
1750561029746699300,4.05369921875,0.043449997901916504,-0.01759999990463257,0.015399999916553497
1750561029756304100,4.06330419921875,0.03863750025629997,-0.012787500396370888,-0.005362499970942736
1750561029765908700,4.07290869140625,0.022687500342726707,-0.005362499970942736,-0.038362499326467514
1750561029775513600,4.082513671875,0.004399999976158142,-0.0042624999769032,-0.06531249731779099
1750561029785118200,4.0921181640625,-0.005362499970942736,-0.015262499451637268,-0.06888750195503235
1750561029794723000,4.10172314453125,-0.007837500423192978,-0.040837500244379044,-0.04936249926686287
1750561029804328000,4.111327880859375,-0.009074999950826168,-0.03959999978542328,-0.014024999924004078
1750561029813932800,4.120932861328125,-0.009074999950826168,0.0019249999895691872,0.0019249999895691872
1750561029823537700,4.13053759765625,-0.020075000822544098,0.060499999672174454,-0.015124999918043613
1750561029833142300,4.140142333984375,-0.031075000762939453,0.10573749989271164,-0.06407500058412552
1750561029842747100,4.1497470703125,-0.031075000762939453,0.12278749793767929,-0.1153625026345253
1750561029852351700,4.159351806640625,-0.022549999877810478,0.1069749966263771,-0.13612499833106995
1750561029861956600,4.16895654296875,-0.015124999918043613,0.05692499876022339,-0.11659999936819077
1750561029871561500,4.1785615234375,-0.011549999937415123,0.0031624999828636646,-0.0798875018954277
1750561029881166300,4.188166259765625,-0.005362499970942736,-0.018837500363588333,-0.06778749823570251
1750561029890771200,4.197771240234375,0.004399999976158142,-0.02736249938607216,-0.089649997651577
1750561029900376000,4.2073759765625,-0.0017874999903142452,-0.021312499418854713,-0.12636250257492065
1750561029909980700,4.216980712890625,-0.01759999990463257,-0.0005499999970197678,-0.14836250245571136
1750561029919585300,4.226585205078125,-0.02983750030398369,0.026399999856948853,-0.16183750331401825
1750561029929190100,4.236190185546875,-0.021312499418854713,0.021449999883770943,-0.1825999915599823
1750561029938795300,4.245795166015625,-0.0005499999970197678,0.012924999929964542,-0.2008875012397766
1750561029948399900,4.25539990234375,0.021449999883770943,0.0031624999828636646,-0.20817500352859497
1750561029958004700,4.265004638671875,0.05073750019073486,-0.022549999877810478,-0.19236250221729279
1750561029967609300,4.274609375,0.08016250282526016,-0.05912499874830246,-0.1434125006198883
1750561029977214200,4.284214111328125,0.11192499846220016,-0.141075000166893,-0.06888750195503235
1750561029986818800,4.29381884765625,0.148499995470047,-0.23512500524520874,0.010449999943375587
1750561029996423700,4.303423583984375,0.16568750143051147,-0.3279374837875366,0.05444999784231186
1750561030006028500,4.313028564453125,0.17902499437332153,-0.4012250006198883,0.06173750013113022
1750561030015633400,4.32263330078125,0.19249999523162842,-0.430649995803833,0.026399999856948853
1750561030025238300,4.33223828125,0.18768750131130219,-0.3854124844074249,-0.005362499970942736
1750561030034843100,4.341843017578125,0.18892499804496765,-0.271699994802475,0.020212499424815178
1750561030044447700,4.35144775390625,0.20350000262260437,-0.22893749177455902,0.14121249318122864
1750561030054052600,4.361052490234375,0.24997499585151672,-0.22659999132156372,0.40755000710487366
1750561030063657500,4.370657470703125,0.27197501063346863,-0.2741749882698059,0.7959874868392944
1750561030073262000,4.380261962890625,0.23278750479221344,-0.2924624979496002,1.292087435722351
1750561030082867200,4.3898671875,0.12044999748468399,-0.26936250925064087,1.8125250339508057
1750561030092471800,4.399471923828125,-0.10312499850988388,-0.22893749177455902,2.2474374771118164
1750561030102076400,4.409076416015625,-0.5160375237464905,-0.15207499265670776,2.5833499431610107
1750561030111681300,4.418681396484375,-1.012137532234192,-0.012787500396370888,2.8351125717163086
1750561030121286100,4.4282861328125,-1.3358124494552612,0.10821250081062317,2.962162494659424
1750561030130890800,4.437890869140625,-1.3993375301361084,0.09597499668598175,2.9779748916625977
1750561030140495600,4.44749560546875,-1.2808125019073486,0.03616249933838844,2.9462125301361084
1750561030150100500,4.4571005859375,-1.1464749574661255,-0.010312499478459358,2.8692123889923096
1750561030159705300,4.466705322265625,-1.121999979019165,-0.026262499392032623,2.762924909591675
1750561030169310000,4.47631005859375,-1.300475001335144,0.020212499424815178,2.670112371444702
1750561030178914800,4.485914794921875,-1.6229125261306763,0.12168750166893005,2.5503499507904053
1750561030188519700,4.495519775390625,-1.9247249364852905,0.1765500009059906,2.28401255607605
1750561030198124300,4.505124267578125,-2.092062473297119,0.14368750154972076,1.8528125286102295
1750561030207729200,4.514729248046875,-2.128774881362915,0.14973749220371246,1.349424958229065
1750561030217334000,4.524333984375,-2.050537586212158,0.22426250576972961,0.8009374737739563
1750561030226939000,4.53393896484375,-1.8892500400543213,0.4160749912261963,0.18273749947547913
1750561030236543500,4.54354345703125,-1.6974375247955322,0.6017000079154968,-0.4879874885082245
1750561030246148400,4.5531484375,-1.6449124813079834,0.5418875217437744,-1.1611875295639038
1750561030255753200,4.562753173828125,-1.8514374494552612,0.2853125035762787,-1.6766749620437622
1750561030265357800,4.57235791015625,-2.1727750301361084,0.055687498301267624,-1.9724375009536743
1750561030274962700,4.581962646484375,-2.2863500118255615,-0.06407500058412552,-2.1177749633789062
1750561030284567600,4.591567626953125,-2.101824998855591,-0.12155000120401382,-2.194775104522705
1750561030294172400,4.60117236328125,-1.712149977684021,-0.13007499277591705,-2.2277750968933105
1750561030303777300,4.61077734375,-1.225950002670288,-0.23017500340938568,-2.2680625915527344
1750561030313382000,4.6203818359375,-0.7298499941825867,-0.4489375054836273,-2.4244000911712646
1750561030322986800,4.62998681640625,-0.30841249227523804,-0.7690374851226807,-2.7102625370025635
1750561030332591600,4.639591552734375,0.022687500342726707,-1.0291874408721924,-3.018125057220459
1750561030342196500,4.649196533203125,0.2915000021457672,-1.1929500102996826,-3.3076999187469482
1750561030351801000,4.658801025390625,0.5211250185966492,-1.3639999628067017,-3.59975004196167
1750561030361406000,4.668406005859375,0.6861249804496765,-1.7719625234603882,-3.9088499546051025
1750561030371010600,4.678010498046875,0.9022749662399292,-2.1665875911712646,-4.076187610626221
1750561030380615400,4.687615478515625,1.195562481880188,-2.266824960708618,-4.084712505340576
1750561030390220300,4.69722021484375,1.470425009727478,-2.187350034713745,-3.9368999004364014
1750561030399825200,4.7068251953125,1.6952375173568726,-2.0297749042510986,-3.6778500080108643
1750561030409430000,4.716429931640625,1.9212875366210938,-1.9540125131607056,-3.3919875621795654
1750561030419034600,4.72603466796875,2.1936750411987305,-1.995537519454956,-3.115887403488159
1750561030428639500,4.735639404296875,2.4160125255584717,-2.0835375785827637,-2.8715500831604004
1750561030438244400,4.745244384765625,2.5748250484466553,-2.0700623989105225,-2.665024995803833
1750561030447849000,4.754848876953125,2.665299892425537,-1.8856749534606934,-2.517212390899658
1750561030457453600,4.76445361328125,2.6555373668670654,-1.6363874673843384,-2.3511126041412354
1750561030467058700,4.77405859375,2.6005375385284424,-1.2332375049591064,-1.9711999893188477
1750561030476663600,4.78366357421875,2.502774953842163,-0.6810374855995178,-1.312712550163269
1750561030486268200,4.79326806640625,2.4037749767303467,-0.05912499874830246,-0.4147000014781952
1750561030495873000,4.802873046875,2.36472487449646,0.5809375047683716,0.6176499724388123
1750561030505477600,4.8124775390625,2.1484375,1.0733250379562378,1.6145249605178833
1750561030515082500,4.82208251953125,1.7965749502182007,1.2810875177383423,2.2950124740600586
1750561030524687400,4.831687255859375,1.453374981880188,1.1430374383926392,2.4880623817443848
1750561030534292200,4.841292236328125,1.0867999792099,0.9230374693870544,2.340250015258789
1750561030543897000,4.85089697265625,0.6971250176429749,0.7972249984741211,2.0678625106811523
1750561030553501700,4.860501708984375,0.33550000190734863,0.8094624876976013,1.8625749349594116
1750561030563106600,4.8701064453125,0.08992499858140945,0.9487500190734863,1.807574987411499
1750561030572711400,4.87971142578125,-0.0005499999970197678,1.0928499698638916,1.8760499954223633
1750561030582316000,4.88931591796875,0.031212499365210533,1.1833250522613525,1.999387502670288
1750561030591920600,4.898920654296875,0.09844999760389328,1.2333749532699585,2.0458624362945557
1750561030601525500,4.908525390625,0.11316250264644623,1.2285624742507935,1.9321500062942505
1750561030611130400,4.91813037109375,0.004399999976158142,1.1857999563217163,1.707474946975708
1750561030620735200,4.9277353515625,-0.19593749940395355,1.095324993133545,1.4399000406265259
1750561030630340000,4.937340087890625,-0.36451250314712524,0.9010375142097473,1.1967999935150146
1750561030639945000,4.946945068359375,-0.4244624972343445,0.6567000150680542,1.0610874891281128
1750561030649549600,4.956549560546875,-0.4109874963760376,0.33783748745918274,1.034274935722351
1750561030659154200,4.966154296875,-0.37441250681877136,0.07150000333786011,1.0880374908447266
1750561030668759300,4.97575927734375,-0.30098751187324524,0.010449999943375587,1.141800045967102
1750561030678364200,4.9853642578125,-0.23746250569820404,0.06916250288486481,1.0708500146865845
1750561030687968800,4.99496875,-0.20817500352859497,0.22673749923706055,0.8779374957084656
1750561030697573600,5.00457373046875,-0.19236250221729279,0.39160001277923584,0.6237000226974487
1750561030707178200,5.01417822265625,-0.16788749396800995,0.4465999901294708,0.3843125104904175
1750561030716783000,5.023783203125,-0.13612499833106995,0.3940750062465668,0.20102499425411224
1750561030726387700,5.0333876953125,-0.09707500040531158,0.2059749960899353,0.07273750007152557
1750561030735992600,5.04299267578125,-0.07012499868869781,-0.06531249731779099,-0.0005499999970197678
1750561030745597400,5.052597412109375,-0.0798875018954277,-0.2998875081539154,-0.036024998873472214
1750561030755202300,5.062202392578125,-0.12017499655485153,-0.4207499921321869,-0.057887498289346695
1750561030764807200,5.07180712890625,-0.1788875013589859,-0.3854124844074249,-0.050599999725818634
1750561030774411800,5.081411865234375,-0.22288750112056732,-0.23141250014305115,-0.015124999918043613
1750561030784016600,5.0910166015625,-0.22288750112056732,-0.12636250257492065,0.015399999916553497
1750561030793621500,5.10062158203125,-0.15441249310970306,-0.07507500052452087,0.0471624992787838
1750561030803226000,5.11022607421875,-0.06159999966621399,-0.0518375001847744,0.0494999997317791
1750561030812831200,5.119831298828125,-0.0017874999903142452,-0.04331250116229057,-0.010312499478459358
1750561030832040400,5.13904052734375,-0.03231250122189522,-0.11783749610185623,-0.21683749556541443
1750561030841645300,5.148645263671875,-0.1214125007390976,-0.19359999895095825,-0.2595999836921692
1750561030851250200,5.158250244140625,-0.18617500364780426,-0.2363625019788742,-0.24117499589920044
1750561030860855000,5.16785498046875,-0.2008875012397766,-0.20707499980926514,-0.16788749396800995
1750561030870460000,5.1774599609375,-0.15812499821186066,-0.1153625026345253,-0.03231250122189522
1750561030880064800,5.187064697265625,-0.07864999771118164,-0.0518375001847744,0.1106875017285347
1750561030889669400,5.19666943359375,0.0006874999962747097,-0.009074999950826168,0.19978749752044678
1750561030899274200,5.206274169921875,0.05816249921917915,-0.006599999964237213,0.1985500007867813
1750561030908878800,5.21587890625,0.07644999772310257,-0.05912499874830246,0.1289750039577484
1750561030918483700,5.225483642578125,0.031212499365210533,-0.16307500004768372,0.03492499887943268
1750561030928088600,5.235088623046875,-0.05664999783039093,-0.27059999108314514,-0.03355000168085098
1750561030937693400,5.244693359375,-0.12636250257492065,-0.30469998717308044,-0.040837500244379044
1750561030947298300,5.25429833984375,-0.1531749963760376,-0.22893749177455902,-0.0005499999970197678
1750561030956903000,5.26390283203125,-0.1251250058412552,-0.1116499975323677,0.05197500064969063
1750561030966507800,5.2735078125,-0.06531249731779099,-0.006599999964237213,0.08621250092983246
1750561030976112400,5.2831123046875,-0.009074999950826168,0.06544999778270721,0.0789249986410141
1750561030985717500,5.292717529296875,0.027637500315904617,0.08868750184774399,0.03368749842047691
1750561030995322000,5.302322021484375,0.03616249933838844,0.0812624990940094,-0.023787500336766243
1750561031004927000,5.311927001953125,0.021449999883770943,0.03973750025033951,-0.08112499862909317
1750561031014531600,5.321531494140625,-0.009074999950826168,-0.02736249938607216,-0.1214125007390976
1750561031024136700,5.33113671875,-0.03959999978542328,-0.10188750177621841,-0.14231249690055847
1750561031033741300,5.3407412109375,-0.057887498289346695,-0.10807500034570694,-0.13612499833106995
1750561031043346200,5.35034619140625,-0.05912499874830246,-0.07012499868869781,-0.11412499845027924
1750561031052950800,5.35995068359375,-0.028599999845027924,-0.04331250116229057,-0.08112499862909317
1750561031062555600,5.3695556640625,0.021449999883770943,-0.020075000822544098,-0.036024998873472214
1750561031072160500,5.379160400390625,0.07039999961853027,0.0019249999895691872,-0.005362499970942736
1750561031081765000,5.38876513671875,0.09350000321865082,0.025162499397993088,-0.014024999924004078
1750561031091370000,5.398369873046875,0.08992499858140945,0.017737500369548798,-0.038362499326467514
1750561031100974800,5.407974853515625,0.05939999967813492,-0.0042624999769032,-0.04207500070333481
1750561031110579700,5.417579833984375,0.0056374999694526196,-0.016362499445676804,-0.03478749841451645
1750561031120184300,5.427184326171875,-0.04936249926686287,-0.007837500423192978,-0.045787498354911804
1750561031129789200,5.4367890625,-0.06888750195503235,-0.0030249999836087227,-0.08112499862909317
1750561031139394000,5.44639404296875,-0.04936249926686287,0.009212499484419823,-0.1190750002861023
1750561031148998700,5.45599853515625,-0.006599999964237213,0.011687500402331352,-0.13612499833106995
1750561031158603500,5.465603515625,0.0471624992787838,-0.010312499478459358,-0.10683749616146088
1750561031168208100,5.4752080078125,0.0849749967455864,-0.05678749829530716,-0.028599999845027924
1750561031177813000,5.48481298828125,0.08016250282526016,-0.10559999942779541,0.05816249921917915
1750561031187417900,5.49441796875,0.03863750025629997,-0.11288750171661377,0.1106875017285347
1750561031197022700,5.504022705078125,-0.005362499970942736,-0.04936249926686287,0.09844999760389328
1750561031206627600,5.513627685546875,-0.02488750033080578,0.048262499272823334,0.03492499887943268
1750561031216232200,5.523232177734375,-0.011549999937415123,0.1106875017285347,-0.03959999978542328
1750561031225837000,5.532837158203125,0.021449999883770943,0.09721250087022781,-0.08112499862909317
1750561031235441700,5.542441650390625,0.04839999973773956,0.03492499887943268,-0.06159999966621399
1750561031245046500,5.552046630859375,0.055687498301267624,-0.0518375001847744,0.011687500402331352
1750561031254651100,5.561651123046875,0.03863750025629997,-0.13859999179840088,0.10326249897480011
1750561031264256000,5.571256103515625,0.010449999943375587,-0.18617500364780426,0.17902499437332153
1750561031273860900,5.58086083984375,-0.010312499478459358,-0.17531250417232513,0.21078750491142273
1750561031283465700,5.5904658203125,-0.007837500423192978,-0.1288374960422516,0.18754999339580536
1750561031293070600,5.600070556640625,0.011687500402331352,-0.06407500058412552,0.12168750166893005
1750561031302675200,5.60967529296875,0.023924998939037323,0.012924999929964542,0.03492499887943268
1750561031312280000,5.619280029296875,0.017875000834465027,0.07026249915361404,-0.05555000156164169
1750561031321885000,5.628885009765625,0.0056374999694526196,0.07644999772310257,-0.11055000126361847
1750561031331489500,5.638489501953125,-0.010312499478459358,0.03492499887943268,-0.10807500034570694
1750561031341094100,5.64809423828125,-0.013887500390410423,-0.036024998873472214,-0.04702499881386757
1750561031350699000,5.657698974609375,0.0006874999962747097,-0.07012499868869781,0.029975000768899918
1750561031360304000,5.66730419921875,0.025162499397993088,-0.06655000150203705,0.06173750013113022
1750561031369908700,5.67690869140625,0.03863750025629997,-0.007837500423192978,0.031212499365210533
1750561031379513600,5.686513671875,0.026399999856948853,0.09968750178813934,-0.02736249938607216
1750561031389118500,5.696118408203125,0.0006874999962747097,0.15097500383853912,-0.07878749817609787
1750561031398723000,5.70572314453125,-0.015124999918043613,0.10944999754428864,-0.08855000138282776
1750561031408327700,5.71532763671875,-0.02983750030398369,0.018975000828504562,-0.0518375001847744
1750561031417932500,5.7249326171875,-0.035887498408555984,-0.06159999966621399,0.021449999883770943
1750561031427537700,5.73453759765625,-0.020075000822544098,-0.1116499975323677,0.10326249897480011
1750561031437142300,5.744142333984375,0.009212499484419823,-0.14588749408721924,0.14602500200271606
1750561031446747100,5.7537470703125,0.03368749842047691,-0.16788749396800995,0.13626250624656677
1750561031456351700,5.763351806640625,0.03863750025629997,-0.16060000658035278,0.08373750001192093
1750561031465956600,5.77295654296875,0.017875000834465027,-0.12031249701976776,0.015399999916553497
1750561031475561200,5.782561279296875,-0.01759999990463257,-0.053075000643730164,-0.038362499326467514
1750561031485166000,5.792166015625,-0.050599999725818634,0.010449999943375587,-0.06531249731779099
1750561031494771000,5.80177099609375,-0.05664999783039093,0.05073750019073486,-0.06159999966621399
1750561031504375800,5.811375732421875,-0.03959999978542328,0.060499999672174454,-0.03355000168085098
1750561031513980400,5.82098046875,-0.005362499970942736,0.03849999979138374,0.015399999916553497
1750561031523585300,5.830585205078125,0.03244999796152115,-0.03478749841451645,0.0752125009894371
1750561031533190100,5.840190185546875,0.05321250110864639,-0.11055000126361847,0.116737499833107
1750561031542795000,5.849794921875,0.0471624992787838,-0.14231249690055847,0.11550000309944153
1750561031552400000,5.85939990234375,0.029975000768899918,-0.10188750177621841,0.06173750013113022
1750561031562004500,5.86900439453125,0.012924999929964542,-0.014024999924004078,-0.03712499886751175
1750561031571609300,5.878609375,0.0006874999962747097,0.06792499870061874,-0.13983750343322754
1750561031581214000,5.8882138671875,-0.004124999977648258,0.09102500230073929,-0.19717499613761902
1750561031590818800,5.89781884765625,0.0056374999694526196,0.07150000333786011,-0.18012499809265137
1750561031600423700,5.907423583984375,0.023924998939037323,0.031212499365210533,-0.09583749622106552
1750561031610028300,5.9170283203125,0.04097500070929527,-0.016362499445676804,0.012924999929964542
1750561031619633200,5.926633056640625,0.03863750025629997,-0.04936249926686287,0.09473749995231628
1750561031629238000,5.936238037109375,0.021449999883770943,-0.04936249926686287,0.12402500212192535
1750561031638843000,5.9458427734375,0.006874999962747097,-0.036024998873472214,0.09116250276565552
1750561031648447500,5.955447509765625,-0.011549999937415123,-0.040837500244379044,0.014162499457597733
1750561031658052400,5.96505224609375,-0.03712499886751175,-0.04702499881386757,-0.06283749639987946
1750561031667657200,5.9746572265625,-0.05664999783039093,-0.040837500244379044,-0.10436250269412994
1750561031677262000,5.984261962890625,-0.05431250110268593,-0.01759999990463257,-0.089649997651577
1750561031686866700,5.99386669921875,-0.040837500244379044,0.006737499963492155,-0.040837500244379044
1750561031696471600,6.003471435546875,-0.013887500390410423,0.017737500369548798,0.018975000828504562
1750561031706076400,6.013076416015625,0.020212499424815178,-0.010312499478459358,0.06173750013113022
1750561031715681000,6.022680908203125,0.04468749836087227,-0.06159999966621399,0.0789249986410141
1750561031725286000,6.032285888671875,0.05073750019073486,-0.10078749805688858,0.06668750196695328
1750561031734890800,6.041890869140625,0.04468749836087227,-0.09831249713897705,0.029975000768899918
1750561031744495600,6.05149560546875,0.03368749842047691,-0.06655000150203705,-0.023787500336766243
1750561031754100200,6.061100341796875,0.017875000834465027,-0.007837500423192978,-0.07878749817609787
1750561031763705000,6.070705078125,-0.005362499970942736,0.043449997901916504,-0.1214125007390976
1750561031773310000,6.08031005859375,-0.031075000762939453,0.0752125009894371,-0.1313125044107437
1750561031782914600,6.08991455078125,-0.03464999794960022,0.07273750007152557,-0.09707500040531158
1750561031792519400,6.09951953125,-0.01759999990463257,0.029975000768899918,-0.02983750030398369
1750561031802124000,6.1091240234375,0.009212499484419823,-0.016362499445676804,0.043449997901916504
1750561031811729000,6.11872900390625,0.03987500071525574,-0.053075000643730164,0.09226249903440475
1750561031821333800,6.128333740234375,0.06063750013709068,-0.05678749829530716,0.09116250276565552
1750561031830938600,6.137938720703125,0.05197500064969063,-0.03478749841451645,0.03849999979138374
1750561031840543200,6.147543212890625,0.015399999916553497,0.015399999916553497,-0.02983750030398369
1750561031850148000,6.157148193359375,-0.028599999845027924,0.05197500064969063,-0.08483749628067017
1750561031859752700,6.166752685546875,-0.05431250110268593,0.06297499686479568,-0.08855000138282776
1750561031869357600,6.176357666015625,-0.05431250110268593,0.05197500064969063,-0.04702499881386757
1750561031878962400,6.18596240234375,-0.03355000168085098,0.03849999979138374,0.006737499963492155
1750561031888567600,6.195567626953125,0.0006874999962747097,0.031212499365210533,0.03973750025033951
1750561031898172200,6.205172119140625,0.023924998939037323,0.017737500369548798,0.03739999979734421
1750561031907776800,6.21477685546875,0.026399999856948853,-0.020075000822544098,0.017737500369548798
1750561031917381600,6.224381591796875,-0.009074999950826168,-0.07631249725818634,0.004399999976158142
1750561031926986200,6.233986328125,-0.048124998807907104,-0.10436250269412994,0.03616249933838844
1750561031936591400,6.24359130859375,-0.07383749634027481,-0.08483749628067017,0.0849749967455864
1750561031946196000,6.253196044921875,-0.07259999960660934,-0.03959999978542328,0.10573749989271164
1750561031955800800,6.26280078125,-0.045649997889995575,0.029975000768899918,0.07273750007152557
1750561031965405700,6.27240576171875,-0.015124999918043613,0.14368750154972076,-0.0005499999970197678
1750561031975010600,6.282010498046875,0.0006874999962747097,0.2120250016450882,-0.07878749817609787
1750561031984615200,6.291615234375,0.0006874999962747097,0.196212500333786,-0.11783749610185623
1750561031994220000,6.301219970703125,-0.009074999950826168,0.11302500218153,-0.09459999948740005
1750561032003825000,6.310824951171875,-0.026124998927116394,-0.0042624999769032,-0.03478749841451645
1750561032013429800,6.3204296875,-0.050599999725818634,-0.058024998754262924,0.017737500369548798
1750561032023034400,6.330034423828125,-0.06283749639987946,-0.036024998873472214,0.017737500369548798
1750561032032639200,6.33963916015625,-0.05555000156164169,-0.011549999937415123,-0.016362499445676804
1750561032042243800,6.349243896484375,-0.03355000168085098,-0.0017874999903142452,-0.053075000643730164
1750561032051848700,6.3588486328125,-0.005362499970942736,0.012924999929964542,-0.09955000132322311
1750561032061453300,6.368453369140625,0.020212499424815178,0.016499999910593033,-0.1471250057220459
1750561032071058200,6.37805810546875,0.03244999796152115,0.011687500402331352,-0.17159999907016754
1750561032080663000,6.3876630859375,0.03244999796152115,0.0019249999895691872,-0.15936249494552612
1750561032090268000,6.397267822265625,0.027637500315904617,-0.028599999845027924,-0.11412499845027924
1750561032099872800,6.406872802734375,0.025162499397993088,-0.016362499445676804,-0.057887498289346695
1750561032109477400,6.416477294921875,0.028875000774860382,0.007974999956786633,-0.03231250122189522
1750561032119082200,6.426082275390625,0.03244999796152115,-0.005362499970942736,-0.048124998807907104
1750561032128686800,6.435686767578125,0.03987500071525574,-0.04207500070333481,-0.07878749817609787
1750561032138291700,6.445291748046875,0.05444999784231186,-0.10807500034570694,-0.0835999995470047
1750561032147896600,6.454896484375,0.07768750190734863,-0.17036250233650208,-0.050599999725818634
1750561032157501400,6.46450146484375,0.11550000309944153,-0.2204124927520752,0.006737499963492155
1750561032167106000,6.47410595703125,0.16568750143051147,-0.23759999871253967,0.060499999672174454
1750561032176711000,6.4837109375,0.2022625058889389,-0.23388749361038208,0.08744999766349792
1750561032186315500,6.4933154296875,0.2340250015258789,-0.22536249458789825,0.09597499668598175
1750561032195920400,6.50292041015625,0.22550000250339508,-0.20707499980926514,0.11192499846220016
1750561032205525200,6.512525146484375,0.18273749947547913,-0.08978749811649323,0.2437874972820282
1750561032215130000,6.522130126953125,0.13750000298023224,-0.0017874999903142452,0.4881249964237213
1750561032224734700,6.531734619140625,0.11550000309944153,-0.021312499418854713,0.8216999769210815
1750561032234339800,6.54133984375,0.18645000457763672,-0.10078749805688858,1.2676124572753906
1750561032243944400,6.5509443359375,0.2512125074863434,-0.17159999907016754,1.8332874774932861
1750561032253549000,6.560549072265625,0.17297500371932983,-0.05678749829530716,2.4965875148773193
1750561032263154000,6.57015380859375,-0.13488750159740448,0.19126249849796295,3.0244500637054443
1750561032272758800,6.5797587890625,-0.6333249807357788,0.600600004196167,3.334787368774414
1750561032282363400,6.58936328125,-1.1404249668121338,0.9645624756813049,3.4556500911712646
1750561032291968000,6.598968017578125,-1.5068625211715698,1.0367499589920044,3.48865008354187
1750561032301573000,6.608572998046875,-1.6791499853134155,0.9707499742507935,3.5766499042510986
1750561032311178000,6.618177978515625,-1.732912540435791,0.8595125079154968,3.677987575531006
1750561032320782600,6.627782470703125,-1.7157249450683594,0.6848874688148499,3.7061750888824463
1750561032330387500,6.637387451171875,-1.6681499481201172,0.5308874845504761,3.6291749477386475
1750561032339992300,6.646992431640625,-1.6314375400543213,0.36959999799728394,3.3701250553131104
1750561032349597000,6.656596923828125,-1.7011499404907227,0.06421250104904175,2.871687412261963
1750561032359201800,6.666201904296875,-1.9454874992370605,-0.271699994802475,2.231487512588501
1750561032368806700,6.675806640625,-2.2508749961853027,-0.3866499960422516,1.5839999914169312
1750561032378411300,6.685411376953125,-2.4133999347686768,-0.2924624979496002,0.9499874711036682
1750561032388016000,6.69501611328125,-2.3046374320983887,0.06668750196695328,0.2927374839782715
1750561032397621000,6.70462109375,-2.0028250217437744,0.46131250262260437,-0.4525125026702881
1750561032407225600,6.7142255859375,-1.6938624382019043,0.5748875141143799,-1.217287540435791
1750561032416830500,6.72383056640625,-1.471387505531311,0.342787504196167,-1.9174374341964722
1750561032426435300,6.733435302734375,-1.357812523841858,-0.20212499797344208,-2.540450096130371
1750561032436040000,6.7430400390625,-1.2905750274658203,-0.8227999806404114,-2.9986000061035156
1750561032445644800,6.752644775390625,-1.187999963760376,-1.1941875219345093,-3.2698874473571777
1750561032455249700,6.762249755859375,-1.068237543106079,-1.5020500421524048,-3.415225028991699
1750561032464854500,6.7718544921875,-0.9253749847412109,-1.841675043106079,-3.442037582397461
1750561032474459100,6.781459228515625,-0.7616124749183655,-2.373112440109253,-3.437224864959717
1750561032484064000,6.79106396484375,-0.5575624704360962,-3.0340750217437744,-3.454274892807007
1750561032493668900,6.8006689453125,-0.19112500548362732,-3.3456499576568604,-3.4066998958587646
1750561032503273500,6.8102734375,0.3647874891757965,-3.1965999603271484,-3.258887529373169
1750561032512878300,6.81987841796875,1.0648000240325928,-2.8019750118255615,-3.001075029373169
1750561032522483200,6.829483154296875,1.7832374572753906,-2.486687421798706,-2.770212411880493
1750561032532087800,6.839087890625,2.3134374618530273,-2.3963499069213867,-2.760312557220459
1750561032541692700,6.848692626953125,2.6481125354766846,-2.3963499069213867,-2.8960249423980713
1750561032551297500,6.858297607421875,2.9584500789642334,-2.237537384033203,-2.9082624912261963
1750561032560902400,6.86790234375,3.2834999561309814,-2.02620005607605,-2.672450065612793
1750561032570507300,6.87750732421875,3.507075071334839,-1.6791499853134155,-2.1898250579833984
1750561032580112000,6.88711181640625,3.465549945831299,-1.0817124843597412,-1.5960999727249146
1750561032589716700,6.896716796875,3.2210750579833984,-0.37193748354911804,-1.0584750175476074
1750561032599321300,6.9063212890625,2.885162591934204,0.20350000262260437,-0.6957499980926514
1750561032608926200,6.91592626953125,2.5064873695373535,0.4575999975204468,-0.4012250006198883
1750561032618531000,6.925531005859375,2.209625005722046,0.3170749843120575,-0.018837500363588333
1750561032628136000,6.935135986328125,1.960337519645691,-0.14464999735355377,0.39902499318122864
1750561032637740800,6.94474072265625,1.7489999532699585,-0.6040375232696533,0.7189875245094299
1750561032647345400,6.954345458984375,1.470425009727478,-0.5319874882698059,0.8692749738693237
1750561032656950300,6.9639501953125,1.0709874629974365,0.14121249318122864,0.8375124931335449
1750561032666555000,6.973554931640625,0.552887499332428,0.854699969291687,0.6176499724388123
1750561032676159700,6.98315966796875,0.09597499668598175,1.3677124977111816,0.4441249966621399
1750561032685764600,6.9927646484375,-0.12388750165700912,1.6035250425338745,0.48688748478889465
1750561032695369200,7.002369140625,-0.2069374918937683,1.4739999771118164,0.688462495803833
1750561032704974000,7.01197412109375,-0.18136249482631683,1.1100374460220337,0.9732249975204468
1750561032714579000,7.021578857421875,-0.1153625026345253,0.6261749863624573,1.1943249702453613
1750561032724183800,7.031183837890625,-0.14588749408721924,0.334262490272522,1.270087480545044
1750561032733788400,7.040788330078125,-0.24117499589920044,0.31831249594688416,1.1978999376296997
1750561032743393000,7.05039306640625,-0.3254624903202057,0.4355999827384949,0.9732249975204468
1750561032752998000,7.059997802734375,-0.4049375057220459,0.5651249885559082,0.6701750159263611
1750561032762603000,7.06960302734375,-0.4622749984264374,0.6591749787330627,0.4283125102519989
1750561032772207600,7.07920751953125,-0.5124624967575073,0.7178875207901001,0.31459999084472656
1750561032781812500,7.0888125,-0.5465624928474426,0.7704125046730042,0.3073124885559082
1750561032791417000,7.0984169921875,-0.5355625152587891,0.7606499791145325,0.3525499999523163
1750561032801022000,7.10802197265625,-0.4782249927520752,0.675125002861023,0.43312498927116394
1750561032810626600,7.11762646484375,-0.38046249747276306,0.47464999556541443,0.5028374791145325
1750561032820231400,7.1272314453125,-0.27665001153945923,0.22302499413490295,0.5186499953269958
1750561032829836000,7.1368359375,-0.18988749384880066,0.03368749842047691,0.469837486743927
1750561032839441200,7.146441162109375,-0.1629374921321869,-0.0005499999970197678,0.3330250084400177
1750561032849046000,7.1560458984375,-0.19717499613761902,0.09597499668598175,0.14973749220371246
1750561032858650600,7.165650634765625,-0.2582249939441681,0.19126249849796295,0.0031624999828636646
1750561032868255500,7.17525537109375,-0.32298749685287476,0.2157374918460846,-0.06655000150203705
1750561032877860000,7.184860107421875,-0.3414124846458435,0.148499995470047,-0.04936249926686287
1750561032887465000,7.19446484375,-0.3059374988079071,0.048262499272823334,0.020212499424815178
1750561032897069600,7.204069580078125,-0.2264624983072281,-0.06283749639987946,0.11302500218153
1750561032906674400,7.21367431640625,-0.1214125007390976,-0.18617500364780426,0.19373749196529388
1750561032916279600,7.223279541015625,-0.038362499326467514,-0.2363625019788742,0.20473749935626984
1750561032925884200,7.23288427734375,0.0031624999828636646,-0.17036250233650208,0.1326874941587448
1750561032935488800,7.24248876953125,-0.0028874999843537807,-0.05912499874830246,-0.0017874999903142452
1750561032945093600,7.25209375,-0.057887498289346695,0.03726249933242798,-0.14588749408721924
1750561032954698500,7.261698486328125,-0.13007499277591705,0.12044999748468399,-0.23993749916553497
1750561032964303000,7.27130322265625,-0.1751749962568283,0.15097500383853912,-0.24969999492168427
1750561032973908200,7.280908203125,-0.17641249299049377,0.1106875017285347,-0.16417500376701355
1750561032983512800,7.290512939453125,-0.1373624950647354,-0.0042624999769032,-0.018837500363588333
1750561032993117700,7.30011767578125,-0.07259999960660934,-0.15207499265670776,0.11797499656677246
1750561033002722600,7.30972265625,0.010449999943375587,-0.2595999836921692,0.18878750503063202
1750561033012327200,7.3193271484375,0.08016250282526016,-0.30717501044273376,0.17173749208450317
1750561033021932000,7.32893212890625,0.10449999570846558,-0.24860000610351562,0.0849749967455864
1750561033031536600,7.33853662109375,0.09239999949932098,-0.1190750002861023,-0.04331250116229057
1750561033041141500,7.3481416015625,0.03244999796152115,0.06668750196695328,-0.1691250056028366
1750561033050746400,7.357746337890625,-0.04455000162124634,0.22550000250339508,-0.23017500340938568
1750561033060351200,7.367351318359375,-0.08236250281333923,0.2340250015258789,-0.21559999883174896
1750561033069955800,7.376955810546875,-0.06407500058412552,0.13626250624656677,-0.12388750165700912
1750561033079560700,7.386560791015625,-0.0017874999903142452,-0.0005499999970197678,0.012924999929964542
1750561033089165600,7.39616552734375,0.07163749635219574,-0.09212499856948853,0.13626250624656677
1750561033098770200,7.405770263671875,0.12044999748468399,-0.09583749622106552,0.18645000457763672
1750561033108375000,7.415375,0.14492499828338623,-0.02502499893307686,0.15826250612735748
1750561033117979600,7.424979736328125,0.12416250258684158,0.09844999760389328,0.07644999772310257
1750561033127584500,7.43458447265625,0.05816249921917915,0.20954999327659607,-0.026124998927116394
1750561033137189400,7.444189453125,-0.0028874999843537807,0.25850000977516174,-0.10436250269412994
1750561033146794200,7.453794189453125,-0.026124998927116394,0.20473749935626984,-0.12759999930858612
1750561033156398800,7.46339892578125,-0.021312499418854713,0.10202500224113464,-0.089649997651577
1750561033166003700,7.473003662109375,0.009212499484419823,-0.018837500363588333,-0.007837500423192978
1750561033175608600,7.482608642578125,0.04468749836087227,-0.11659999936819077,0.08621250092983246
1750561033185213400,7.49221337890625,0.06544999778270721,-0.16183750331401825,0.17297500371932983
1750561033194818000,7.501818115234375,0.05939999967813492,-0.1508374959230423,0.22302499413490295
1750561033204423000,7.5114228515625,0.029975000768899918,-0.09583749622106552,0.2120250016450882
1750561033214027800,7.52102783203125,-0.006599999964237213,0.005499999970197678,0.1387374997138977
1750561033223632400,7.53063232421875,-0.026124998927116394,0.11426249891519547,0.026399999856948853
1750561033233237200,7.5402373046875,-0.022549999877810478,0.16197499632835388,-0.07012499868869781
1750561033242841900,7.549841796875,-0.0005499999970197678,0.13378749787807465,-0.12031249701976776
1750561033252446700,7.55944677734375,0.03739999979734421,0.05073750019073486,-0.1153625026345253
1750561033262051800,7.5690517578125,0.08373750001192093,-0.06778749823570251,-0.05555000156164169
1750561033271656200,7.57865625,0.11316250264644623,-0.172837495803833,0.043449997901916504
1750561033281261000,7.588260986328125,0.11550000309944153,-0.24365000426769257,0.1387374997138977
1750561033290866000,7.597865966796875,0.11316250264644623,-0.25712499022483826,0.18754999339580536
1750561033300470500,7.607470458984375,0.10573749989271164,-0.18383750319480896,0.16197499632835388
1750561033310075400,7.617075439453125,0.09844999760389328,-0.060362499207258224,0.0752125009894371
1750561033319680000,7.626679931640625,0.08992499858140945,0.04221250116825104,-0.036024998873472214
1750561033329284900,7.636284912109375,0.06297499686479568,0.10202500224113464,-0.13241249322891235
1750561033338889700,7.6458896484375,0.031212499365210533,0.10821250081062317,-0.19593749940395355
1750561033348494300,7.655494384765625,0.012924999929964542,0.06173750013113022,-0.19483749568462372
1750561033358099500,7.665099365234375,0.018975000828504562,0.015399999916553497,-0.12636250257492065
1750561033367704000,7.6747041015625,0.03492499887943268,-0.04207500070333481,-0.026124998927116394
1750561033377309000,7.684308837890625,0.05444999784231186,-0.09212499856948853,0.06173750013113022
1750561033386913500,7.69391357421875,0.05073750019073486,-0.10807500034570694,0.09721250087022781
1750561033396518400,7.703518310546875,0.020212499424815178,-0.07136250287294388,0.07150000333786011
1750561033406123000,7.713123046875,-0.016362499445676804,-0.014024999924004078,0.0056374999694526196
1750561033415727900,7.722727783203125,-0.03464999794960022,0.04221250116825104,-0.057887498289346695
1750561033425332700,7.732332763671875,-0.02488750033080578,0.05197500064969063,-0.08236250281333923
1750561033434937600,7.7419375,-0.0028874999843537807,0.03368749842047691,-0.060362499207258224
1750561033444542500,7.75154248046875,0.021449999883770943,-0.0005499999970197678,-0.012787500396370888
1750561033454147000,7.76114697265625,0.03244999796152115,-0.010312499478459358,0.04097500070929527
1750561033463751700,7.770751708984375,0.029975000768899918,0.011687500402331352,0.06421250104904175
1750561033473356800,7.780356689453125,0.017875000834465027,0.029975000768899918,0.03244999796152115
1750561033482961400,7.78996142578125,-0.012787500396370888,0.026399999856948853,-0.028599999845027924
1750561033492566300,7.799566162109375,-0.045649997889995575,-0.007837500423192978,-0.0775500014424324
1750561033502171100,7.809171142578125,-0.07136250287294388,-0.04936249926686287,-0.09336250275373459
1750561033511775700,7.818775634765625,-0.08607500046491623,-0.0873124971985817,-0.0873124971985817
1750561033521380600,7.828380615234375,-0.08483749628067017,-0.13859999179840088,-0.07507500052452087
1750561033530985500,7.8379853515625,-0.07259999960660934,-0.17641249299049377,-0.06655000150203705
1750561033540590000,7.847590087890625,-0.04936249926686287,-0.16431249678134918,-0.06407500058412552
1750561033550195000,7.85719482421875,-0.02488750033080578,-0.0775500014424324,-0.07259999960660934
1750561033559799800,7.8667998046875,-0.0028874999843537807,0.0494999997317791,-0.09459999948740005
1750561033569404700,7.87640478515625,0.022687500342726707,0.15702499449253082,-0.10807500034570694
1750561033579009300,7.88600927734375,0.03244999796152115,0.16802500188350677,-0.08483749628067017
1750561033588614100,7.8956142578125,0.028875000774860382,0.09102500230073929,-0.023787500336766243
1750561033598218800,7.90521875,0.016637500375509262,-0.028599999845027924,0.043449997901916504
1750561033607823600,7.91482373046875,-0.0005499999970197678,-0.1313125044107437,0.09350000321865082
1750561033617428500,7.924428466796875,-0.023787500336766243,-0.16307500004768372,0.11921250075101852
1750561033627033300,7.934033447265625,-0.038362499326467514,-0.13255000114440918,0.10326249897480011
1750561033636638000,7.943637939453125,-0.038362499326467514,-0.045787498354911804,0.05692499876022339
1750561033646242800,7.953242919921875,-0.022549999877810478,0.0471624992787838,0.006737499963492155
1750561033655847700,7.96284765625,0.008112499490380287,0.10449999570846558,-0.03478749841451645
1750561033665452300,7.972452392578125,0.031212499365210533,0.13021250069141388,-0.06888750195503235
1750561033675057000,7.982056884765625,0.03739999979734421,0.11550000309944153,-0.08855000138282776
1750561033684662000,7.991662109375,0.03616249933838844,0.03849999979138374,-0.089649997651577
1750561033694267000,8.001266845703125,0.026399999856948853,-0.053075000643730164,-0.07383749634027481
1750561033703871500,8.01087158203125,0.009212499484419823,-0.10683749616146088,-0.0518375001847744
1750561033713476400,8.020476318359375,-0.0028874999843537807,-0.07507500052452087,-0.021312499418854713
1750561033723081000,8.0300810546875,0.0031624999828636646,-0.020075000822544098,0.016637500375509262
1750561033732685800,8.039685791015625,0.017875000834465027,0.0031624999828636646,0.05197500064969063
1750561033742290700,8.049290771484374,0.028875000774860382,-0.0005499999970197678,0.05926249921321869
1750561033751895300,8.058895263671875,0.025162499397993088,0.004399999976158142,0.03368749842047691
1750561033761500400,8.06850048828125,0.009212499484419823,0.015399999916553497,-0.011549999937415123
1750561033771105000,8.07810498046875,-0.009074999950826168,0.010449999943375587,-0.05555000156164169
1750561033780709600,8.087709716796875,-0.026124998927116394,0.0019249999895691872,-0.09336250275373459
1750561033790314500,8.097314453125,-0.040837500244379044,0.015399999916553497,-0.12031249701976776
1750561033799919400,8.10691943359375,-0.04331250116229057,0.03726249933242798,-0.11659999936819077
1750561033809524200,8.116524169921876,-0.02736249938607216,0.0471624992787838,-0.09088750183582306
1750561033819129000,8.126129150390625,0.0031624999828636646,0.05692499876022339,-0.04936249926686287
1750561033828733700,8.135733642578124,0.03492499887943268,0.0471624992787838,-0.015124999918043613
1750561033838338600,8.145338623046875,0.04468749836087227,0.022687500342726707,-0.011549999937415123
1750561033847943200,8.154943115234374,0.03244999796152115,0.010449999943375587,-0.02736249938607216
1750561033857548000,8.164548095703125,0.008112499490380287,0.012924999929964542,-0.050599999725818634
1750561033867153000,8.17415283203125,-0.020075000822544098,0.021449999883770943,-0.07383749634027481
1750561033876757500,8.183757568359376,-0.038362499326467514,0.010449999943375587,-0.08112499862909317
1750561033886362400,8.1933623046875,-0.03712499886751175,-0.021312499418854713,-0.05431250110268593
1750561033895967200,8.20296728515625,-0.022549999877810478,-0.04455000162124634,0.004399999976158142
1750561033905571800,8.21257177734375,0.0031624999828636646,-0.028599999845027924,0.06297499686479568
1750561033915176700,8.2221767578125,0.029975000768899918,0.016499999910593033,0.08992499858140945
1750561033924781600,8.231781494140625,0.03987500071525574,0.0789249986410141,0.07273750007152557
1750561033934386400,8.241386474609374,0.031212499365210533,0.09968750178813934,0.006737499963492155
1750561033943991000,8.250990966796875,0.006874999962747097,0.06544999778270721,-0.05678749829530716
1750561033953596000,8.260595947265625,-0.03712499886751175,-0.007837500423192978,-0.089649997651577
1750561033963200800,8.27020068359375,-0.08112499862909317,-0.08978749811649323,-0.09336250275373459
1750561033972805600,8.2798056640625,-0.10436250269412994,-0.13859999179840088,-0.07383749634027481
1750561033982410200,8.28941015625,-0.10312499850988388,-0.1373624950647354,-0.04702499881386757
1750561033992014800,8.299014892578125,-0.07741250097751617,-0.10312499850988388,-0.028599999845027924
1750561034001619700,8.30861962890625,-0.03464999794960022,-0.060362499207258224,-0.02736249938607216
1750561034011224600,8.318224609375,0.008112499490380287,-0.022549999877810478,-0.03478749841451645
1750561034020829400,8.327829345703124,0.04839999973773956,0.048262499272823334,-0.02983750030398369
1750561034030434000,8.33743408203125,0.06916250288486481,0.0789249986410141,-0.011549999937415123
1750561034040039000,8.347038818359374,0.07397499680519104,0.07644999772310257,0.0019249999895691872
1750561034049643800,8.356643798828125,0.06544999778270721,0.0494999997317791,0.004399999976158142
1750561034059248400,8.366248291015625,0.03368749842047691,0.011687500402331352,-0.01759999990463257
1750561034068853200,8.375853271484376,-0.016362499445676804,-0.04207500070333481,-0.048124998807907104
1750561034078458000,8.3854580078125,-0.05912499874830246,-0.0873124971985817,-0.060362499207258224
1750561034088063000,8.39506298828125,-0.08607500046491623,-0.09212499856948853,-0.06531249731779099
1750561034097667600,8.40466748046875,-0.08841250091791153,-0.03231250122189522,-0.07631249725818634
1750561034107272400,8.4142724609375,-0.07259999960660934,0.06297499686479568,-0.09707500040531158
1750561034116877300,8.423877197265625,-0.045649997889995575,0.1350249946117401,-0.1093124970793724
1750561034126482000,8.43348193359375,-0.005362499970942736,0.14726249873638153,-0.09459999948740005
1750561034136086500,8.44308642578125,0.026399999856948853,0.09844999760389328,-0.048124998807907104
1750561034145691400,8.45269140625,0.03616249933838844,0.025162499397993088,0.020212499424815178
1750561034155296300,8.462296142578126,0.020212499424815178,-0.0518375001847744,0.07273750007152557
1750561034164901000,8.471901123046875,-0.007837500423192978,-0.08855000138282776,0.0789249986410141
1750561034174506000,8.481506103515626,-0.013887500390410423,-0.08978749811649323,0.03244999796152115
1750561034184110600,8.491110595703125,0.0056374999694526196,-0.05912499874830246,-0.03231250122189522
1750561034193715500,8.500715576171874,0.03368749842047691,0.017737500369548798,-0.08236250281333923
1750561034203320000,8.510320068359375,0.0752125009894371,0.04592499881982803,-0.10683749616146088
1750561034212925000,8.519925048828124,0.14368750154972076,0.023924998939037323,-0.07259999960660934
1750561034222529800,8.52952978515625,0.23649999499320984,-0.028599999845027924,0.0494999997317791
1750561034232134400,8.539134521484375,0.3170749843120575,-0.07136250287294388,0.24626250565052032
1750561034241739300,8.5487392578125,0.34773749113082886,-0.06283749639987946,0.4833124876022339
1750561034251344100,8.55834423828125,0.3012624979019165,0.012924999929964542,0.7031750082969666
1750561034260948700,8.56794873046875,0.21697500348091125,0.16802500188350677,0.9340375065803528
1750561034270553600,8.5775537109375,0.1106875017285347,0.3232625126838684,1.2260874509811401
1750561034280158200,8.587158203125,-0.02736249938607216,0.6176499724388123,1.7098125219345093
1750561034289763000,8.59676318359375,-0.14588749408721924,0.9120374917984009,2.3011999130249023
1750561034299368000,8.606367919921874,-0.28146249055862427,1.2150875329971313,2.9034500122070312
1750561034308972800,8.615972900390625,-0.39393749833106995,1.5437124967575073,3.337125062942505
1750561034318577700,8.62557763671875,-0.5075125098228455,1.6805249452590942,3.460599899291992
1750561034328182300,8.635182373046876,-0.73232501745224,1.8430500030517578,3.3958375453948975
1750561034337787100,8.644787109375,-1.0328999757766724,2.1289124488830566,3.2223124504089355
1750561034347391700,8.654391845703126,-1.2772375345230103,2.186387538909912,2.9609251022338867
1750561034356996600,8.66399658203125,-1.5081000328063965,2.108150005340576,2.7983999252319336
1750561034366601200,8.673601318359376,-1.7181999683380127,1.9468624591827393,2.794687509536743
1750561034376206300,8.683206298828125,-1.8647749423980713,1.7122875452041626,2.860687494277954
1750561034385811000,8.69281103515625,-1.8354874849319458,1.5522375106811523,2.8888750076293945
1750561034395415800,8.702415771484375,-1.6009124517440796,1.2713249921798706,2.7446374893188477
1750561034405020400,8.7120205078125,-1.3468124866485596,0.7496500015258789,2.3561999797821045
1750561034414625300,8.721625244140625,-1.3162875175476074,0.13626250624656677,1.7575249671936035
1750561034424230100,8.731230224609375,-1.5093375444412231,-0.24860000610351562,1.0795124769210815
1750561034433834800,8.740834716796876,-1.7402000427246094,-0.31088748574256897,0.37207499146461487
1750561034443439400,8.750439453125,-1.8892500400543213,-0.1508374959230423,-0.3279374837875366
1750561034453044500,8.76004443359375,-1.9479625225067139,-0.009074999950826168,-0.9644249677658081
1750561034462649300,8.7696494140625,-1.9307750463485718,-0.23883749544620514,-1.5386250019073486
1750561034472254000,8.77925390625,-1.803725004196167,-0.9706124663352966,-2.044487476348877
1750561034481858800,8.78885888671875,-1.6681499481201172,-2.009012460708618,-2.442687511444092
1750561034491463400,8.79846337890625,-1.5899125337600708,-3.0658373832702637,-2.7237374782562256
1750561034501068300,8.808068359375,-1.5228124856948853,-3.8660874366760254,-2.9326000213623047
1750561034510673200,8.817673095703125,-1.274762511253357,-4.1947126388549805,-3.0694124698638916
1750561034520277800,8.82727783203125,-0.8080874681472778,-4.076187610626221,-3.1586499214172363
1750561034529882600,8.836882568359375,-0.19470000267028809,-3.730375051498413,-3.163599967956543
1750561034539487500,8.846487548828126,0.39778751134872437,-3.55822491645813,-3.057312488555908
1750561034549092000,8.856092041015625,0.8791750073432922,-3.552037477493286,-2.9277875423431396
1750561034558697000,8.865697021484374,1.2993749380111694,-3.6277999877929688,-3.0083625316619873
1750561034568301600,8.875301513671875,1.5914249420166016,-3.671799898147583,-3.401750087738037
1750561034577906700,8.88490673828125,1.7795250415802002,-3.550800085067749,-3.8708999156951904
1750561034587511300,8.89451123046875,1.9591000080108643,-3.211174964904785,-4.098187446594238
1750561034597116200,8.9041162109375,2.11433744430542,-2.5869250297546387,-3.894137382507324
1750561034606721000,8.913720947265626,2.2364375591278076,-1.6571500301361084,-3.228224992752075
1750561034616325600,8.92332568359375,2.3867249488830566,-0.7555624842643738,-2.2692999839782715
1750561034625930500,8.932930419921876,2.616349935531616,-0.1825999915599823,-1.2064249515533447
1750561034635535000,8.94253515625,2.860687494277954,0.16554999351501465,-0.19359999895095825
1750561034645140000,8.952139892578124,2.9877374172210693,0.49912500381469727,0.5798375010490417
1750561034654744800,8.961744873046875,2.940162420272827,0.6897000074386597,0.941462516784668
1750561034664349700,8.971349609375,2.5882999897003174,0.8057500123977661,0.9182249903678894
1750561034673954600,8.98095458984375,1.978624939918518,0.8607500195503235,0.6676999926567078
1750561034683559200,8.99055908203125,1.2627999782562256,0.9732249975204468,0.42336249351501465
1750561034693164000,9.0001640625,0.6763625144958496,1.1833250522613525,0.4160749912261963
1750561034702768600,9.0097685546875,0.33178749680519104,1.3188999891281128,0.7409874796867371
1750561034712373800,9.019373779296876,0.23154999315738678,1.4289000034332275,1.278612494468689
1750561034721978400,9.028978271484375,0.3465000092983246,1.3677124977111816,1.7843375205993652
1750561034731583000,9.0385830078125,0.5626500248908997,1.0782749652862549,2.0801000595092773
1750561034741187800,9.048187744140625,0.6995999813079834,0.7178875207901001,2.105674982070923
1750561034750792700,9.057792724609374,0.6591749787330627,0.5516499876976013,1.9090499877929688
1750561034760397300,9.067397216796875,0.39778751134872437,0.675125002861023,1.527762532234192
1750561034770002200,9.077002197265625,-0.05431250110268593,1.0097999572753906,1.058750033378601
1750561034779606800,9.086606689453125,-0.4207499921321869,1.3249499797821045,0.6774625182151794
1750561034789211600,9.096211669921875,-0.5442249774932861,1.3469499349594116,0.5101249814033508
1750561034798816500,9.10581640625,-0.46351251006126404,1.0978000164031982,0.5688375234603882
1750561034808421400,9.11542138671875,-0.2961750030517578,0.6126999855041504,0.7117000222206116
1750561034818026200,9.125026123046876,-0.1531749963760376,0.24873749911785126,0.8229374885559082
1750561034827630800,9.134630859375,-0.10559999942779541,0.09226249903440475,0.8119375109672546
1750561034837235700,9.144235595703124,-0.13983750343322754,0.0752125009894371,0.6982250213623047
1750561034846840300,9.15384033203125,-0.19841249287128448,0.09102500230073929,0.5174124836921692
1750561034856445000,9.16344482421875,-0.23993749916553497,0.0752125009894371,0.2938374876976013
1750561034866049800,9.1730498046875,-0.24488750100135803,0.012924999929964542,0.08016250282526016
1750561034875655000,9.182655029296875,-0.22893749177455902,-0.007837500423192978,-0.05555000156164169
1750561034885259500,9.192259521484376,-0.18988749384880066,0.0849749967455864,-0.10436250269412994
1750561034894864400,9.201864501953125,-0.1190750002861023,0.16554999351501465,-0.10312499850988388
1750561034904469200,9.21146923828125,-0.03355000168085098,0.14368750154972076,-0.07136250287294388
1750561034914073900,9.221073974609375,0.04097500070929527,0.021449999883770943,-0.03231250122189522
1750561034923678500,9.230678466796874,0.08139999955892563,-0.17159999907016754,-0.014024999924004078
1750561034933283300,9.240283447265625,0.09350000321865082,-0.3474625051021576,-0.016362499445676804
1750561034942888200,9.24988818359375,0.07768750190734863,-0.40974998474121094,-0.03959999978542328
1750561034952493000,9.2594931640625,0.009212499484419823,-0.2974124848842621,-0.09955000132322311
1750561034962097700,9.26909765625,-0.08483749628067017,-0.0518375001847744,-0.1825999915599823
1750561034971702500,9.27870263671875,-0.16417500376701355,0.15097500383853912,-0.2583625018596649
1750561034981307100,9.28830712890625,-0.19470000267028809,0.18150000274181366,-0.2876499891281128
1750561034990912000,9.297912109375,-0.17393749952316284,0.10449999570846558,-0.22659999132156372
1750561035000516900,9.307516845703125,-0.11041250079870224,-0.04936249926686287,-0.0835999995470047
1750561035010121500,9.31712158203125,-0.03959999978542328,-0.21793749928474426,0.08992499858140945
1750561035019726600,9.3267265625,-0.004124999977648258,-0.32065001130104065,0.20473749935626984
1750561035029331200,9.336331298828124,0.004399999976158142,-0.3156999945640564,0.21326249837875366
1750561035038936000,9.34593603515625,-0.01759999990463257,-0.17036250233650208,0.11797499656677246
1750561035048540700,9.355540771484375,-0.07012499868869781,0.026399999856948853,-0.04331250116229057
1750561035058145500,9.3651455078125,-0.0873124971985817,0.14726249873638153,-0.19359999895095825
1750561035067750400,9.37475048828125,-0.06641250103712082,0.18273749947547913,-0.26688748598098755
1750561035077355300,9.384355224609376,-0.035887498408555984,0.13378749787807465,-0.24365000426769257
1750561035086959900,9.3939599609375,-0.0017874999903142452,0.03616249933838844,-0.15331250429153442
1750561035096564700,9.403564697265624,0.016637500375509262,-0.06159999966621399,-0.031075000762939453
1750561035106169300,9.41316943359375,0.006874999962747097,-0.10312499850988388,0.06668750196695328
1750561035115774200,9.422774169921874,-0.018837500363588333,-0.10078749805688858,0.10821250081062317
1750561035125378800,9.43237890625,-0.03355000168085098,-0.0835999995470047,0.09721250087022781
1750561035134983700,9.441983642578125,-0.026124998927116394,-0.07012499868869781,0.05692499876022339
1750561035144588500,9.451588623046876,-0.007837500423192978,-0.06159999966621399,0.010449999943375587
1750561035154193200,9.461193115234375,0.021449999883770943,-0.04702499881386757,-0.048124998807907104
1750561035163798300,9.47079833984375,0.04963750019669533,-0.031075000762939453,-0.09955000132322311
1750561035173403000,9.48040283203125,0.06916250288486481,-0.010312499478459358,-0.12636250257492065
1750561035183007700,9.4900078125,0.07644999772310257,-0.031075000762939453,-0.12636250257492065
1750561035192612400,9.4996123046875,0.07163749635219574,-0.08483749628067017,-0.10312499850988388
1750561035202217200,9.50921728515625,0.05073750019073486,-0.12759999930858612,-0.026124998927116394
1750561035211821800,9.51882177734375,0.006874999962747097,-0.12264999747276306,0.10326249897480011
1750561035221427000,9.528427001953125,-0.007837500423192978,-0.11659999936819077,0.21078750491142273
1750561035231031600,9.538031494140625,0.021449999883770943,-0.11288750171661377,0.2377374917268753
1750561035240636400,9.547636474609375,0.06063750013709068,-0.1190750002861023,0.1839749962091446
1750561035250241000,9.557240966796876,0.0789249986410141,-0.12759999930858612,0.07644999772310257
1750561035259846000,9.566845947265625,0.07644999772310257,-0.10683749616146088,-0.053075000643730164
1750561035269450800,9.57645068359375,0.07039999961853027,-0.07507500052452087,-0.15565000474452972
1750561035279055400,9.586055419921875,0.06297499686479568,-0.05678749829530716,-0.2069374918937683
1750561035288660500,9.595660400390624,0.05197500064969063,-0.02736249938607216,-0.2046000063419342
1750561035298265000,9.60526513671875,0.03368749842047691,0.04221250116825104,-0.15441249310970306
1750561035307869700,9.61486962890625,0.015399999916553497,0.09844999760389328,-0.08607500046491623
1750561035317474600,9.624474609375,0.011687500402331352,0.1106875017285347,-0.026124998927116394
1750561035327079200,9.6340791015625,0.017875000834465027,0.0789249986410141,0.004399999976158142
1750561035336684000,9.64368408203125,0.026399999856948853,0.018975000828504562,0.017737500369548798
1750561035346289000,9.653288818359375,0.031212499365210533,-0.058024998754262924,0.022687500342726707
1750561035355893500,9.6628935546875,0.018975000828504562,-0.1373624950647354,0.022687500342726707
1750561035365498600,9.67249853515625,-0.0017874999903142452,-0.17765000462532043,0.029975000768899918
1750561035375103200,9.682103271484374,-0.013887500390410423,-0.1568875014781952,0.04221250116825104
1750561035384707800,9.691707763671875,-0.009074999950826168,-0.06283749639987946,0.043449997901916504
1750561035394312700,9.701312744140624,0.0019249999895691872,0.03616249933838844,0.026399999856948853
1750561035403917600,9.71091748046875,0.018975000828504562,0.060499999672174454,0.0019249999895691872
1750561035413522200,9.720522216796875,0.031212499365210533,0.031212499365210533,-0.005362499970942736
1750561035423127300,9.730127197265626,0.026399999856948853,0.0031624999828636646,-0.0042624999769032
1750561035432732200,9.739732177734375,0.008112499490380287,-0.02736249938607216,-0.010312499478459358
1750561035442336800,9.749336669921876,-0.0017874999903142452,-0.06778749823570251,-0.011549999937415123
1750561035451941400,9.75894140625,-0.004124999977648258,-0.11055000126361847,-0.006599999964237213
1750561035461546200,9.768546142578124,-0.0028874999843537807,-0.11783749610185623,0.007974999956786633
1750561035471151000,9.778151123046875,-0.006599999964237213,-0.040837500244379044,0.028737500309944153
1750561035480756000,9.787755859375,-0.013887500390410423,0.055687498301267624,0.027499999850988388
1750561035490360600,9.797360595703125,-0.021312499418854713,0.12168750166893005,0.0031624999828636646
1750561035499965400,9.80696533203125,-0.02488750033080578,0.1424500048160553,-0.026124998927116394
1750561035509570000,9.816570068359376,-0.020075000822544098,0.12402500212192535,-0.04331250116229057
1750561035519175000,9.8261748046875,-0.007837500423192978,0.06297499686479568,-0.045787498354911804
1750561035528779800,9.83577978515625,0.008112499490380287,-0.02983750030398369,-0.031075000762939453
1750561035538384600,9.845384521484375,0.017875000834465027,-0.09336250275373459,-0.0030249999836087227
1750561035547989200,9.8549892578125,0.017875000834465027,-0.09088750183582306,0.03739999979734421
1750561035557594000,9.864593994140625,0.016637500375509262,-0.050599999725818634,0.06792499870061874
1750561035567199000,9.874198974609374,0.011687500402331352,-0.010312499478459358,0.0789249986410141
1750561035576803600,9.883803466796875,0.008112499490380287,0.026399999856948853,0.04839999973773956
1750561035586408400,9.893408447265625,0.014162499457597733,0.05197500064969063,-0.018837500363588333
1750561035596013000,9.903012939453125,0.022687500342726707,0.08249999582767487,-0.09459999948740005
1750561035605618000,9.912617919921875,0.03616249933838844,0.09350000321865082,-0.14464999735355377
1750561035615222800,9.922222900390626,0.04468749836087227,0.08373750001192093,-0.14464999735355377
1750561035624827400,9.931827392578125,0.043449997901916504,0.05816249921917915,-0.10559999942779541
1750561035634432500,9.9414326171875,0.04221250116825104,0.03368749842047691,-0.040837500244379044
1750561035644037000,9.951037109375,0.029975000768899918,0.026399999856948853,0.011687500402331352
1750561035653641700,9.960641845703124,0.0031624999828636646,0.016499999910593033,0.03616249933838844
1750561035663246600,9.97024658203125,-0.026124998927116394,0.004399999976158142,0.03616249933838844
1750561035672851500,9.9798515625,-0.040837500244379044,-0.015262499451637268,0.023924998939037323
1750561035682456000,9.9894560546875,-0.023787500336766243,-0.014024999924004078,0.011687500402331352
1750561035692060700,9.999060791015625,-0.0005499999970197678,-0.0005499999970197678,-0.0030249999836087227
1750561035701665500,10.00866552734375,0.029975000768899918,0.015399999916553497,-0.0017874999903142452
1750561035711270400,10.0182705078125,0.05692499876022339,0.015399999916553497,0.025162499397993088
1750561035720875300,10.027875244140626,0.06173750013113022,0.029975000768899918,0.0494999997317791
1750561035730479900,10.03747998046875,0.05197500064969063,0.03244999796152115,0.043449997901916504
1750561035740084700,10.047084716796874,0.03987500071525574,0.03492499887943268,0.016637500375509262
1750561035749689300,10.056689453125,0.018975000828504562,0.03849999979138374,-0.03231250122189522
1750561035759294200,10.066294189453124,-0.009074999950826168,0.018975000828504562,-0.07012499868869781
1750561035768899000,10.075899169921875,-0.02736249938607216,-0.026262499392032623,-0.06778749823570251
1750561035778504000,10.08550390625,-0.026124998927116394,-0.11288750171661377,-0.010312499478459358
1750561035788108500,10.095108642578126,0.0019249999895691872,-0.17641249299049377,0.08016250282526016
1750561035797713400,10.10471337890625,0.03244999796152115,-0.17765000462532043,0.14726249873638153
1750561035807318300,10.114318359375,0.04839999973773956,-0.1093124970793724,0.15950000286102295
1750561035816923000,10.1239228515625,0.04592499881982803,-0.028599999845027924,0.11426249891519547
1750561035826527500,10.133527587890624,0.03244999796152115,0.03368749842047691,0.04592499881982803
1750561035836132400,10.14313232421875,0.016637500375509262,0.0494999997317791,-0.022549999877810478
1750561035845737200,10.1527373046875,0.006874999962747097,0.03492499887943268,-0.06655000150203705
1750561035855342000,10.162342041015625,0.009212499484419823,0.020212499424815178,-0.07878749817609787
1750561035864946700,10.17194677734375,0.012924999929964542,0.015399999916553497,-0.07136250287294388
1750561035874551600,10.181551513671875,0.016637500375509262,0.014162499457597733,-0.060362499207258224
1750561035884156400,10.191156494140625,0.021449999883770943,-0.0030249999836087227,-0.050599999725818634
1750561035893761000,10.200760986328126,0.028875000774860382,-0.012787500396370888,-0.02502499893307686
1750561035903366000,10.210365966796875,0.028875000774860382,-0.028599999845027924,0.006737499963492155
1750561035912970500,10.219970458984376,0.020212499424815178,-0.02983750030398369,0.026399999856948853
1750561035922575600,10.22957568359375,0.0031624999828636646,-0.010312499478459358,0.015399999916553497
1750561035932180200,10.23918017578125,-0.006599999964237213,0.009212499484419823,-0.01759999990463257
1750561035941785000,10.24878515625,-0.009074999950826168,-0.0005499999970197678,-0.05555000156164169
1750561035951389700,10.2583896484375,-0.011549999937415123,-0.040837500244379044,-0.07507500052452087
1750561035960994600,10.26799462890625,-0.012787500396370888,-0.06778749823570251,-0.05555000156164169
1750561035970599200,10.27759912109375,0.0006874999962747097,-0.09212499856948853,-0.011549999937415123
1750561035980204000,10.2872041015625,0.025162499397993088,-0.13983750343322754,0.03616249933838844
1750561035989809000,10.296808837890625,0.04839999973773956,-0.15331250429153442,0.06916250288486481
1750561035999413500,10.30641357421875,0.04097500070929527,-0.08112499862909317,0.07150000333786011
1750561036009018400,10.316018310546875,0.015399999916553497,0.010449999943375587,0.0471624992787838
1750561036018623200,10.325623291015624,-0.010312499478459358,0.055687498301267624,0.007974999956786633
1750561036028228000,10.33522802734375,-0.03231250122189522,0.05692499876022339,-0.016362499445676804
1750561036037832700,10.344832763671874,-0.04936249926686287,0.04097500070929527,-0.02502499893307686
1750561036047437300,10.354437255859375,-0.045649997889995575,0.03726249933242798,-0.02983750030398369
1750561036057042200,10.364042236328125,-0.022549999877810478,0.03849999979138374,-0.04936249926686287
1750561036066646800,10.373646728515626,0.009212499484419823,0.031212499365210533,-0.0798875018954277
1750561036076251600,10.383251708984375,0.025162499397993088,0.03616249933838844,-0.09336250275373459
1750561036085856500,10.3928564453125,0.017875000834465027,0.06173750013113022,-0.08112499862909317
1750561036095461400,10.40246142578125,0.0006874999962747097,0.07644999772310257,-0.05678749829530716
1750561036105066200,10.412066162109374,-0.007837500423192978,0.05444999784231186,-0.018837500363588333
1750561036114670800,10.4216708984375,-0.006599999964237213,-0.005362499970942736,0.031212499365210533
1750561036124275700,10.431275634765624,0.0031624999828636646,-0.05431250110268593,0.0752125009894371
1750561036133880300,10.44088037109375,0.016637500375509262,-0.07507500052452087,0.07150000333786011
1750561036143485000,10.45048486328125,0.017875000834465027,-0.07507500052452087,0.016637500375509262
1750561036153089800,10.46008984375,-0.0017874999903142452,-0.050599999725818634,-0.06283749639987946
1750561036162695000,10.46969482421875,-0.03712499886751175,-0.01759999990463257,-0.14836250245571136
1750561036172299500,10.479299560546876,-0.06159999966621399,0.014162499457597733,-0.2106499969959259
1750561036181904100,10.488904052734375,-0.057887498289346695,0.048262499272823334,-0.23759999871253967
1750561036191509200,10.49850927734375,-0.03231250122189522,0.05444999784231186,-0.22288750112056732
1750561036201113600,10.508113525390625,0.016637500375509262,0.0031624999828636646,-0.17159999907016754
1750561036210718500,10.517718505859374,0.07163749635219574,-0.07878749817609787,-0.09831249713897705
1750561036220323300,10.5273232421875,0.11921250075101852,-0.16307500004768372,-0.04455000162124634
1750561036229928000,10.536927978515624,0.16568750143051147,-0.23388749361038208,-0.048124998807907104
1750561036239533000,10.546532958984375,0.20721249282360077,-0.2937000095844269,-0.08607500046491623
1750561036249137700,10.5561376953125,0.2377374917268753,-0.36822500824928284,-0.15331250429153442
1750561036258742500,10.565742431640626,0.2829749882221222,-0.48317500948905945,-0.24488750100135803
1750561036268347100,10.57534716796875,0.34773749113082886,-0.6358000040054321,-0.319412499666214
1750561036277952000,10.584951904296876,0.4160749912261963,-0.8398500084877014,-0.3474625051021576
1750561036287556900,10.594556884765625,0.478362500667572,-1.09642493724823,-0.2546499967575073
1750561036297161700,10.60416162109375,0.44536250829696655,-1.217424988746643,0.029975000768899918
1750561036306766300,10.613766357421875,0.3073124885559082,-0.9376124739646912,0.5601750016212463
1750561036316371200,10.62337109375,0.18645000457763672,-0.596750020980835,1.1515624523162842
1750561036325976000,10.63297607421875,0.04592499881982803,-0.3866499960422516,1.6634750366210938
1750561036335580700,10.64258056640625,-0.09088750183582306,-0.10188750177621841,2.0849125385284424
1750561036345185300,10.652185302734376,-0.2363625019788742,0.20473749935626984,2.2950124740600586
1750561036354790100,10.6617900390625,-0.3854124844074249,0.4856500029563904,2.3304874897003174
1750561036364395300,10.671395263671876,-0.5759875178337097,0.7202249765396118,2.2827749252319336
1750561036373999900,10.680999755859375,-0.7921375036239624,0.7984625101089478,2.297487497329712
1750561036383604500,10.6906044921875,-1.0144749879837036,0.819225013256073,2.5515875816345215
1750561036393209300,10.700209228515625,-1.2417625188827515,1.0367499589920044,3.0256874561309814
1750561036402814200,10.709814208984374,-1.3993375301361084,1.283424973487854,3.459362506866455
1750561036412418800,10.719418701171875,-1.4848624467849731,1.5082374811172485,3.680462598800659
1750561036422023400,10.7290234375,-1.5178624391555786,1.5644749402999878,3.6524124145507812
1750561036431628300,10.738628173828126,-1.537387490272522,1.532712459564209,3.460599899291992
1750561036441233400,10.7482333984375,-1.5448124408721924,1.5559500455856323,3.1514999866485596
1750561036450838000,10.757838134765626,-1.5923874378204346,1.5314749479293823,2.709162473678589
1750561036460443000,10.76744287109375,-1.7023874521255493,1.4141875505447388,2.134962558746338
1750561036470047500,10.777047607421874,-1.8941999673843384,1.2150875329971313,1.4862375259399414
1750561036479652400,10.78665234375,-2.1115875244140625,1.1393250226974487,0.8607500195503235
1750561036489257000,10.796257080078124,-2.1665875911712646,1.2101374864578247,0.2853125035762787
1750561036498861600,10.805861572265625,-1.983299970626831,1.292087435722351,-0.2656500041484833
1750561036508466700,10.815466796875,-1.6889125108718872,1.2736624479293823,-0.8325625061988831
1750561036518071300,10.8250712890625,-1.4518624544143677,1.0610874891281128,-1.4018124341964722
1750561036527676200,10.83467626953125,-1.4103374481201172,0.6323624849319458,-1.916200041770935
1750561036537280800,10.84428076171875,-1.4983375072479248,0.12278749793767929,-2.335162401199341
1750561036546885600,10.8538857421875,-1.5618624687194824,-0.5882250070571899,-2.700500011444092
1750561036556490500,10.863490478515626,-1.5533374547958374,-1.575337529182434,-3.032837390899658
1750561036566095400,10.873095458984375,-1.3810499906539917,-2.5148749351501465,-3.2491250038146973
1750561036575700000,10.882699951171874,-0.98642498254776,-3.1611249446868896,-3.3137500286102295
1750561036585304600,10.8923046875,-0.48179998993873596,-3.5055625438690186,-3.2674124240875244
1750561036594909700,10.90190966796875,0.023924998939037323,-3.5288000106811523,-3.1953625679016113
1750561036604514300,10.911514404296875,0.46254998445510864,-3.3797500133514404,-3.275937557220459
1750561036614119200,10.921119140625,0.866937518119812,-3.139124870300293,-3.574037551879883
1750561036623723800,10.930723876953126,1.2443749904632568,-2.990074872970581,-4.039474964141846
1750561036633328600,10.94032861328125,1.5314749479293823,-3.056075096130371,-4.553862571716309
1750561036642933500,10.94993359375,1.745287537574768,-3.222174882888794,-4.900774955749512
1750561036652538000,10.9595380859375,1.9236249923706055,-3.3247499465942383,-4.921537399291992
1750561036662143000,10.96914306640625,2.047100067138672,-3.20636248588562,-4.491574764251709
1750561036671747800,10.978747802734375,2.0923373699188232,-2.7652626037597656,-3.5410375595092773
1750561036681352400,10.9883525390625,2.091099977493286,-2.021250009536743,-2.236299991607666
1750561036690957300,10.997957275390625,2.160675048828125,-1.1636625528335571,-0.854562520980835
1750561036700562000,11.00756201171875,2.40625,-0.5087500214576721,0.33178749680519104
1750561036710166800,11.017166748046876,2.6005375385284424,-0.14588749408721924,1.1160874366760254
1750561036719771600,11.026771728515625,2.5002999305725098,0.2780250012874603,1.4557124376296997
1750561036729376500,11.03637646484375,2.174149990081787,0.6774625182151794,1.3604249954223633
1750561036738981400,11.0459814453125,1.6964750289916992,1.0905125141143799,1.0110374689102173
1750561036748586000,11.0555859375,1.199275016784668,1.532712459564209,0.6861249804496765
1750561036758190600,11.065190673828125,0.8082249760627747,1.5864750146865845,0.6029375195503235
1750561036767795200,11.074795166015624,0.5480750203132629,1.3139499425888062,0.9157499670982361
1750561036777400000,11.084400146484375,0.3965499997138977,0.9242749810218811,1.5082374811172485
1750561036787005000,11.0940048828125,0.3269749879837036,0.5981249809265137,2.0996248722076416
1750561036796609800,11.10360986328125,0.29631251096725464,0.39160001277923584,2.461250066757202
1750561036806214400,11.11321435546875,0.2853125035762787,0.28049999475479126,2.5247750282287598
1750561036815819300,11.1228193359375,0.2475000023841858,0.2670249938964844,2.3487749099731445
1750561036825424100,11.132424072265625,0.09844999760389328,0.33178749680519104,1.995674967765808
1750561036835028700,11.14202880859375,-0.16417500376701355,0.478362500667572,1.541237473487854
1750561036844633600,11.151633544921875,-0.40974998474121094,0.683650016784668,1.1015125513076782
1750561036854238500,11.161238525390624,-0.527037501335144,0.7947499752044678,0.7789375185966492
1750561036863843000,11.170843017578125,-0.48922500014305115,0.7496500015258789,0.6335999965667725
1750561036873448000,11.180447998046875,-0.36451250314712524,0.5785999894142151,0.6213625073432922
1750561036883052500,11.190052490234375,-0.2143625020980835,0.40383750200271606,0.6567000150680542
1750561036892657400,11.199657470703125,-0.0873124971985817,0.2780250012874603,0.6591749787330627
1750561036902262300,11.20926220703125,-0.031075000762939453,0.20102499425411224,0.596887469291687
1750561036911867100,11.2188671875,-0.04207500070333481,0.13997499644756317,0.4796000123023987
1750561036921471700,11.2284716796875,-0.10064999759197235,0.04221250116825104,0.31831249594688416
1750561036931076400,11.238076416015625,-0.1886499971151352,-0.05555000156164169,0.1387374997138977
1750561036940681200,11.24768115234375,-0.2582249939441681,-0.12636250257492065,-0.02502499893307686
1750561036950286000,11.2572861328125,-0.26317501068115234,-0.1373624950647354,-0.1313125044107437
1750561036959891000,11.266890869140624,-0.1886499971151352,-0.021312499418854713,-0.1568875014781952
1750561036969495600,11.27649560546875,-0.06531249731779099,0.10202500224113464,-0.12759999930858612
1750561036979100400,11.286100341796875,0.04221250116825104,0.16321249306201935,-0.0835999995470047
1750561036988705000,11.295705078125,0.06916250288486481,0.18754999339580536,-0.07259999960660934
1750561036998310000,11.305309814453125,0.04097500070929527,0.14121249318122864,-0.11055000126361847
1750561037007914500,11.31491455078125,-0.0017874999903142452,0.015399999916553497,-0.15936249494552612
1750561037017519400,11.324519287109375,-0.050599999725818634,-0.17531250417232513,-0.18507499992847443
1750561037027124200,11.334124267578124,-0.08841250091791153,-0.3328875005245209,-0.18136249482631683
1750561037036728800,11.343728759765625,-0.10436250269412994,-0.3889875113964081,-0.16664999723434448
1750561037046333700,11.353333740234374,-0.11288750171661377,-0.30346250534057617,-0.1434125006198883
1750561037055938600,11.3629384765625,-0.11288750171661377,-0.12759999930858612,-0.11659999936819077
1750561037065543200,11.372543212890625,-0.11041250079870224,0.018975000828504562,-0.09955000132322311
1750561037075148000,11.38214794921875,-0.11288750171661377,0.10944999754428864,-0.08607500046491623
1750561037084752600,11.391752685546875,-0.11412499845027924,0.15097500383853912,-0.08112499862909317
1750561037094357500,11.401357421875,-0.10188750177621841,0.13378749787807465,-0.07631249725818634
1750561037103962400,11.41096240234375,-0.08236250281333923,0.04221250116825104,-0.060362499207258224
1750561037113567200,11.420567138671874,-0.06531249731779099,-0.09583749622106552,-0.04455000162124634
1750561037123172000,11.430172119140625,-0.0518375001847744,-0.20817500352859497,-0.04455000162124634
1750561037132776700,11.439776611328124,-0.0518375001847744,-0.27293750643730164,-0.045787498354911804
1750561037142381300,11.44938134765625,-0.07259999960660934,-0.1825999915599823,-0.021312499418854713
1750561037151986200,11.458986083984374,-0.08841250091791153,-0.02983750030398369,0.022687500342726707
1750561037161591000,11.468591064453125,-0.07383749634027481,0.0752125009894371,0.06668750196695328
1750561037171195600,11.478195556640625,-0.02983750030398369,0.13144999742507935,0.09350000321865082
1750561037180800500,11.487800537109376,0.018975000828504562,0.1350249946117401,0.09226249903440475
1750561037190405400,11.4974052734375,0.05321250110864639,0.09102500230073929,0.06544999778270721
1750561037200010000,11.507010009765626,0.06297499686479568,-0.005362499970942736,0.031212499365210533
1750561037209614800,11.51661474609375,0.05692499876022339,-0.11659999936819077,0.004399999976158142
1750561037219219500,11.526219482421874,0.04963750019669533,-0.17036250233650208,-0.011549999937415123
1750561037228824300,11.53582421875,0.07039999961853027,-0.14231249690055847,-0.03231250122189522
1750561037238429200,11.54542919921875,0.1143999993801117,-0.026262499392032623,-0.057887498289346695
1750561037248033800,11.55503369140625,0.16692499816417694,0.11178749799728394,-0.089649997651577
1750561037257638700,11.564638671875,0.20473749935626984,0.21697500348091125,-0.1214125007390976
1750561037267243500,11.574243408203126,0.22302499413490295,0.2303124964237213,-0.13488750159740448
1750561037276848000,11.58384814453125,0.196212500333786,0.1765500009059906,-0.1093124970793724
1750561037286453000,11.593452880859376,0.12168750166893005,0.08249999582767487,-0.04207500070333481
1750561037296057600,11.6030576171875,0.029975000768899918,-0.028599999845027924,0.03368749842047691
1750561037305662500,11.612662353515624,-0.02488750033080578,-0.11055000126361847,0.08744999766349792
1750561037315267000,11.62226708984375,-0.026124998927116394,-0.12759999930858612,0.09226249903440475
1750561037324872000,11.631871826171874,0.009212499484419823,-0.08483749628067017,0.04592499881982803
1750561037334477000,11.64147705078125,0.05073750019073486,-0.014024999924004078,-0.031075000762939453
1750561037344081700,11.65108154296875,0.0752125009894371,0.06297499686479568,-0.10559999942779541
1750561037353686500,11.6606865234375,0.07768750190734863,0.12044999748468399,-0.14231249690055847
1750561037363291100,11.670291015625,0.06063750013709068,0.1350249946117401,-0.1214125007390976
1750561037372895700,11.679895751953126,0.026399999856948853,0.11797499656677246,-0.050599999725818634
1750561037382500900,11.6895009765625,0.0006874999962747097,0.06173750013113022,0.04221250116825104
1750561037392105500,11.69910546875,-0.012787500396370888,-0.0017874999903142452,0.12402500212192535
1750561037401710300,11.70871044921875,-0.016362499445676804,-0.060362499207258224,0.16073749959468842
1750561037411315000,11.71831494140625,-0.004124999977648258,-0.12388750165700912,0.13750000298023224
