time,seconds_elapsed,z,y,x
1750561025760710400,0.06771044921875,-0.14190000295639038,0.12457499653100967,-0.18424999713897705
1750561025770315000,0.07731494140625,-0.1284250020980835,0.2320999950170517,-0.14767499268054962
1750561025779920000,0.086919921875,-0.17971250414848328,0.3871999979019165,-0.08291249722242355
1750561025789524700,0.096524658203125,-0.2909500002861023,0.4544374942779541,-0.011962499469518661
1750561025799129300,0.10612939453125,-0.3764750063419342,0.3971000015735626,0.052662499248981476
1750561025808734200,0.115734130859375,-0.37523749470710754,0.20762500166893005,0.08084999769926071
1750561025818339000,0.125339111328125,-0.3092375099658966,-0.09404999762773514,0.06861250102519989
1750561025827944000,0.13494384765625,-0.21147499978542328,-0.27252501249313354,0.08084999769926071
1750561025837548500,0.144548583984375,-0.13942499458789825,-0.3493874967098236,0.1163249984383583
1750561025847153400,0.1541533203125,-0.07342500239610672,-0.3543374836444855,0.0966624990105629
1750561025856758300,0.16375830078125,0.018149999901652336,-0.16981250047683716,0.020899999886751175
1750561025866363100,0.173363037109375,0.12815000116825104,0.12828749418258667,-0.08538749814033508
1750561025875967700,0.1829677734375,0.202674999833107,0.3433375060558319,-0.19648750126361847
1750561025885572600,0.192572509765625,0.2147749960422516,0.4166249930858612,-0.2782999873161316
1750561025895177500,0.202177490234375,0.18796250224113464,0.3774375021457672,-0.30524998903274536
1750561025904782000,0.211781982421875,0.13667500019073486,0.24310000240802765,-0.2770625054836273
1750561025914387200,0.22138720703125,0.07796250283718109,0.07452499866485596,-0.2124374955892563
1750561025923992000,0.230991943359375,0.013199999928474426,-0.11604999750852585,-0.14272500574588776
1750561025933596700,0.2405966796875,-0.040562499314546585,-0.2223374992609024,-0.062150001525878906
1750561025943201300,0.250201171875,-0.06613750010728836,-0.21986250579357147,0.002612499985843897
1750561025952806100,0.25980615234375,-0.055137500166893005,-0.12952500581741333,0.02956249937415123
1750561025962411000,0.269410888671875,-0.01484999991953373,-0.0085249999538064,0.020899999886751175
1750561025972015600,0.279015625,0.04619999974966049,0.07823749631643295,-0.014437500387430191
1750561025981620500,0.288620361328125,0.11343749612569809,0.0989999994635582,-0.06091250106692314
1750561025991225300,0.298225341796875,0.1732500046491623,0.06599999964237213,-0.10615000128746033
1750561026000830200,0.307830322265625,0.202674999833107,0.002474999986588955,-0.15867500007152557
1750561026010435000,0.31743505859375,0.1671999990940094,-0.06476250290870667,-0.22453749179840088
1750561026020039700,0.327039794921875,0.08043749630451202,-0.1050499975681305,-0.2782999873161316
1750561026029644500,0.33664453125,-0.011137500405311584,-0.04895000159740448,-0.27101248502731323
1750561026039249200,0.346249267578125,-0.07108750194311142,0.054999999701976776,-0.20253749191761017
1750561026048854000,0.35585400390625,-0.08566249907016754,0.12099999934434891,-0.09143749624490738
1750561026058459000,0.365458984375,-0.04661250114440918,0.15757499635219574,0.042899999767541885
1750561026068063700,0.375063720703125,0.018149999901652336,0.13928750157356262,0.1578499972820282
1750561026077668600,0.384668701171875,0.0719124972820282,0.0952875018119812,0.22618749737739563
1750561026087273200,0.394273193359375,0.09515000134706497,0.05623750016093254,0.23471249639987946
1750561026096878000,0.403878173828125,0.09872499853372574,0.054999999701976776,0.20061250030994415
1750561026106483000,0.41348291015625,0.08043749630451202,0.0695749968290329,0.14313749969005585
1750561026116087600,0.423087646484375,0.04496249929070473,0.08181250095367432,0.08084999769926071
1750561026125692700,0.432692626953125,0.01209999993443489,0.12457499653100967,0.02956249937415123
1750561026135297300,0.44229736328125,-0.008799999952316284,0.1625249981880188,0.00013749999925494194
1750561026144902100,0.451902099609375,-0.01966249942779541,0.17104999721050262,0.005087499972432852
1750561026154506800,0.4615068359375,-0.025849999859929085,0.16733749210834503,0.03684999793767929
1750561026164111600,0.471111572265625,-0.028324998915195465,0.14176249504089355,0.06984999775886536
1750561026173716500,0.480716552734375,-0.035612501204013824,0.08552499860525131,0.09913749992847443
1750561026183321300,0.4903212890625,-0.05637500062584877,0.01952499896287918,0.14313749969005585
1750561026192926000,0.499926025390625,-0.0906125009059906,-0.032999999821186066,0.201712504029274
1750561026202530800,0.50953076171875,-0.13089999556541443,-0.047712501138448715,0.25066250562667847
1750561026212135700,0.5191357421875,-0.14190000295639038,-0.04647500067949295,0.27018749713897705
1750561026221740500,0.528740478515625,-0.12361250072717667,-0.054999999701976776,0.24818749725818634
1750561026231345200,0.53834521484375,-0.10408750176429749,-0.047712501138448715,0.19442500174045563
1750561026240950000,0.547949951171875,-0.10642500221729279,0.004812499973922968,0.12113749980926514
1750561026250554600,0.5575546875,-0.11261250078678131,0.07933750003576279,0.045375000685453415
1750561026260159500,0.567159423828125,-0.10037499666213989,0.14176249504089355,-0.002199999988079071
1750561026269764400,0.576764404296875,-0.07108750194311142,0.17352500557899475,-0.0009624999947845936
1750561026279369000,0.586368896484375,-0.035612501204013824,0.14781250059604645,0.035612501204013824
1750561026288974000,0.59597412109375,0.025437500327825546,0.08676250278949738,0.09542500227689743
1750561026298578700,0.60557861328125,0.07796250283718109,0.018287500366568565,0.13708749413490295
1750561026308183600,0.61518359375,0.08662500232458115,-0.0317624993622303,0.1358499974012375
1750561026317788200,0.6247880859375,0.05719999969005585,-0.0635249987244606,0.10532499849796295
1750561026327393000,0.63439306640625,0.02186249941587448,-0.05871250107884407,0.07356250286102295
1750561026336997600,0.64399755859375,-0.007562499959021807,-0.02694999985396862,0.052662499248981476
1750561026346602500,0.6536025390625,-0.0013749999925494194,-0.00976249948143959,0.050324998795986176
1750561026356207400,0.663207275390625,0.03162499889731407,-0.02447500079870224,0.0625625029206276
1750561026365812000,0.67281201171875,0.06696250289678574,-0.059812501072883606,0.08084999769926071
1750561026375417000,0.6824169921875,0.08772499859333038,-0.06599999964237213,0.0906125009059906
1750561026385021700,0.692021728515625,0.09638749808073044,-0.020762499421834946,0.07837499678134918
1750561026394626600,0.70162646484375,0.09391249716281891,0.045237500220537186,0.01979999989271164
1750561026404231200,0.711231201171875,0.08043749630451202,0.08676250278949738,-0.05967500060796738
1750561026413836000,0.7208359375,0.06091250106692314,0.08428750187158585,-0.12196250259876251
1750561026423441000,0.73044091796875,0.04138749837875366,0.035475000739097595,-0.1414874941110611
1750561026433045800,0.740045654296875,0.025437500327825546,-0.042762499302625656,-0.12196250259876251
1750561026442650600,0.749650634765625,0.01209999993443489,-0.11481250077486038,-0.08415000140666962
1750561026452255200,0.759255126953125,0.007149999961256981,-0.12952500581741333,-0.049912501126527786
1750561026461860000,0.768860107421875,0.01691249944269657,-0.10876250267028809,-0.03891250118613243
1750561026471465000,0.77846484375,0.02419999986886978,-0.08181250095367432,-0.05238749831914902
1750561026481069600,0.788069580078125,0.02667500078678131,-0.07947500050067902,-0.08291249722242355
1750561026490674400,0.79767431640625,0.027912499383091927,-0.08676250278949738,-0.09267500042915344
1750561026500279300,0.807279296875,0.04262499883770943,-0.07823749631643295,-0.05596249923110008
1750561026509884200,0.81688427734375,0.05238749831914902,-0.07328750193119049,-0.009624999947845936
1750561026519488800,0.82648876953125,0.040150001645088196,-0.08304999768733978,-0.002199999988079071
1750561026529093600,0.83609375,0.014437500387430191,-0.08799999952316284,-0.03272499889135361
1750561026538698500,0.845698486328125,-0.007562499959021807,-0.09652499854564667,-0.07438749819993973
1750561026548303000,0.85530322265625,-0.016087500378489494,-0.10876250267028809,-0.08772499859333038
1750561026557908000,0.864907958984375,-0.002612499985843897,-0.12347500026226044,-0.05596249923110008
1750561026567512800,0.874512939453125,0.010862499475479126,-0.12347500026226044,0.0013749999925494194
1750561026577117700,0.88411767578125,0.025437500327825546,-0.0952875018119812,0.05389999970793724
1750561026586722300,0.893722412109375,0.03891250118613243,-0.045237500220537186,0.07108750194311142
1750561026596327200,0.9033271484375,0.05115000158548355,0.0012374999932944775,0.04413750022649765
1750561026605931800,0.912931884765625,0.06091250106692314,0.0170499999076128,-0.0009624999947845936
1750561026615536600,0.92253662109375,0.05843750014901161,-0.015949999913573265,-0.014437500387430191
1750561026625141500,0.9321416015625,0.03519999980926514,-0.08304999768733978,0.023375000804662704
1750561026634746400,0.941746337890625,0.01209999993443489,-0.17104999721050262,0.08813749998807907
1750561026644351200,0.951351318359375,-0.005087499972432852,-0.2125750035047531,0.1480875015258789
1750561026653956000,0.9609560546875,-0.01484999991953373,-0.18809999525547028,0.1699499934911728
1750561026663560700,0.970560791015625,-0.018562499433755875,-0.13323749601840973,0.14190000295639038
1750561026673165600,0.98016552734375,-0.012374999932944775,-0.054999999701976776,0.07466249912977219
1750561026682770400,0.9897705078125,0.005912499967962503,0.01347499992698431,-0.004674999974668026
1750561026692375300,0.999375244140625,0.02914999984204769,0.05252499878406525,-0.05967500060796738
1750561026701980000,1.00897998046875,0.04386249929666519,0.05004999786615372,-0.08415000140666962
1750561026711584800,1.018584716796875,0.05967500060796738,-0.00494999997317791,-0.09019999951124191
1750561026721189400,1.028189453125,0.07067500054836273,-0.07699999958276749,-0.09391249716281891
1750561026730794200,1.037794189453125,0.05967500060796738,-0.11976250261068344,-0.11096250265836716
1750561026740398800,1.04739892578125,0.03891250118613243,-0.11357499659061432,-0.13901250064373016
1750561026750003700,1.057003662109375,0.015675000846385956,-0.0635249987244606,-0.17201249301433563
1750561026759608800,1.06660888671875,0.008387500420212746,0.01347499992698431,-0.18548749387264252
1750561026769213400,1.07621337890625,0.01209999993443489,0.07699999958276749,-0.16843749582767487
1750561026778818300,1.085818359375,0.0193875003606081,0.09157499670982361,-0.1317249983549118
1750561026788423200,1.095423095703125,0.022962499409914017,0.0635249987244606,-0.09391249716281891
1750561026798027800,1.10502783203125,0.01209999993443489,0.018287500366568565,-0.06338749825954437
1750561026807632600,1.114632568359375,-0.008799999952316284,-0.030524998903274536,-0.04496249929070473
1750561026817237500,1.124237548828125,-0.025849999859929085,-0.08304999768733978,-0.030387500301003456
1750561026826842400,1.13384228515625,-0.033137500286102295,-0.12347500026226044,-0.020624998956918716
1750561026836447000,1.143447021484375,-0.030662499368190765,-0.12457499653100967,-0.015675000846385956
1750561026846051800,1.1530517578125,-0.02213750034570694,-0.09652499854564667,-0.011962499469518661
1750561026855656400,1.162656494140625,-0.007562499959021807,-0.057475000619888306,-0.007149999961256981
1750561026865261300,1.17226123046875,0.010862499475479126,-0.010999999940395355,-0.008387500420212746
1750561026874866200,1.1818662109375,0.030387500301003456,0.03657500073313713,-0.022962499409914017
1750561026884471000,1.191470947265625,0.05115000158548355,0.06833750009536743,-0.04372499883174896
1750561026894076000,1.201075927734375,0.06572499871253967,0.07204999774694443,-0.06338749825954437
1750561026903680800,1.2106806640625,0.05719999969005585,0.05623750016093254,-0.06943749636411667
1750561026913285400,1.220285400390625,0.03396249935030937,0.03423750028014183,-0.0644875019788742
1750561026922890000,1.229889892578125,0.014437500387430191,-0.006187499966472387,-0.04867500066757202
1750561026932494800,1.239494873046875,0.014437500387430191,-0.05252499878406525,-0.030387500301003456
1750561026942099700,1.249099609375,0.02186249941587448,-0.05128749832510948,-0.03396249935030937
1750561026951704600,1.25870458984375,0.027912499383091927,-0.007287499960511923,-0.05719999969005585
1750561026961309200,1.26830908203125,0.032862499356269836,0.037812501192092896,-0.08538749814033508
1750561026970914000,1.2779140625,0.0364375002682209,0.05376249924302101,-0.09872499853372574
1750561026980519000,1.287518798828125,0.025437500327825546,0.042762499302625656,-0.08415000140666962
1750561026990123800,1.297123779296875,0.008387500420212746,0.010999999940395355,-0.05362499877810478
1750561026999728400,1.306728271484375,-0.002612499985843897,-0.025712499395012856,-0.015675000846385956
1750561027009333200,1.316333251953125,-0.00013749999925494194,-0.05376249924302101,0.016087500378489494
1750561027018938000,1.325938232421875,0.01691249944269657,-0.0635249987244606,0.03684999793767929
1750561027028542700,1.335542724609375,0.030387500301003456,-0.047712501138448715,0.04908749833703041
1750561027038147800,1.34514794921875,0.030387500301003456,-0.01952499896287918,0.04179999977350235
1750561027047752400,1.35475244140625,0.018149999901652336,-0.00494999997317791,0.02461249940097332
1750561027057357300,1.364357421875,0.0010999999940395355,0.002474999986588955,0.008799999952316284
1750561027066962000,1.3739619140625,-0.011137500405311584,0.00976249948143959,-0.007149999961256981
1750561027076566800,1.38356689453125,-0.013612499460577965,0.0317624993622303,-0.015675000846385956
1750561027086172000,1.393171875,-0.006324999965727329,0.05857500061392784,-0.02914999984204769
1750561027095776500,1.402776611328125,0.009624999947845936,0.07823749631643295,-0.04619999974966049
1750561027105381000,1.412381103515625,0.027912499383091927,0.07204999774694443,-0.06091250106692314
1750561027114986000,1.421986083984375,0.03162499889731407,0.03904999792575836,-0.06091250106692314
1750561027124590800,1.4315908203125,0.018149999901652336,-0.01347499992698431,-0.04743750020861626
1750561027134195700,1.44119580078125,-0.008799999952316284,-0.0635249987244606,-0.022962499409914017
1750561027143800300,1.45080029296875,-0.01966249942779541,-0.09047500044107437,0.010037500411272049
1750561027153405200,1.4604052734375,-0.02213750034570694,-0.07699999958276749,0.04179999977350235
1750561027163010000,1.470010009765625,-0.01966249942779541,-0.04647500067949295,0.05637500062584877
1750561027172615000,1.479614990234375,-0.013612499460577965,-0.028049999848008156,0.047849997878074646
1750561027182219500,1.489219482421875,0.002199999988079071,-0.002474999986588955,0.012374999932944775
1750561027191824400,1.498824462890625,0.014437500387430191,0.037812501192092896,-0.04138749837875366
1750561027201429000,1.508428955078125,0.0193875003606081,0.08676250278949738,-0.09515000134706497
1750561027211033900,1.518033935546875,0.013199999928474426,0.10381250083446503,-0.1256749927997589
1750561027220638700,1.527638671875,-0.00013749999925494194,0.08304999768733978,-0.11948750168085098
1750561027230243300,1.537243408203125,-0.016087500378489494,0.02928750030696392,-0.07919999957084656
1750561027239848400,1.546848388671875,-0.028324998915195465,-0.042762499302625656,-0.020624998956918716
1750561027249453000,1.556453125,-0.030662499368190765,-0.0952875018119812,0.03684999793767929
1750561027259058000,1.566057861328125,-0.023375000804662704,-0.09776250272989273,0.06984999775886536
1750561027268662500,1.57566259765625,-0.011137500405311584,-0.07204999774694443,0.06613750010728836
1750561027278267400,1.585267333984375,-0.006324999965727329,-0.03671250119805336,0.03684999793767929
1750561027287872300,1.594872314453125,-0.012374999932944775,0.0037124999798834324,-0.007149999961256981
1750561027297476900,1.604476806640625,-0.02956249937415123,0.03423750028014183,-0.04867500066757202
1750561027307082000,1.61408203125,-0.040562499314546585,0.04028749838471413,-0.0719124972820282
1750561027316686600,1.6236865234375,-0.040562499314546585,0.03904999792575836,-0.0644875019788742
1750561027326291500,1.63329150390625,-0.03684999793767929,0.03904999792575836,-0.04496249929070473
1750561027335896000,1.64289599609375,-0.02708750031888485,0.02681249938905239,-0.025437500327825546
1750561027345501000,1.6525009765625,-0.012374999932944775,0.014574999921023846,-0.014437500387430191
1750561027355105500,1.66210546875,-0.00989999994635582,0.01347499992698431,-0.01691249944269657
1750561027364710400,1.67171044921875,-0.016087500378489494,0.010999999940395355,-0.022962499409914017
1750561027374315500,1.6813154296875,-0.01966249942779541,-0.0037124999798834324,-0.0193875003606081
1750561027383920000,1.690920166015625,-0.02213750034570694,-0.015949999913573265,-0.0009624999947845936
1750561027393525000,1.70052490234375,-0.030662499368190765,-0.020762499421834946,0.008799999952316284
1750561027403129600,1.710129638671875,-0.03189999982714653,-0.015949999913573265,0.0038499999791383743
1750561027412734500,1.719734375,-0.013612499460577965,0.01952499896287918,-0.005912499967962503
1750561027422339300,1.72933935546875,0.009624999947845936,0.059812501072883606,-0.02419999986886978
1750561027431944000,1.73894384765625,0.020624998956918716,0.0952875018119812,-0.049912501126527786
1750561027441548800,1.748548828125,0.015675000846385956,0.11357499659061432,-0.07438749819993973
1750561027451153700,1.758153564453125,-0.002612499985843897,0.10876250267028809,-0.08648750185966492
1750561027460758500,1.767758544921875,-0.01732499897480011,0.06833750009536743,-0.0681999996304512
1750561027470363100,1.777363037109375,-0.02213750034570694,-0.007287499960511923,-0.02667500078678131
1750561027479968300,1.78696826171875,-0.01484999991953373,-0.07823749631643295,0.028324998915195465
1750561027489572900,1.79657275390625,-0.00013749999925494194,-0.10381250083446503,0.07713750004768372
1750561027499177700,1.806177734375,0.013199999928474426,-0.08304999768733978,0.08566249907016754
1750561027508782600,1.815782470703125,0.020624998956918716,-0.02199999988079071,0.03684999793767929
1750561027518387200,1.82538720703125,0.022962499409914017,0.04028749838471413,-0.04496249929070473
1750561027527992000,1.834991943359375,0.01691249944269657,0.07452499866485596,-0.11591249704360962
1750561027537597000,1.844596923828125,0.009624999947845936,0.06599999964237213,-0.14396250247955322
1750561027547201500,1.854201416015625,0.01209999993443489,0.02928750030696392,-0.11467500030994415
1750561027556806400,1.863806396484375,0.020624998956918716,-0.01718750037252903,-0.04619999974966049
1750561027566411300,1.873411376953125,0.02914999984204769,-0.04028749838471413,0.020899999886751175
1750561027576016100,1.88301611328125,0.027912499383091927,-0.02928750030696392,0.04661250114440918
1750561027585620700,1.892620849609375,0.015675000846385956,-0.006187499966472387,0.035612501204013824
1750561027595225600,1.9022255859375,-0.00013749999925494194,0.01223750039935112,0.011137500405311584
1750561027604830200,1.911830322265625,-0.016087500378489494,0.014574999921023846,-0.0034374999813735485
1750561027614435000,1.92143505859375,-0.023375000804662704,0.014574999921023846,0.006324999965727329
1750561027624040000,1.9310400390625,-0.020899999886751175,0.030524998903274536,0.020899999886751175
1750561027633644800,1.940644775390625,-0.007562499959021807,0.03904999792575836,0.020899999886751175
1750561027643249700,1.950249755859375,0.008387500420212746,0.032999999821186066,0.007562499959021807
1750561027652854300,1.959854248046875,0.020624998956918716,0.020762499421834946,-0.018149999901652336
1750561027662459100,1.969459228515625,0.018149999901652336,0.010999999940395355,-0.03891250118613243
1750561027672064000,1.97906396484375,0.007149999961256981,0.00976249948143959,-0.04496249929070473
1750561027681668600,1.988668701171875,-0.0013749999925494194,0.010999999940395355,-0.02667500078678131
1750561027691273700,1.998273681640625,0.007149999961256981,0.0012374999932944775,0.011137500405311584
1750561027700878300,2.00787841796875,0.02186249941587448,-0.0012374999932944775,0.05389999970793724
1750561027710483200,2.017483154296875,0.03162499889731407,0.007287499960511923,0.07837499678134918
1750561027720087800,2.027087890625,0.03519999980926514,0.018287500366568565,0.07466249912977219
1750561027729692700,2.036692626953125,0.03519999980926514,0.025575000792741776,0.042899999767541885
1750561027739297500,2.046297607421875,0.02667500078678131,0.018287500366568565,-0.005912499967962503
1750561027748902400,2.05590234375,0.005912499967962503,-0.002474999986588955,-0.04743750020861626
1750561027758507300,2.06550732421875,-0.01484999991953373,-0.030524998903274536,-0.07438749819993973
1750561027768111900,2.07511181640625,-0.02461249940097332,-0.02928750030696392,-0.06943749636411667
1750561027777716700,2.084716796875,-0.016087500378489494,0.002474999986588955,-0.03891250118613243
1750561027787321300,2.0943212890625,-0.00013749999925494194,0.032999999821186066,-0.015675000846385956
1750561027796926200,2.10392626953125,0.022962499409914017,0.04399999976158142,-0.009624999947845936
1750561027806530800,2.11353076171875,0.04138749837875366,0.045237500220537186,-0.014437500387430191
1750561027816136000,2.123135986328125,0.03891250118613243,0.04028749838471413,-0.021724998950958252
1750561027825740800,2.13274072265625,0.027912499383091927,0.02928750030696392,-0.022962499409914017
1750561027835345400,2.142345458984375,0.014437500387430191,0.006049999967217445,-0.02667500078678131
1750561027844950300,2.1519501953125,-0.002612499985843897,-0.01718750037252903,-0.03891250118613243
1750561027854555100,2.16155517578125,-0.02708750031888485,-0.025712499395012856,-0.05719999969005585
1750561027864159700,2.17115966796875,-0.03932499885559082,-0.023237500339746475,-0.06943749636411667
1750561027873764600,2.1807646484375,-0.035612501204013824,-0.010999999940395355,-0.07438749819993973
1750561027883369500,2.190369384765625,-0.020899999886751175,0.01223750039935112,-0.062150001525878906
1750561027892974300,2.199974365234375,0.0010999999940395355,0.030524998903274536,-0.0364375002682209
1750561027902579200,2.2095791015625,0.01691249944269657,0.04028749838471413,-0.011962499469518661
1750561027912183800,2.219183837890625,0.018149999901652336,0.025575000792741776,0.002612499985843897
1750561027921788400,2.228788330078125,0.005912499967962503,-0.0085249999538064,0.0013749999925494194
1750561027931393300,2.238393310546875,-0.01484999991953373,-0.03423750028014183,-0.008387500420212746
1750561027940998100,2.247998046875,-0.02708750031888485,-0.04895000159740448,-0.009624999947845936
1750561027950603000,2.25760302734375,-0.030662499368190765,-0.03671250119805336,-0.002199999988079071
1750561027960208000,2.267207763671875,-0.028324998915195465,0.006049999967217445,0.00013749999925494194
1750561027969812700,2.276812744140625,-0.012374999932944775,0.03657500073313713,-0.010862499475479126
1750561027979417300,2.286417236328125,0.007149999961256981,0.04028749838471413,-0.027912499383091927
1750561027989022200,2.296022216796875,0.01691249944269657,0.03657500073313713,-0.04496249929070473
1750561027998626800,2.305626708984375,0.01209999993443489,0.03904999792575836,-0.05967500060796738
1750561028008231700,2.315231689453125,0.007149999961256981,0.035475000739097595,-0.05719999969005585
1750561028017836500,2.32483642578125,0.002199999988079071,0.01347499992698431,-0.03162499889731407
1750561028027441200,2.334441162109375,0.0034374999813735485,-0.020762499421834946,0.005087499972432852
1750561028037046000,2.3440458984375,0.005912499967962503,-0.047712501138448715,0.038087498396635056
1750561028046651000,2.35365087890625,0.008387500420212746,-0.045237500220537186,0.045375000685453415
1750561028056255500,2.36325537109375,0.010862499475479126,-0.0085249999538064,0.030799999833106995
1750561028065860400,2.3728603515625,0.013199999928474426,0.037812501192092896,0.00013749999925494194
1750561028075465200,2.38246533203125,0.01691249944269657,0.0635249987244606,-0.030387500301003456
1750561028085070000,2.392070068359375,0.027912499383091927,0.06476250290870667,-0.04372499883174896
1750561028094675000,2.401675048828125,0.032862499356269836,0.042762499302625656,-0.037675000727176666
1750561028104279800,2.41127978515625,0.02419999986886978,0.00976249948143959,-0.014437500387430191
1750561028113884400,2.420884521484375,0.013199999928474426,-0.028049999848008156,0.010037500411272049
1750561028123489300,2.4304892578125,0.008387500420212746,-0.05252499878406525,0.030799999833106995
1750561028133094000,2.440093994140625,0.005912499967962503,-0.054999999701976776,0.038087498396635056
1750561028142699000,2.449698974609375,0.008387500420212746,-0.03423750028014183,0.02956249937415123
1750561028152303600,2.4593037109375,0.015675000846385956,-0.0037124999798834324,0.008799999952316284
1750561028161908500,2.468908447265625,0.027912499383091927,0.02928750030696392,-0.014437500387430191
1750561028171513000,2.47851318359375,0.032862499356269836,0.04028749838471413,-0.03891250118613243
1750561028181118000,2.488117919921875,0.02667500078678131,0.030524998903274536,-0.05596249923110008
1750561028190722800,2.497722900390625,0.013199999928474426,0.0170499999076128,-0.06091250106692314
1750561028200327400,2.507327392578125,-0.005087499972432852,0.0037124999798834324,-0.05362499877810478
1750561028209932300,2.516932373046875,-0.02461249940097332,-0.00494999997317791,-0.040150001645088196
1750561028219537200,2.526537109375,-0.030662499368190765,-0.002474999986588955,-0.03396249935030937
1750561028229142000,2.53614208984375,-0.023375000804662704,-0.002474999986588955,-0.037675000727176666
1750561028238747000,2.545746826171875,-0.012374999932944775,-0.00976249948143959,-0.05115000158548355
1750561028248351500,2.5553515625,-0.002612499985843897,-0.01223750039935112,-0.062150001525878906
1750561028257956400,2.564956298828125,-0.0013749999925494194,0.004812499973922968,-0.06338749825954437
1750561028267561000,2.57456103515625,-0.011137500405311584,0.02681249938905239,-0.06091250106692314
1750561028277165800,2.584165771484375,-0.01732499897480011,0.023237500339746475,-0.05115000158548355
1750561028286770700,2.593770751953125,-0.01484999991953373,-0.0037124999798834324,-0.0364375002682209
1750561028296375600,2.60337548828125,-0.002612499985843897,-0.032999999821186066,-0.020624998956918716
1750561028305980200,2.612980224609375,0.014437500387430191,-0.04895000159740448,-0.007149999961256981
1750561028315585000,2.6225849609375,0.02914999984204769,-0.03671250119805336,0.0013749999925494194
1750561028325190000,2.63218994140625,0.03891250118613243,-0.01223750039935112,0.00013749999925494194
1750561028334794500,2.64179443359375,0.04262499883770943,0.0085249999538064,-0.011962499469518661
1750561028344399600,2.651399658203125,0.03396249935030937,0.02928750030696392,-0.03519999980926514
1750561028354004500,2.66100439453125,0.010862499475479126,0.035475000739097595,-0.07067500054836273
1750561028363609000,2.670609130859375,-0.006324999965727329,0.032999999821186066,-0.1036750003695488
1750561028373214000,2.6802138671875,-0.012374999932944775,0.015812499448657036,-0.12443749606609344
1750561028382818600,2.689818603515625,0.007149999961256981,-0.00494999997317791,-0.13420000672340393
1750561028392423400,2.69942333984375,0.04138749837875366,-0.020762499421834946,-0.12196250259876251
1750561028402028000,2.709028076171875,0.06943749636411667,-0.04152499884366989,-0.08415000140666962
1750561028411633000,2.7186328125,0.07919999957084656,-0.05376249924302101,-0.03162499889731407
1750561028421237800,2.72823779296875,0.06572499871253967,-0.05128749832510948,0.01979999989271164
1750561028430842600,2.737842529296875,0.040150001645088196,-0.03423750028014183,0.055137500166893005
1750561028440447500,2.747447509765625,0.013199999928474426,-0.0037124999798834324,0.05637500062584877
1750561028450052000,2.757052001953125,-0.0038499999791383743,0.02447500079870224,0.02708750031888485
1750561028459657000,2.766656982421875,-0.007562499959021807,0.04152499884366989,-0.01691249944269657
1750561028469261600,2.776261474609375,-0.005087499972432852,0.037812501192092896,-0.05472499877214432
1750561028478866400,2.785866455078125,-0.00013749999925494194,0.02928750030696392,-0.06091250106692314
1750561028488471600,2.795471435546875,-0.00013749999925494194,0.0170499999076128,-0.040150001645088196
1750561028498076400,2.805076416015625,0.0010999999940395355,0.0037124999798834324,-0.002199999988079071
1750561028507681000,2.814680908203125,0.0034374999813735485,-0.007287499960511923,0.04661250114440918
1750561028517285600,2.82428564453125,-0.002612499985843897,-0.01952499896287918,0.08332499861717224
1750561028526890500,2.833890380859375,-0.02213750034570694,-0.023237500339746475,0.08689999580383301
1750561028536495000,2.8434951171875,-0.038087498396635056,-0.02928750030696392,0.05389999970793724
1750561028546100000,2.853099853515625,-0.04908749833703041,-0.01952499896287918,0.007562499959021807
1750561028555705000,2.862705078125,-0.04908749833703041,0.002474999986588955,-0.03272499889135361
1750561028565309700,2.872309814453125,-0.02956249937415123,0.018287500366568565,-0.05843750014901161
1750561028574914600,2.88191455078125,-0.005087499972432852,0.02928750030696392,-0.06091250106692314
1750561028584519400,2.89151953125,0.013199999928474426,0.03657500073313713,-0.04619999974966049
1750561028594124000,2.9011240234375,0.01691249944269657,0.04028749838471413,-0.013199999928474426
1750561028603729000,2.91072900390625,0.010862499475479126,0.032999999821186066,0.023375000804662704
1750561028613333800,2.920333740234375,0.004674999974668026,0.00976249948143959,0.052662499248981476
1750561028622938600,2.929938720703125,0.005912499967962503,-0.0147124994546175,0.06861250102519989
1750561028632543500,2.93954345703125,0.008387500420212746,-0.02199999988079071,0.06132499873638153
1750561028642148000,2.949148193359375,0.005912499967962503,-0.0085249999538064,0.025849999859929085
1750561028651752700,2.958752685546875,0.0034374999813735485,0.014574999921023846,-0.02419999986886978
1750561028661357800,2.96835791015625,-0.00013749999925494194,0.04399999976158142,-0.07067500054836273
1750561028670962400,2.97796240234375,0.005912499967962503,0.05252499878406525,-0.08648750185966492
1750561028680567300,2.9875673828125,0.020624998956918716,0.04399999976158142,-0.06091250106692314
1750561028690172200,2.997172119140625,0.03396249935030937,0.025575000792741776,-0.008387500420212746
1750561028699776800,3.00677685546875,0.0364375002682209,-0.002474999986588955,0.045375000685453415
1750561028709381600,3.016381591796875,0.02419999986886978,-0.025712499395012856,0.08084999769926071
1750561028718986500,3.025986572265625,0.008387500420212746,-0.03671250119805336,0.07713750004768372
1750561028728591400,3.03559130859375,-0.0038499999791383743,-0.037950001657009125,0.040562499314546585
1750561028738196200,3.0451962890625,-0.006324999965727329,-0.028049999848008156,-0.0034374999813735485
1750561028747800800,3.05480078125,-0.0038499999791383743,-0.00976249948143959,-0.04496249929070473
1750561028757405700,3.06440576171875,-0.002612499985843897,0.0012374999932944775,-0.07438749819993973
1750561028767010300,3.07401025390625,-0.006324999965727329,0.0085249999538064,-0.07548750191926956
1750561028776615200,3.083615234375,-0.007562499959021807,0.0012374999932944775,-0.05238749831914902
1750561028786220000,3.093219970703125,0.0010999999940395355,-0.0085249999538064,-0.01691249944269657
1750561028795825000,3.102824951171875,0.013199999928474426,-0.0085249999538064,0.005087499972432852
1750561028805429800,3.1124296875,0.0193875003606081,0.002474999986588955,0.0038499999791383743
1750561028815034400,3.122034423828125,0.015675000846385956,0.004812499973922968,-0.02419999986886978
1750561028824639200,3.13163916015625,0.007149999961256981,-0.002474999986588955,-0.06091250106692314
1750561028834244000,3.141244140625,-0.005087499972432852,-0.007287499960511923,-0.08415000140666962
1750561028843848700,3.1508486328125,-0.01966249942779541,-0.015949999913573265,-0.08167500048875809
1750561028853453300,3.160453369140625,-0.02461249940097332,-0.037950001657009125,-0.05238749831914902
1750561028863058400,3.170058349609375,-0.00989999994635582,-0.04647500067949295,-0.015675000846385956
1750561028872663300,3.179663330078125,0.010862499475479126,-0.020762499421834946,-0.002199999988079071
1750561028882268000,3.189267822265625,0.02419999986886978,0.014574999921023846,-0.018149999901652336
1750561028891872800,3.198872802734375,0.027912499383091927,0.04152499884366989,-0.05362499877810478
1750561028901477400,3.208477294921875,0.01209999993443489,0.057337500154972076,-0.09515000134706497
1750561028911082200,3.218082275390625,-0.01732499897480011,0.045237500220537186,-0.12815000116825104
1750561028920687000,3.22768701171875,-0.030662499368190765,-0.002474999986588955,-0.13667500019073486
1750561028930292000,3.2372919921875,-0.03932499885559082,-0.06847500056028366,-0.10491249710321426
1750561028939896800,3.246896728515625,-0.035612501204013824,-0.10999999940395355,-0.04743750020861626
1750561028949501700,3.256501708984375,-0.020899999886751175,-0.08676250278949738,-0.004674999974668026
1750561028959106300,3.266106201171875,0.0010999999940395355,-0.01718750037252903,-0.004674999974668026
1750561028968711200,3.275711181640625,0.018149999901652336,0.05128749832510948,-0.040150001645088196
1750561028978315800,3.285315673828125,0.018149999901652336,0.09404999762773514,-0.08648750185966492
1750561028987920600,3.294920654296875,0.008387500420212746,0.10628750175237656,-0.1036750003695488
1750561028997525500,3.304525390625,-0.006324999965727329,0.07699999958276749,-0.09019999951124191
1750561029007130000,3.314130126953125,-0.016087500378489494,0.04152499884366989,-0.05115000158548355
1750561029016735000,3.32373486328125,-0.016087500378489494,0.00976249948143959,-0.005912499967962503
1750561029026339800,3.33333984375,-0.008799999952316284,-0.0147124994546175,0.028324998915195465
1750561029035944700,3.34294482421875,-0.0013749999925494194,-0.02447500079870224,0.03932499885559082
1750561029045549300,3.35254931640625,0.004674999974668026,-0.02447500079870224,0.03189999982714653
1750561029055154200,3.362154296875,0.002199999988079071,-0.02199999988079071,0.01979999989271164
1750561029064759000,3.371759033203125,-0.002612499985843897,-0.01952499896287918,0.010037500411272049
1750561029074364000,3.381364013671875,-0.005087499972432852,-0.002474999986588955,0.0038499999791383743
1750561029083968800,3.39096875,-0.007562499959021807,0.032999999821186066,-0.005912499967962503
1750561029093573400,3.400573486328125,-0.0038499999791383743,0.07081250101327896,-0.03272499889135361
1750561029103178000,3.410177978515625,0.01209999993443489,0.07699999958276749,-0.05719999969005585
1750561029112783000,3.419783203125,0.0193875003606081,0.04152499884366989,-0.06572499871253967
1750561029122388000,3.429387939453125,0.014437500387430191,-0.010999999940395355,-0.05238749831914902
1750561029131992600,3.43899267578125,0.009624999947845936,-0.05623750016093254,-0.014437500387430191
1750561029141597400,3.448597412109375,0.005912499967962503,-0.07576250284910202,0.035612501204013824
1750561029151202300,3.458202392578125,0.005912499967962503,-0.05252499878406525,0.07713750004768372
1750561029160807000,3.467806884765625,0.014437500387430191,-0.0037124999798834324,0.08937499672174454
1750561029170411800,3.477411865234375,0.02186249941587448,0.05623750016093254,0.06613750010728836
1750561029180016400,3.487016357421875,0.030387500301003456,0.10257499665021896,0.01732499897480011
1750561029189621500,3.49662158203125,0.0364375002682209,0.11357499659061432,-0.03396249935030937
1750561029199226000,3.50622607421875,0.030387500301003456,0.09281250089406967,-0.06943749636411667
1750561029208831000,3.5158310546875,0.014437500387430191,0.037812501192092896,-0.08648750185966492
1750561029218435600,3.525435546875,-0.002612499985843897,-0.02199999988079071,-0.0681999996304512
1750561029228040400,3.53504052734375,-0.005087499972432852,-0.06228749826550484,-0.01691249944269657
1750561029237645300,3.544645263671875,0.002199999988079071,-0.07328750193119049,0.038087498396635056
1750561029247250000,3.55425,0.013199999928474426,-0.05004999786615372,0.06132499873638153
1750561029256854800,3.563854736328125,0.022962499409914017,-0.00494999997317791,0.040562499314546585
1750561029266459600,3.573459716796875,0.02667500078678131,0.04647500067949295,-0.004674999974668026
1750561029276064300,3.583064208984375,0.022962499409914017,0.08057499676942825,-0.05238749831914902
1750561029285669000,3.592669189453125,0.010862499475479126,0.08552499860525131,-0.08291249722242355
1750561029295274000,3.60227392578125,-0.00013749999925494194,0.06104999780654907,-0.08167500048875809
1750561029304878800,3.61187890625,-0.012374999932944775,0.00976249948143959,-0.05472499877214432
1750561029314483700,3.621483642578125,-0.011137500405311584,-0.045237500220537186,-0.007149999961256981
1750561029324088300,3.63108837890625,-0.002612499985843897,-0.07576250284910202,0.03189999982714653
1750561029333693200,3.640693115234375,0.0010999999940395355,-0.06599999964237213,0.03932499885559082
1750561029343297800,3.6502978515625,-0.002612499985843897,-0.0317624993622303,0.01732499897480011
1750561029352903000,3.65990283203125,-0.006324999965727329,0.01347499992698431,-0.025437500327825546
1750561029362507500,3.669507568359375,-0.006324999965727329,0.04399999976158142,-0.07438749819993973
1750561029372112400,3.6791123046875,-0.005087499972432852,0.04647500067949295,-0.1097249984741211
1750561029381717000,3.688717041015625,-0.005087499972432852,0.030524998903274536,-0.11343749612569809
1750561029391321900,3.69832177734375,-0.005087499972432852,0.01223750039935112,-0.08648750185966492
1750561029400926700,3.7079267578125,0.004674999974668026,-0.007287499960511923,-0.03891250118613243
1750561029410531300,3.71753125,0.01691249944269657,-0.02199999988079071,0.012374999932944775
1750561029420136400,3.727136474609375,0.025437500327825546,-0.02199999988079071,0.04179999977350235
1750561029429741000,3.736740966796875,0.022962499409914017,-0.0147124994546175,0.03932499885559082
1750561029439346000,3.746345947265625,0.010862499475479126,-0.0085249999538064,0.012374999932944775
1750561029448950500,3.755950439453125,-0.002612499985843897,-0.0147124994546175,-0.008387500420212746
1750561029458555400,3.765555419921875,-0.012374999932944775,-0.02694999985396862,-0.009624999947845936
1750561029468160000,3.775159912109375,-0.01732499897480011,-0.028049999848008156,0.002612499985843897
1750561029477765000,3.78476513671875,-0.01484999991953373,-0.028049999848008156,0.013612499460577965
1750561029487369700,3.79436962890625,-0.0038499999791383743,-0.0317624993622303,0.016087500378489494
1750561029496974600,3.803974609375,0.009624999947845936,-0.02928750030696392,0.0013749999925494194
1750561029506579500,3.813579345703125,0.01209999993443489,-0.023237500339746475,-0.025437500327825546
1750561029516184000,3.82318408203125,0.004674999974668026,-0.0085249999538064,-0.04496249929070473
1750561029525789000,3.832788818359375,0.0034374999813735485,0.00976249948143959,-0.04619999974966049
1750561029535393500,3.8423935546875,0.009624999947845936,0.0170499999076128,-0.020624998956918716
1750561029544998400,3.851998291015625,0.004674999974668026,0.03904999792575836,0.008799999952316284
1750561029554603500,3.861603515625,0.005912499967962503,0.07328750193119049,0.011137500405311584
1750561029564208400,3.87120849609375,0.01209999993443489,0.1013374999165535,-0.007149999961256981
1750561029573813000,3.88081298828125,-0.002612499985843897,0.11110000312328339,-0.04138749837875366
1750561029583417900,3.89041796875,-0.02708750031888485,0.09652499854564667,-0.06943749636411667
1750561029593022500,3.9000224609375,-0.047849997878074646,0.054999999701976776,-0.07067500054836273
1750561029602627300,3.90962744140625,-0.06132499873638153,0.028049999848008156,-0.05238749831914902
1750561029612232400,3.919232421875,-0.05637500062584877,0.030524998903274536,-0.025437500327825546
1750561029621836800,3.9288369140625,-0.03189999982714653,0.05252499878406525,-0.014437500387430191
1750561029631441700,3.938441650390625,0.002199999988079071,0.08304999768733978,-0.020624998956918716
1750561029641046500,3.948046630859375,0.032862499356269836,0.09033749997615814,-0.0364375002682209
1750561029650651100,3.957651123046875,0.04138749837875366,0.07328750193119049,-0.049912501126527786
1750561029660256000,3.967256103515625,0.03162499889731407,0.047575000673532486,-0.05472499877214432
1750561029669860900,3.97686083984375,0.008387500420212746,0.00976249948143959,-0.04262499883770943
1750561029679465700,3.9864658203125,-0.008799999952316284,-0.01718750037252903,-0.008387500420212746
1750561029689070600,3.996070556640625,-0.012374999932944775,-0.01718750037252903,0.01484999991953373
1750561029698675200,4.00567529296875,0.002199999988079071,0.002474999986588955,0.008799999952316284
1750561029708280000,4.015280029296875,0.02186249941587448,0.0170499999076128,-0.010862499475479126
1750561029717885000,4.024885009765625,0.032862499356269836,0.01347499992698431,-0.018149999901652336
1750561029727489500,4.034489501953125,0.037675000727176666,0,-0.0034374999813735485
1750561029737094400,4.044094482421875,0.04138749837875366,-0.01347499992698431,0.01484999991953373
1750561029746699300,4.05369921875,0.04619999974966049,-0.018287500366568565,0.016087500378489494
1750561029756304100,4.06330419921875,0.04138749837875366,-0.01347499992698431,-0.004674999974668026
1750561029765908700,4.07290869140625,0.025437500327825546,-0.006187499966472387,-0.037675000727176666
1750561029775513600,4.082513671875,0.007149999961256981,-0.00494999997317791,-0.0644875019788742
1750561029785118200,4.0921181640625,-0.002612499985843897,-0.015949999913573265,-0.0681999996304512
1750561029794723000,4.10172314453125,-0.005087499972432852,-0.04152499884366989,-0.04867500066757202
1750561029804328000,4.111327880859375,-0.006324999965727329,-0.04028749838471413,-0.013199999928474426
1750561029813932800,4.120932861328125,-0.006324999965727329,0.0012374999932944775,0.002612499985843897
1750561029823537700,4.13053759765625,-0.01732499897480011,0.059812501072883606,-0.014437500387430191
1750561029833142300,4.140142333984375,-0.028324998915195465,0.1050499975681305,-0.06338749825954437
1750561029842747100,4.1497470703125,-0.028324998915195465,0.12209999561309814,-0.11467500030994415
1750561029852351700,4.159351806640625,-0.01966249942779541,0.10628750175237656,-0.1354375034570694
1750561029861956600,4.16895654296875,-0.012374999932944775,0.05623750016093254,-0.11591249704360962
1750561029871561500,4.1785615234375,-0.008799999952316284,0.002474999986588955,-0.07919999957084656
1750561029881166300,4.188166259765625,-0.002612499985843897,-0.01952499896287918,-0.06696250289678574
1750561029890771200,4.197771240234375,0.007149999961256981,-0.028049999848008156,-0.08896250277757645
1750561029900376000,4.2073759765625,0.0010999999940395355,-0.02199999988079071,-0.1256749927997589
1750561029909980700,4.216980712890625,-0.01484999991953373,-0.0012374999932944775,-0.14767499268054962
1750561029919585300,4.226585205078125,-0.02708750031888485,0.025575000792741776,-0.16101250052452087
1750561029929190100,4.236190185546875,-0.018562499433755875,0.020762499421834946,-0.18177500367164612
1750561029938795300,4.245795166015625,0.002199999988079071,0.01223750039935112,-0.20019999146461487
1750561029948399900,4.25539990234375,0.02419999986886978,0.002474999986588955,-0.20748749375343323
1750561029958004700,4.265004638671875,0.05362499877810478,-0.023237500339746475,-0.19167499244213104
1750561029967609300,4.274609375,0.08291249722242355,-0.059812501072883606,-0.14272500574588776
1750561029977214200,4.284214111328125,0.11467500030994415,-0.14176249504089355,-0.0681999996304512
1750561029986818800,4.29381884765625,0.15125000476837158,-0.2358125001192093,0.011137500405311584
1750561029996423700,4.303423583984375,0.16843749582767487,-0.32862499356269836,0.055137500166893005
1750561030006028500,4.313028564453125,0.18191249668598175,-0.40191251039505005,0.0625625029206276
1750561030015633400,4.32263330078125,0.195250004529953,-0.43133750557899475,0.02708750031888485
1750561030025238300,4.33223828125,0.19043749570846558,-0.38609999418258667,-0.004674999974668026
1750561030034843100,4.341843017578125,0.19167499244213104,-0.27252501249313354,0.020899999886751175
1750561030044447700,4.35144775390625,0.20624999701976776,-0.2297624945640564,0.14190000295639038
1750561030054052600,4.361052490234375,0.2527250051498413,-0.22728750109672546,0.408237487077713
1750561030063657500,4.370657470703125,0.2747249901294708,-0.27486249804496765,0.7968124747276306
1750561030073262000,4.380261962890625,0.23567499220371246,-0.2932874858379364,1.29277503490448
1750561030082867200,4.3898671875,0.12319999933242798,-0.2700499892234802,1.813212513923645
1750561030092471800,4.399471923828125,-0.10037499666213989,-0.2297624945640564,2.2481250762939453
1750561030102076400,4.409076416015625,-0.5132874846458435,-0.1527625024318695,2.584174871444702
1750561030111681300,4.418681396484375,-1.0092500448226929,-0.01347499992698431,2.8357999324798584
1750561030121286100,4.4282861328125,-1.3330625295639038,0.10752499848604202,2.9628500938415527
1750561030130890800,4.437890869140625,-1.3965874910354614,0.0952875018119812,2.9786624908447266
1750561030140495600,4.44749560546875,-1.2780624628067017,0.035475000739097595,2.946899890899658
1750561030150100500,4.4571005859375,-1.143725037574768,-0.010999999940395355,2.87003755569458
1750561030159705300,4.466705322265625,-1.119249939918518,-0.02694999985396862,2.7637500762939453
1750561030169310000,4.47631005859375,-1.297587513923645,0.01952499896287918,2.670799970626831
1750561030178914800,4.485914794921875,-1.6201624870300293,0.12099999934434891,2.5511748790740967
1750561030188519700,4.495519775390625,-1.921975016593933,0.17586250603199005,2.284837484359741
1750561030198124300,4.505124267578125,-2.0893125534057617,0.1428624987602234,1.8535000085830688
1750561030207729200,4.514729248046875,-2.125887393951416,0.14904999732971191,1.350250005722046
1750561030217334000,4.524333984375,-2.0477874279022217,0.22357499599456787,0.8016250133514404
1750561030226939000,4.53393896484375,-1.8865000009536743,0.41538751125335693,0.18342499434947968
1750561030236543500,4.54354345703125,-1.6946874856948853,0.6010124683380127,-0.48730000853538513
1750561030246148400,4.5531484375,-1.6421624422073364,0.5411999821662903,-1.1603624820709229
1750561030255753200,4.562753173828125,-1.8486875295639038,0.28462499380111694,-1.6759874820709229
1750561030265357800,4.57235791015625,-2.1698875427246094,0.054999999701976776,-1.9716124534606934
1750561030274962700,4.581962646484375,-2.283600091934204,-0.06476250290870667,-2.1170876026153564
1750561030284567600,4.591567626953125,-2.0990750789642334,-0.12223749607801437,-2.1939499378204346
1750561030294172400,4.60117236328125,-1.709399938583374,-0.1307625025510788,-2.22694993019104
1750561030303777300,4.61077734375,-1.223062515258789,-0.23086249828338623,-2.267237424850464
1750561030313382000,4.6203818359375,-0.7271000146865845,-0.4496249854564667,-2.4237124919891357
1750561030322986800,4.62998681640625,-0.30566251277923584,-0.7697250247001648,-2.7095749378204346
1750561030332591600,4.639591552734375,0.025437500327825546,-1.0298750400543213,-3.01743745803833
1750561030342196500,4.649196533203125,0.2942500114440918,-1.193637490272522,-3.3070125579833984
1750561030351801000,4.658801025390625,0.5238749980926514,-1.364687442779541,-3.5989248752593994
1750561030361406000,4.668406005859375,0.6888750195503235,-1.7726500034332275,-3.908025026321411
1750561030371010600,4.678010498046875,0.905162513256073,-2.1672749519348145,-4.075362682342529
1750561030380615400,4.687615478515625,1.198312520980835,-2.267512559890747,-4.084024906158447
1750561030390220300,4.69722021484375,1.473175048828125,-2.188037395477295,-3.9362125396728516
1750561030399825200,4.7068251953125,1.69798743724823,-2.0304625034332275,-3.6771624088287354
1750561030409430000,4.716429931640625,1.9240374565124512,-1.954699993133545,-3.3912999629974365
1750561030419034600,4.72603466796875,2.196424961090088,-1.9962249994277954,-3.1152000427246094
1750561030428639500,4.735639404296875,2.418762445449829,-2.0842249393463135,-2.8708624839782715
1750561030438244400,4.745244384765625,2.5775749683380127,-2.0707499980926514,-2.664337396621704
1750561030447849000,4.754848876953125,2.6680500507354736,-1.8863624334335327,-2.5165250301361084
1750561030457453600,4.76445361328125,2.658287525177002,-1.6370749473571777,-2.3504250049591064
1750561030467058700,4.77405859375,2.6032874584198,-1.2339249849319458,-1.9703749418258667
1750561030476663600,4.78366357421875,2.5055248737335205,-0.681725025177002,-1.311887502670288
1750561030486268200,4.79326806640625,2.406524896621704,-0.059812501072883606,-0.41401249170303345
1750561030495873000,4.802873046875,2.3674750328063965,0.5802500247955322,0.6183375120162964
1750561030505477600,4.8124775390625,2.1511874198913574,1.0726374387741089,1.6153500080108643
1750561030515082500,4.82208251953125,1.7994624376296997,1.280400037765503,2.29583740234375
1750561030524687400,4.831687255859375,1.456125020980835,1.1423499584197998,2.4888875484466553
1750561030534292200,4.841292236328125,1.0895500183105469,0.9223499894142151,2.340937376022339
1750561030543897000,4.85089697265625,0.699874997138977,0.7965375185012817,2.068549871444702
1750561030553501700,4.860501708984375,0.3382500112056732,0.808775007724762,1.8632625341415405
1750561030563106600,4.8701064453125,0.09267500042915344,0.9480624794960022,1.8082624673843384
1750561030572711400,4.87971142578125,0.002199999988079071,1.0921624898910522,1.8767374753952026
1750561030582316000,4.88931591796875,0.03396249935030937,1.1826374530792236,2.000075101852417
1750561030591920600,4.898920654296875,0.10119999945163727,1.2326874732971191,2.0465500354766846
1750561030601525800,4.90852587890625,0.11591249704360962,1.227737545967102,1.932974934577942
1750561030611130400,4.91813037109375,0.007149999961256981,1.184975028038025,1.708162546157837
1750561030620735200,4.9277353515625,-0.19318750500679016,1.0946375131607056,1.4405875205993652
1750561030630340000,4.937340087890625,-0.36176249384880066,0.9003499746322632,1.197487473487854
1750561030639945000,4.946945068359375,-0.4217124879360199,0.6560124754905701,1.0619125366210938
1750561030649549600,4.956549560546875,-0.408237487077713,0.3371500074863434,1.03496253490448
1750561030659154200,4.966154296875,-0.37152498960494995,0.07081250101327896,1.088724970817566
1750561030668759300,4.97575927734375,-0.29823750257492065,0.00976249948143959,1.1424875259399414
1750561030678364200,4.9853642578125,-0.23471249639987946,0.06833750009536743,1.0716749429702759
1750561030687968800,4.99496875,-0.20542499423027039,0.22605000436306,0.8786249756813049
1750561030697573600,5.00457373046875,-0.1896124929189682,0.3909125030040741,0.6245250105857849
1750561030707178200,5.01417822265625,-0.16513749957084656,0.44591251015663147,0.38499999046325684
1750561030716783000,5.023783203125,-0.13337500393390656,0.39338749647140503,0.201712504029274
1750561030726387700,5.0333876953125,-0.09418749809265137,0.20528750121593475,0.07356250286102295
1750561030735992600,5.04299267578125,-0.06737499684095383,-0.06599999964237213,0.00013749999925494194
1750561030745597400,5.052597412109375,-0.07713750004768372,-0.30057498812675476,-0.03519999980926514
1750561030755202300,5.062202392578125,-0.11742500215768814,-0.42143750190734863,-0.05719999969005585
1750561030764807200,5.07180712890625,-0.17613749206066132,-0.38609999418258667,-0.049912501126527786
1750561030774411800,5.081411865234375,-0.22013749182224274,-0.2320999950170517,-0.014437500387430191
1750561030784016600,5.0910166015625,-0.22013749182224274,-0.1270499974489212,0.016087500378489494
1750561030793621500,5.10062158203125,-0.15166249871253967,-0.07576250284910202,0.047849997878074646
1750561030803226000,5.11022607421875,-0.05884999781847,-0.05252499878406525,0.050324998795986176
1750561030812831200,5.119831298828125,0.0010999999940395355,-0.04399999976158142,-0.009624999947845936
1750561030832040400,5.13904052734375,-0.02956249937415123,-0.11852499842643738,-0.21601249277591705
1750561030841645300,5.148645263671875,-0.11866249889135361,-0.1942874938249588,-0.258774995803833
1750561030851250200,5.158250244140625,-0.18342499434947968,-0.23704999685287476,-0.2404875010251999
1750561030860855000,5.16785498046875,-0.19813749194145203,-0.20776249468326569,-0.1671999990940094
1750561030870460000,5.1774599609375,-0.15537500381469727,-0.11604999750852585,-0.03162499889731407
1750561030880064800,5.187064697265625,-0.07590000331401825,-0.05252499878406525,0.11137499660253525
1750561030889669400,5.19666943359375,0.0034374999813735485,-0.00976249948143959,0.20061250030994415
1750561030899274200,5.206274169921875,0.06091250106692314,-0.007287499960511923,0.1993750035762787
1750561030908878800,5.21587890625,0.07919999957084656,-0.059812501072883606,0.12966249883174896
1750561030918483700,5.225483642578125,0.03396249935030937,-0.16376249492168427,0.035612501204013824
1750561030928088600,5.235088623046875,-0.05389999970793724,-0.2712875008583069,-0.03272499889135361
1750561030937693400,5.244693359375,-0.12361250072717667,-0.3053874969482422,-0.040150001645088196
1750561030947298300,5.25429833984375,-0.1504250019788742,-0.2297624945640564,0.00013749999925494194
1750561030956903000,5.26390283203125,-0.1223749965429306,-0.11247500032186508,0.052662499248981476
1750561030966507800,5.2735078125,-0.062424998730421066,-0.007287499960511923,0.08689999580383301
1750561030976112400,5.2831123046875,-0.006324999965727329,0.06476250290870667,0.07961250096559525
1750561030985717500,5.292717529296875,0.030387500301003456,0.08799999952316284,0.03437500074505806
1750561030995322000,5.302322021484375,0.03891250118613243,0.08057499676942825,-0.022962499409914017
1750561031004927000,5.311927001953125,0.02419999986886978,0.03904999792575836,-0.08043749630451202
1750561031014531600,5.321531494140625,-0.006324999965727329,-0.028049999848008156,-0.12072499841451645
1750561031024136700,5.33113671875,-0.03684999793767929,-0.10257499665021896,-0.1414874941110611
1750561031033741300,5.3407412109375,-0.055137500166893005,-0.10876250267028809,-0.1354375034570694
1750561031043346200,5.35034619140625,-0.05637500062584877,-0.07081250101327896,-0.11343749612569809
1750561031052950800,5.35995068359375,-0.025849999859929085,-0.04399999976158142,-0.08043749630451202
1750561031062555600,5.3695556640625,0.02419999986886978,-0.020762499421834946,-0.03519999980926514
1750561031072160500,5.379160400390625,0.07315000146627426,0.0012374999932944775,-0.004674999974668026
1750561031081765000,5.38876513671875,0.09638749808073044,0.02447500079870224,-0.013199999928474426
1750561031091370000,5.398369873046875,0.09267500042915344,0.0170499999076128,-0.037675000727176666
1750561031100974800,5.407974853515625,0.062150001525878906,-0.00494999997317791,-0.04138749837875366
1750561031110579700,5.417579833984375,0.008387500420212746,-0.01718750037252903,-0.03396249935030937
1750561031120184300,5.427184326171875,-0.04661250114440918,-0.0085249999538064,-0.04496249929070473
1750561031129789200,5.4367890625,-0.06613750010728836,-0.0037124999798834324,-0.08043749630451202
1750561031139394000,5.44639404296875,-0.04661250114440918,0.0085249999538064,-0.11824999749660492
1750561031148998700,5.45599853515625,-0.0038499999791383743,0.010999999940395355,-0.1354375034570694
1750561031158603500,5.465603515625,0.049912501126527786,-0.010999999940395355,-0.10615000128746033
1750561031168208100,5.4752080078125,0.08772499859333038,-0.057475000619888306,-0.027912499383091927
1750561031177813000,5.48481298828125,0.08291249722242355,-0.10628750175237656,0.05884999781847
1750561031187417900,5.49441796875,0.04138749837875366,-0.11357499659061432,0.11137499660253525
1750561031197022700,5.504022705078125,-0.002612499985843897,-0.05004999786615372,0.09913749992847443
1750561031206627600,5.513627685546875,-0.02213750034570694,0.047575000673532486,0.035612501204013824
1750561031216232200,5.523232177734375,-0.008799999952316284,0.10999999940395355,-0.03891250118613243
1750561031225837000,5.532837158203125,0.02419999986886978,0.09652499854564667,-0.08043749630451202
1750561031235441700,5.542441650390625,0.05115000158548355,0.03423750028014183,-0.06091250106692314
1750561031245046500,5.552046630859375,0.05843750014901161,-0.05252499878406525,0.012374999932944775
1750561031254651100,5.561651123046875,0.04138749837875366,-0.13928750157356262,0.10408750176429749
1750561031264256000,5.571256103515625,0.013199999928474426,-0.18700000643730164,0.1798499971628189
1750561031273860900,5.58086083984375,-0.007562499959021807,-0.17599999904632568,0.2116124927997589
1750561031283465700,5.5904658203125,-0.005087499972432852,-0.12952500581741333,0.18837499618530273
1750561031293070600,5.600070556640625,0.014437500387430191,-0.06476250290870667,0.1223749965429306
1750561031302675200,5.60967529296875,0.02667500078678131,0.01223750039935112,0.035612501204013824
1750561031312280000,5.619280029296875,0.020624998956918716,0.0695749968290329,-0.05472499877214432
1750561031321885000,5.628885009765625,0.008387500420212746,0.07576250284910202,-0.1097249984741211
1750561031331489500,5.638489501953125,-0.007562499959021807,0.03423750028014183,-0.10724999755620956
1750561031341094100,5.64809423828125,-0.011137500405311584,-0.03671250119805336,-0.04619999974966049
1750561031350699000,5.657698974609375,0.0034374999813735485,-0.07081250101327896,0.030799999833106995
1750561031360304000,5.66730419921875,0.027912499383091927,-0.0672374963760376,0.0625625029206276
1750561031369908700,5.67690869140625,0.04138749837875366,-0.0085249999538064,0.03189999982714653
1750561031379513600,5.686513671875,0.02914999984204769,0.0989999994635582,-0.02667500078678131
1750561031389118500,5.696118408203125,0.0034374999813735485,0.15028749406337738,-0.07796250283718109
1750561031398723000,5.70572314453125,-0.012374999932944775,0.10876250267028809,-0.08772499859333038
1750561031408327700,5.71532763671875,-0.02708750031888485,0.018287500366568565,-0.05115000158548355
1750561031417932500,5.7249326171875,-0.033137500286102295,-0.06228749826550484,0.02213750034570694
1750561031427537700,5.73453759765625,-0.01732499897480011,-0.11247500032186508,0.10408750176429749
1750561031437142300,5.744142333984375,0.01209999993443489,-0.14657500386238098,0.14685000479221344
1750561031446747100,5.7537470703125,0.0364375002682209,-0.1685750037431717,0.13708749413490295
1750561031456351700,5.763351806640625,0.04138749837875366,-0.16128750145435333,0.0845625028014183
1750561031465956600,5.77295654296875,0.020624998956918716,-0.12099999934434891,0.016087500378489494
1750561031475561200,5.782561279296875,-0.01484999991953373,-0.05376249924302101,-0.037675000727176666
1750561031485166000,5.792166015625,-0.047849997878074646,0.00976249948143959,-0.0644875019788742
1750561031494771000,5.80177099609375,-0.05389999970793724,0.05004999786615372,-0.06091250106692314
1750561031504375800,5.811375732421875,-0.03684999793767929,0.059812501072883606,-0.03272499889135361
1750561031513980400,5.82098046875,-0.002612499985843897,0.037812501192092896,0.016087500378489494
1750561031523585300,5.830585205078125,0.03519999980926514,-0.035475000739097595,0.07590000331401825
1750561031533190100,5.840190185546875,0.05596249923110008,-0.11123749613761902,0.11742500215768814
1750561031542795000,5.849794921875,0.049912501126527786,-0.14300000667572021,0.1163249984383583
1750561031552400000,5.85939990234375,0.032862499356269836,-0.10257499665021896,0.0625625029206276
1750561031562004500,5.86900439453125,0.015675000846385956,-0.0147124994546175,-0.0364375002682209
1750561031571609300,5.878609375,0.0034374999813735485,0.0672374963760376,-0.13901250064373016
1750561031581214000,5.8882138671875,-0.0013749999925494194,0.09033749997615814,-0.19648750126361847
1750561031590818800,5.89781884765625,0.008387500420212746,0.07081250101327896,-0.17943750321865082
1750561031600423700,5.907423583984375,0.02667500078678131,0.030524998903274536,-0.09515000134706497
1750561031610028300,5.9170283203125,0.04386249929666519,-0.01718750037252903,0.013612499460577965
1750561031619633200,5.926633056640625,0.04138749837875366,-0.05004999786615372,0.09542500227689743
1750561031629238000,5.936238037109375,0.02419999986886978,-0.05004999786615372,0.12484999746084213
1750561031638843000,5.9458427734375,0.009624999947845936,-0.03671250119805336,0.09184999763965607
1750561031648447500,5.955447509765625,-0.008799999952316284,-0.04152499884366989,0.01484999991953373
1750561031658052400,5.96505224609375,-0.03437500074505806,-0.047712501138448715,-0.062150001525878906
1750561031667657200,5.9746572265625,-0.05389999970793724,-0.04152499884366989,-0.1036750003695488
1750561031677262000,5.984261962890625,-0.05142499879002571,-0.018287500366568565,-0.08896250277757645
1750561031686866700,5.99386669921875,-0.038087498396635056,0.006049999967217445,-0.040150001645088196
1750561031696471600,6.003471435546875,-0.011137500405311584,0.0170499999076128,0.01979999989271164
1750561031706076400,6.013076416015625,0.022962499409914017,-0.010999999940395355,0.0625625029206276
1750561031715681000,6.022680908203125,0.04743750020861626,-0.06228749826550484,0.07961250096559525
1750561031725286000,6.032285888671875,0.05362499877810478,-0.10147500038146973,0.06737499684095383
1750561031734890800,6.041890869140625,0.04743750020861626,-0.0989999994635582,0.030799999833106995
1750561031744495600,6.05149560546875,0.0364375002682209,-0.0672374963760376,-0.022962499409914017
1750561031754100200,6.061100341796875,0.020624998956918716,-0.0085249999538064,-0.07796250283718109
1750561031763705000,6.070705078125,-0.002612499985843897,0.042762499302625656,-0.12072499841451645
1750561031773310000,6.08031005859375,-0.028324998915195465,0.07452499866485596,-0.13048750162124634
1750561031782914600,6.08991455078125,-0.03189999982714653,0.07204999774694443,-0.09624999761581421
1750561031792519400,6.09951953125,-0.01484999991953373,0.02928750030696392,-0.02914999984204769
1750561031802124000,6.1091240234375,0.01209999993443489,-0.01718750037252903,0.04413750022649765
1750561031811729000,6.11872900390625,0.04262499883770943,-0.05376249924302101,0.09308750182390213
1750561031821333800,6.128333740234375,0.06338749825954437,-0.057475000619888306,0.09184999763965607
1750561031830938600,6.137938720703125,0.05486249923706055,-0.035475000739097595,0.03932499885559082
1750561031840543200,6.147543212890625,0.018149999901652336,0.014574999921023846,-0.02914999984204769
1750561031850148000,6.157148193359375,-0.025849999859929085,0.05128749832510948,-0.08415000140666962
1750561031859752700,6.166752685546875,-0.05142499879002571,0.06228749826550484,-0.08772499859333038
1750561031869357800,6.17635791015625,-0.05142499879002571,0.05128749832510948,-0.04619999974966049
1750561031878962400,6.18596240234375,-0.030662499368190765,0.037812501192092896,0.007562499959021807
1750561031888567600,6.195567626953125,0.0034374999813735485,0.030524998903274536,0.040562499314546585
1750561031898172200,6.205172119140625,0.02667500078678131,0.0170499999076128,0.038087498396635056
1750561031907776800,6.21477685546875,0.02914999984204769,-0.020762499421834946,0.018562499433755875
1750561031917381600,6.224381591796875,-0.006324999965727329,-0.07699999958276749,0.005087499972432852
1750561031926986200,6.233986328125,-0.045375000685453415,-0.1050499975681305,0.03684999793767929
1750561031936591400,6.24359130859375,-0.07108750194311142,-0.08552499860525131,0.08566249907016754
1750561031946196000,6.253196044921875,-0.06984999775886536,-0.04028749838471413,0.10642500221729279
1750561031955800800,6.26280078125,-0.042899999767541885,0.02928750030696392,0.07356250286102295
1750561031965405700,6.27240576171875,-0.012374999932944775,0.1428624987602234,0.00013749999925494194
1750561031975010600,6.282010498046875,0.0034374999813735485,0.21133749186992645,-0.07796250283718109
1750561031984615200,6.291615234375,0.0034374999813735485,0.19538749754428864,-0.11715000122785568
1750561031994220000,6.301219970703125,-0.006324999965727329,0.11233749985694885,-0.09391249716281891
1750561032003825000,6.310824951171875,-0.023375000804662704,-0.00494999997317791,-0.03396249935030937
1750561032013429800,6.3204296875,-0.047849997878074646,-0.05871250107884407,0.018562499433755875
1750561032023034400,6.330034423828125,-0.060087498277425766,-0.03671250119805336,0.018562499433755875
1750561032032639200,6.33963916015625,-0.052662499248981476,-0.01223750039935112,-0.015675000846385956
1750561032042243800,6.349243896484375,-0.030662499368190765,-0.002474999986588955,-0.05238749831914902
1750561032051848700,6.3588486328125,-0.002612499985843897,0.01223750039935112,-0.09872499853372574
1750561032061453300,6.368453369140625,0.022962499409914017,0.015812499448657036,-0.14643749594688416
1750561032071058200,6.37805810546875,0.03519999980926514,0.010999999940395355,-0.17077499628067017
1750561032080663000,6.3876630859375,0.03519999980926514,0.0012374999932944775,-0.15867500007152557
1750561032090268000,6.397267822265625,0.030387500301003456,-0.02928750030696392,-0.11343749612569809
1750561032099872800,6.406872802734375,0.027912499383091927,-0.01718750037252903,-0.05719999969005585
1750561032109477400,6.416477294921875,0.03162499889731407,0.007287499960511923,-0.03162499889731407
1750561032119082200,6.426082275390625,0.03519999980926514,-0.006187499966472387,-0.04743750020861626
1750561032128686800,6.435686767578125,0.04262499883770943,-0.042762499302625656,-0.07796250283718109
1750561032138291700,6.445291748046875,0.05719999969005585,-0.10876250267028809,-0.08291249722242355
1750561032147896600,6.454896484375,0.08043749630451202,-0.17104999721050262,-0.049912501126527786
1750561032157501400,6.46450146484375,0.11838749796152115,-0.22110000252723694,0.007562499959021807
1750561032167106000,6.47410595703125,0.16843749582767487,-0.23828749358654022,0.06132499873638153
1750561032176711000,6.4837109375,0.2050125002861023,-0.23457500338554382,0.08813749998807907
1750561032186315500,6.4933154296875,0.2367749959230423,-0.22605000436306,0.0966624990105629
1750561032195920400,6.50292041015625,0.22824999690055847,-0.20776249468326569,0.11261250078678131
1750561032205525200,6.512525146484375,0.18548749387264252,-0.09047500044107437,0.24447499215602875
1750561032215130000,6.522130126953125,0.14024999737739563,-0.002474999986588955,0.48881250619888306
1750561032224734700,6.531734619140625,0.11838749796152115,-0.02199999988079071,0.8223875164985657
1750561032234339800,6.54133984375,0.1891999989748001,-0.10147500038146973,1.26829993724823
1750561032243944400,6.5509443359375,0.2539624869823456,-0.1722874939441681,1.8339749574661255
1750561032253549000,6.560549072265625,0.17572499811649323,-0.057475000619888306,2.4974124431610107
1750561032263154000,6.57015380859375,-0.1321374922990799,0.1905750036239624,3.025137424468994
1750561032272758800,6.5797587890625,-0.6305750012397766,0.5997750163078308,3.335474967956543
1750561032282363400,6.58936328125,-1.1375374794006348,0.9638749957084656,3.456475019454956
1750561032291968000,6.598968017578125,-1.5041124820709229,1.035925030708313,3.48933744430542
1750561032301573000,6.608572998046875,-1.6763999462127686,0.9700624942779541,3.5773375034332275
1750561032311177700,6.618177734375,-1.730162501335144,0.8588249683380127,3.6788125038146973
1750561032320782600,6.627782470703125,-1.712975025177002,0.6841999888420105,3.706862449645996
1750561032330387500,6.637387451171875,-1.6654000282287598,0.5302000045776367,3.6298625469207764
1750561032339992300,6.646992431640625,-1.6286875009536743,0.3689124882221222,3.3709499835968018
1750561032349597000,6.656596923828125,-1.6984000205993652,0.0635249987244606,2.872375011444092
1750561032359201800,6.666201904296875,-1.9427374601364136,-0.27252501249313354,2.2323124408721924
1750561032368806700,6.675806640625,-2.2481250762939453,-0.38733750581741333,1.5846874713897705
1750561032378411300,6.685411376953125,-2.4106500148773193,-0.2932874858379364,0.9506750106811523
1750561032388016000,6.69501611328125,-2.3018875122070312,0.06599999964237213,0.2934249937534332
1750561032397621000,6.70462109375,-2.000075101852417,0.4606249928474426,-0.45182499289512634
1750561032407225600,6.7142255859375,-1.6909749507904053,0.5741999745368958,-1.216599941253662
1750561032416830500,6.72383056640625,-1.468637466430664,0.34209999442100525,-1.9166125059127808
1750561032426435300,6.733435302734375,-1.355062484741211,-0.20281249284744263,-2.539762496948242
1750561032436040000,6.7430400390625,-1.2878249883651733,-0.8234875202178955,-2.9979124069213867
1750561032445644800,6.752644775390625,-1.1852500438690186,-1.1948750019073486,-3.2690625190734863
1750561032455249700,6.762249755859375,-1.0654875040054321,-1.5027375221252441,-3.4145374298095703
1750561032464854500,6.7718544921875,-0.9226250052452087,-1.8423625230789185,-3.441349983215332
1750561032474459100,6.781459228515625,-0.7588624954223633,-2.373800039291382,-3.436537504196167
1750561032484064000,6.79106396484375,-0.554812490940094,-3.034762382507324,-3.453587532043457
1750561032493668900,6.8006689453125,-0.18837499618530273,-3.3463375568389893,-3.4058749675750732
1750561032503273500,6.8102734375,0.3675374984741211,-3.1972875595092773,-3.2580626010894775
1750561032512878300,6.81987841796875,1.0675499439239502,-2.8026623725891113,-3.00038743019104
1750561032522483200,6.829483154296875,1.7859874963760376,-2.487375020980835,-2.7693874835968018
1750561032532087800,6.839087890625,2.3161873817443848,-2.3970375061035156,-2.75962495803833
1750561032541692700,6.848692626953125,2.650862455368042,-2.3970375061035156,-2.89520001411438
1750561032551297500,6.858297607421875,2.961199998855591,-2.238224983215332,-2.907437562942505
1750561032560902400,6.86790234375,3.286249876022339,-2.0268874168395996,-2.6716248989105225
1750561032570507300,6.87750732421875,3.5098249912261963,-1.6798374652862549,-2.1891374588012695
1750561032580112000,6.88711181640625,3.4682998657226562,-1.0823999643325806,-1.5954124927520752
1750561032589716700,6.896716796875,3.2239625453948975,-0.3726249933242798,-1.057787537574768
1750561032599321300,6.9063212890625,2.8879125118255615,0.20281249284744263,-0.6949250102043152
1750561032608926200,6.91592626953125,2.50923752784729,0.45691248774528503,-0.40053749084472656
1750561032618531000,6.925531005859375,2.2123749256134033,0.31638750433921814,-0.018149999901652336
1750561032628136000,6.935135986328125,1.9630874395370483,-0.14533749222755432,0.3997125029563904
1750561032637740800,6.94474072265625,1.7517499923706055,-0.6047250032424927,0.7198125123977661
1750561032647345400,6.954345458984375,1.473175048828125,-0.5326749682426453,0.8701000213623047
1750561032656950300,6.9639501953125,1.0737375020980835,0.1405249983072281,0.8383374810218811
1750561032666555000,6.973554931640625,0.5556374788284302,0.8540124893188477,0.6183375120162964
1750561032676159700,6.98315966796875,0.09872499853372574,1.3670250177383423,0.4449499845504761
1750561032685764600,6.9927646484375,-0.12113749980926514,1.6028374433517456,0.4877125024795532
1750561032695369200,7.002369140625,-0.20418749749660492,1.473312497138977,0.6892874836921692
1750561032704974000,7.01197412109375,-0.17861250042915344,1.1093499660491943,0.9739124774932861
1750561032714579000,7.021578857421875,-0.11261250078678131,0.6254875063896179,1.1950124502182007
1750561032724183800,7.031183837890625,-0.14313749969005585,0.3335750102996826,1.2707749605178833
1750561032733788400,7.040788330078125,-0.23842500150203705,0.3176249861717224,1.1987249851226807
1750561032743393000,7.05039306640625,-0.3227125108242035,0.4349125027656555,0.9739124774932861
1750561032752998000,7.059997802734375,-0.4021874964237213,0.5644375085830688,0.6708624958992004
1750561032762603000,7.06960302734375,-0.4595249891281128,0.6584874987602234,0.42899999022483826
1750561032772207600,7.07920751953125,-0.5095750093460083,0.7170624732971191,0.31542500853538513
1750561032781812500,7.0888125,-0.5438125133514404,0.7697250247001648,0.30799999833106995
1750561032791417000,7.0984169921875,-0.5328124761581421,0.7598249912261963,0.353237509727478
1750561032801022000,7.10802197265625,-0.4754749834537506,0.6743000149726868,0.4339500069618225
1750561032810626600,7.11762646484375,-0.3777124881744385,0.4739624857902527,0.5035250186920166
1750561032820231400,7.1272314453125,-0.27390000224113464,0.2223374992609024,0.519474983215332
1750561032829836000,7.1368359375,-0.18713749945163727,0.032999999821186066,0.47052499651908875
1750561032839441200,7.146441162109375,-0.1601874977350235,-0.0012374999932944775,0.33371248841285706
1750561032849046000,7.1560458984375,-0.19442500174045563,0.0952875018119812,0.1504250019788742
1750561032858650600,7.165650634765625,-0.2554749846458435,0.1905750036239624,0.0038499999791383743
1750561032868255500,7.17525537109375,-0.32023748755455017,0.21504999697208405,-0.06572499871253967
1750561032877860000,7.184860107421875,-0.3386625051498413,0.14781250059604645,-0.04867500066757202
1750561032887465000,7.19446484375,-0.3031874895095825,0.047575000673532486,0.020899999886751175
1750561032897069600,7.204069580078125,-0.2237125039100647,-0.0635249987244606,0.11384999752044678
1750561032906674400,7.21367431640625,-0.11866249889135361,-0.18700000643730164,0.19442500174045563
1750561032916279600,7.223279541015625,-0.035612501204013824,-0.23704999685287476,0.20542499423027039
1750561032925884200,7.23288427734375,0.005912499967962503,-0.17104999721050262,0.13337500393390656
1750561032935488800,7.24248876953125,-0.00013749999925494194,-0.059812501072883606,-0.0009624999947845936
1750561032945093600,7.25209375,-0.055137500166893005,0.03657500073313713,-0.1451999992132187
1750561032954698500,7.261698486328125,-0.12718750536441803,0.11976250261068344,-0.23925000429153442
1750561032964303000,7.27130322265625,-0.17242500185966492,0.15028749406337738,-0.24901250004768372
1750561032973908200,7.280908203125,-0.17366249859333038,0.10999999940395355,-0.1634874939918518
1750561032983512800,7.290512939453125,-0.13461250066757202,-0.00494999997317791,-0.018149999901652336
1750561032993117700,7.30011767578125,-0.06984999775886536,-0.1527625024318695,0.11866249889135361
1750561033002722600,7.30972265625,0.013199999928474426,-0.26028749346733093,0.1896124929189682
1750561033012327200,7.3193271484375,0.08291249722242355,-0.3078624904155731,0.17242500185966492
1750561033021932000,7.32893212890625,0.1073874980211258,-0.24928750097751617,0.08566249907016754
1750561033031536600,7.33853662109375,0.09515000134706497,-0.11976250261068344,-0.04262499883770943
1750561033041141500,7.3481416015625,0.03519999980926514,0.06599999964237213,-0.16843749582767487
1750561033050746400,7.357746337890625,-0.04166249930858612,0.22481249272823334,-0.22948749363422394
1750561033060351200,7.367351318359375,-0.07961250096559525,0.23333749175071716,-0.2147749960422516
1750561033069955800,7.376955810546875,-0.06132499873638153,0.13557499647140503,-0.12319999933242798
1750561033079560700,7.386560791015625,0.0010999999940395355,-0.0012374999932944775,0.013612499460577965
1750561033089165600,7.39616552734375,0.07438749819993973,-0.09281250089406967,0.13708749413490295
1750561033098770200,7.405770263671875,0.12319999933242798,-0.09652499854564667,0.18713749945163727
1750561033108374800,7.415374755859375,0.14767499268054962,-0.025712499395012856,0.15908749401569366
1750561033117979600,7.424979736328125,0.12691250443458557,0.09776250272989273,0.07713750004768372
1750561033127584500,7.43458447265625,0.06091250106692314,0.20886249840259552,-0.025437500327825546
1750561033137189400,7.444189453125,-0.00013749999925494194,0.2578125,-0.1036750003695488
1750561033146794200,7.453794189453125,-0.023375000804662704,0.2040500044822693,-0.12691250443458557
1750561033156398800,7.46339892578125,-0.018562499433755875,0.1013374999165535,-0.08896250277757645
1750561033166003700,7.473003662109375,0.01209999993443489,-0.01952499896287918,-0.007149999961256981
1750561033175608600,7.482608642578125,0.04743750020861626,-0.11728750169277191,0.08689999580383301
1750561033185213400,7.49221337890625,0.0681999996304512,-0.1625249981880188,0.17366249859333038
1750561033194818000,7.501818115234375,0.062150001525878906,-0.15152500569820404,0.2237125039100647
1750561033204423000,7.5114228515625,0.032862499356269836,-0.09652499854564667,0.21271249651908875
1750561033214027800,7.52102783203125,-0.0038499999791383743,0.004812499973922968,0.13942499458789825
1750561033223632400,7.53063232421875,-0.023375000804662704,0.11357499659061432,0.02708750031888485
1750561033233237200,7.5402373046875,-0.01966249942779541,0.16128750145435333,-0.06943749636411667
1750561033242841900,7.549841796875,0.002199999988079071,0.1331000030040741,-0.11948750168085098
1750561033252446700,7.55944677734375,0.040150001645088196,0.05004999786615372,-0.11467500030994415
1750561033262051800,7.5690517578125,0.08662500232458115,-0.06847500056028366,-0.05472499877214432
1750561033271656400,7.578656494140625,0.11591249704360962,-0.17352500557899475,0.04413750022649765
1750561033281261000,7.588260986328125,0.11838749796152115,-0.24433749914169312,0.13942499458789825
1750561033290866000,7.597865966796875,0.11591249704360962,-0.2578125,0.18837499618530273
1750561033300470500,7.607470458984375,0.10848750174045563,-0.1845249980688095,0.16266250610351562
1750561033310075400,7.617075439453125,0.10119999945163727,-0.06104999780654907,0.07590000331401825
1750561033319680000,7.626679931640625,0.09267500042915344,0.04152499884366989,-0.03519999980926514
1750561033329284900,7.636284912109375,0.06572499871253967,0.1013374999165535,-0.1317249983549118
1750561033338889700,7.6458896484375,0.03396249935030937,0.10752499848604202,-0.195250004529953
1750561033348494300,7.655494384765625,0.015675000846385956,0.06104999780654907,-0.19401249289512634
1750561033358099500,7.665099365234375,0.02186249941587448,0.014574999921023846,-0.1256749927997589
1750561033367704000,7.6747041015625,0.037675000727176666,-0.042762499302625656,-0.025437500327825546
1750561033377309000,7.684308837890625,0.05719999969005585,-0.09281250089406967,0.0625625029206276
1750561033386913500,7.69391357421875,0.05362499877810478,-0.10876250267028809,0.09790000319480896
1750561033396518400,7.703518310546875,0.022962499409914017,-0.07204999774694443,0.07232499867677689
1750561033406123000,7.713123046875,-0.013612499460577965,-0.0147124994546175,0.006324999965727329
1750561033415727900,7.722727783203125,-0.03189999982714653,0.04152499884366989,-0.05719999969005585
1750561033425332700,7.732332763671875,-0.02213750034570694,0.05128749832510948,-0.08167500048875809
1750561033434937600,7.7419375,-0.00013749999925494194,0.032999999821186066,-0.05967500060796738
1750561033444542500,7.75154248046875,0.02419999986886978,-0.0012374999932944775,-0.011962499469518661
1750561033454147000,7.76114697265625,0.03519999980926514,-0.010999999940395355,0.04179999977350235
1750561033463751700,7.770751708984375,0.032862499356269836,0.010999999940395355,0.0648999959230423
1750561033473356800,7.780356689453125,0.020624998956918716,0.02928750030696392,0.033137500286102295
1750561033482961400,7.78996142578125,-0.00989999994635582,0.025575000792741776,-0.027912499383091927
1750561033492566300,7.799566162109375,-0.042899999767541885,-0.0085249999538064,-0.07672499865293503
1750561033502171100,7.809171142578125,-0.06861250102519989,-0.05004999786615372,-0.09267500042915344
1750561033511775700,7.818775634765625,-0.08332499861717224,-0.08799999952316284,-0.08648750185966492
1750561033521380600,7.828380615234375,-0.08208750188350677,-0.13928750157356262,-0.07438749819993973
1750561033530985500,7.8379853515625,-0.06984999775886536,-0.17710000276565552,-0.06572499871253967
1750561033540590000,7.847590087890625,-0.04661250114440918,-0.16499999165534973,-0.06338749825954437
1750561033550195000,7.85719482421875,-0.02213750034570694,-0.07823749631643295,-0.0719124972820282
1750561033559799800,7.8667998046875,-0.00013749999925494194,0.04881250113248825,-0.09391249716281891
1750561033569404700,7.87640478515625,0.025437500327825546,0.15633749961853027,-0.10724999755620956
1750561033579009300,7.88600927734375,0.03519999980926514,0.16733749210834503,-0.08415000140666962
1750561033588614100,7.8956142578125,0.03162499889731407,0.09033749997615814,-0.022962499409914017
1750561033598218800,7.90521875,0.0193875003606081,-0.02928750030696392,0.04413750022649765
1750561033607823600,7.91482373046875,0.002199999988079071,-0.13199999928474426,0.0943249985575676
1750561033617428500,7.924428466796875,-0.020899999886751175,-0.16376249492168427,0.11990000307559967
1750561033627033300,7.934033447265625,-0.035612501204013824,-0.13323749601840973,0.10408750176429749
1750561033636638000,7.943637939453125,-0.035612501204013824,-0.04647500067949295,0.057612501084804535
1750561033646242800,7.953242919921875,-0.01966249942779541,0.04647500067949295,0.007562499959021807
1750561033655847700,7.96284765625,0.010862499475479126,0.10381250083446503,-0.03396249935030937
1750561033665452300,7.972452392578125,0.03396249935030937,0.12952500581741333,-0.0681999996304512
1750561033675057000,7.982056884765625,0.040150001645088196,0.11481250077486038,-0.08772499859333038
1750561033684662000,7.991662109375,0.03891250118613243,0.037812501192092896,-0.08896250277757645
1750561033694267000,8.001266845703125,0.02914999984204769,-0.05376249924302101,-0.07315000146627426
1750561033703871500,8.01087158203125,0.01209999993443489,-0.10752499848604202,-0.05115000158548355
1750561033713476400,8.020476318359375,-0.00013749999925494194,-0.07576250284910202,-0.020624998956918716
1750561033723081000,8.0300810546875,0.005912499967962503,-0.020762499421834946,0.01732499897480011
1750561033732685800,8.039685791015625,0.020624998956918716,0.002474999986588955,0.052662499248981476
1750561033742290700,8.049290771484374,0.03162499889731407,-0.0012374999932944775,0.060087498277425766
1750561033751895300,8.058895263671875,0.027912499383091927,0.0037124999798834324,0.03437500074505806
1750561033761500400,8.06850048828125,0.01209999993443489,0.014574999921023846,-0.010862499475479126
1750561033771105000,8.07810498046875,-0.006324999965727329,0.00976249948143959,-0.05472499877214432
1750561033780709600,8.087709716796875,-0.023375000804662704,0.0012374999932944775,-0.09267500042915344
1750561033790314500,8.097314453125,-0.038087498396635056,0.014574999921023846,-0.11948750168085098
1750561033799919400,8.10691943359375,-0.040562499314546585,0.03657500073313713,-0.11591249704360962
1750561033809524200,8.116524169921876,-0.02461249940097332,0.04647500067949295,-0.09019999951124191
1750561033819129000,8.126129150390625,0.005912499967962503,0.05623750016093254,-0.04867500066757202
1750561033828733700,8.135733642578124,0.037675000727176666,0.04647500067949295,-0.014437500387430191
1750561033838338600,8.145338623046875,0.04743750020861626,0.02199999988079071,-0.010862499475479126
1750561033847943200,8.154943115234374,0.03519999980926514,0.00976249948143959,-0.02667500078678131
1750561033857548000,8.164548095703125,0.010862499475479126,0.01223750039935112,-0.049912501126527786
1750561033867153000,8.17415283203125,-0.01732499897480011,0.020762499421834946,-0.07315000146627426
1750561033876757500,8.183757568359376,-0.035612501204013824,0.00976249948143959,-0.08043749630451202
1750561033886362400,8.1933623046875,-0.03437500074505806,-0.02199999988079071,-0.05362499877810478
1750561033895967200,8.20296728515625,-0.01966249942779541,-0.045237500220537186,0.005087499972432852
1750561033905571800,8.21257177734375,0.005912499967962503,-0.02928750030696392,0.06366249918937683
1750561033915176700,8.2221767578125,0.032862499356269836,0.015812499448657036,0.0906125009059906
1750561033924781600,8.231781494140625,0.04262499883770943,0.07823749631643295,0.07356250286102295
1750561033934386400,8.241386474609374,0.03396249935030937,0.0989999994635582,0.007562499959021807
1750561033943991300,8.2509912109375,0.009624999947845936,0.06476250290870667,-0.05596249923110008
1750561033953596000,8.260595947265625,-0.03437500074505806,-0.0085249999538064,-0.08896250277757645
1750561033963200800,8.27020068359375,-0.07837499678134918,-0.09047500044107437,-0.09267500042915344
1750561033972805600,8.2798056640625,-0.10161250084638596,-0.13928750157356262,-0.07315000146627426
1750561033982410200,8.28941015625,-0.10037499666213989,-0.13805000483989716,-0.04619999974966049
1750561033992014800,8.299014892578125,-0.07466249912977219,-0.10381250083446503,-0.027912499383091927
1750561034001619700,8.30861962890625,-0.03189999982714653,-0.06104999780654907,-0.02667500078678131
1750561034011224600,8.318224609375,0.010862499475479126,-0.023237500339746475,-0.03396249935030937
1750561034020829400,8.327829345703124,0.05115000158548355,0.047575000673532486,-0.02914999984204769
1750561034030434000,8.33743408203125,0.0719124972820282,0.07823749631643295,-0.010862499475479126
1750561034040039000,8.347038818359374,0.07672499865293503,0.07576250284910202,0.002612499985843897
1750561034049643800,8.356643798828125,0.0681999996304512,0.04881250113248825,0.005087499972432852
1750561034059248400,8.366248291015625,0.0364375002682209,0.010999999940395355,-0.01691249944269657
1750561034068853200,8.375853271484376,-0.013612499460577965,-0.042762499302625656,-0.04743750020861626
1750561034078458000,8.3854580078125,-0.05637500062584877,-0.08799999952316284,-0.05967500060796738
1750561034088063000,8.39506298828125,-0.08332499861717224,-0.09281250089406967,-0.0644875019788742
1750561034097667600,8.40466748046875,-0.08566249907016754,-0.032999999821186066,-0.07548750191926956
1750561034107272400,8.4142724609375,-0.06984999775886536,0.06228749826550484,-0.09624999761581421
1750561034116877300,8.423877197265625,-0.042899999767541885,0.13433749973773956,-0.10848750174045563
1750561034126482000,8.43348193359375,-0.002612499985843897,0.14657500386238098,-0.09391249716281891
1750561034136086500,8.44308642578125,0.02914999984204769,0.09776250272989273,-0.04743750020861626
1750561034145691400,8.45269140625,0.03891250118613243,0.02447500079870224,0.020899999886751175
1750561034155296300,8.462296142578126,0.022962499409914017,-0.05252499878406525,0.07356250286102295
1750561034164901000,8.471901123046875,-0.005087499972432852,-0.08923749625682831,0.07961250096559525
1750561034174506000,8.481506103515626,-0.011137500405311584,-0.09047500044107437,0.033137500286102295
1750561034184110600,8.491110595703125,0.008387500420212746,-0.059812501072883606,-0.03162499889731407
1750561034193715500,8.500715576171874,0.0364375002682209,0.0170499999076128,-0.08167500048875809
1750561034203320000,8.510320068359375,0.07796250283718109,0.045237500220537186,-0.10615000128746033
1750561034212925000,8.519925048828124,0.14643749594688416,0.023237500339746475,-0.0719124972820282
1750561034222529800,8.52952978515625,0.23925000429153442,-0.02928750030696392,0.050324998795986176
1750561034232134400,8.539134521484375,0.3199625015258789,-0.07204999774694443,0.24695000052452087
1750561034241739300,8.5487392578125,0.35048750042915344,-0.0635249987244606,0.48399999737739563
1750561034251344100,8.55834423828125,0.3040125072002411,0.01223750039935112,0.7038624882698059
1750561034260948700,8.56794873046875,0.21972499787807465,0.16733749210834503,0.934862494468689
1750561034270553600,8.5775537109375,0.11343749612569809,0.32257500290870667,1.226775050163269
1750561034280158200,8.587158203125,-0.02461249940097332,0.6169624924659729,1.7106374502182007
1750561034289763000,8.59676318359375,-0.14313749969005585,0.9113500118255615,2.3018875122070312
1750561034299368000,8.606367919921874,-0.27871251106262207,1.214400053024292,2.904137372970581
1750561034308972800,8.615972900390625,-0.39118748903274536,1.543025016784668,3.3379499912261963
1750561034318577700,8.62557763671875,-0.5047624707221985,1.6798374652862549,3.461287498474121
1750561034328182300,8.635182373046876,-0.729574978351593,1.8423625230789185,3.3965249061584473
1750561034337787100,8.644787109375,-1.0301499366760254,2.128225088119507,3.2230000495910645
1750561034347391700,8.654391845703126,-1.2744874954223633,2.1855623722076416,2.9616124629974365
1750561034356996600,8.66399658203125,-1.5053499937057495,2.1074624061584473,2.7990875244140625
1750561034366601200,8.673601318359376,-1.7154500484466553,1.9461749792099,2.7955124378204346
1750561034376206300,8.683206298828125,-1.8620250225067139,1.7115999460220337,2.861375093460083
1750561034385811000,8.69281103515625,-1.8327374458312988,1.551550030708313,2.8895623683929443
1750561034395415800,8.702415771484375,-1.5981625318527222,1.2704999446868896,2.7453250885009766
1750561034405020400,8.7120205078125,-1.3440624475479126,0.7488250136375427,2.3568875789642334
1750561034414625300,8.721625244140625,-1.3135374784469604,0.13557499647140503,1.7582124471664429
1750561034424230100,8.731230224609375,-1.5065875053405762,-0.24928750097751617,1.080199956893921
1750561034433834800,8.740834716796876,-1.7374500036239624,-0.3115749955177307,0.3727625012397766
1750561034443439400,8.750439453125,-1.8865000009536743,-0.15152500569820404,-0.32725000381469727
1750561034453044500,8.76004443359375,-1.9450750350952148,-0.00976249948143959,-0.9637374877929688
1750561034462649300,8.7696494140625,-1.9280250072479248,-0.23952500522136688,-1.5379375219345093
1750561034472254000,8.77925390625,-1.80097496509552,-0.9713000059127808,-2.0436625480651855
1750561034481858800,8.78885888671875,-1.6654000282287598,-2.009700059890747,-2.441999912261963
1750561034491463400,8.79846337890625,-1.5871624946594238,-3.0665249824523926,-2.7230498790740967
1750561034501068300,8.808068359375,-1.5199249982833862,-3.8667750358581543,-2.931912422180176
1750561034510673200,8.817673095703125,-1.27201247215271,-4.195399761199951,-3.0687248706817627
1750561034520277800,8.82727783203125,-0.8053374886512756,-4.07687520980835,-3.1579625606536865
1750561034529882600,8.836882568359375,-0.1919499933719635,-3.731062412261963,-3.1627750396728516
1750561034539487500,8.846487548828126,0.40053749084472656,-3.558912515640259,-3.056487560272217
1750561034549092000,8.856092041015625,0.8819249868392944,-3.552725076675415,-2.926962375640869
1750561034558697000,8.865697021484374,1.3021249771118164,-3.6284875869750977,-3.0076749324798584
1750561034568301600,8.875301513671875,1.5941749811172485,-3.672487497329712,-3.401062488555908
1750561034577906700,8.88490673828125,1.7822749614715576,-3.551487445831299,-3.8702125549316406
1750561034587511300,8.89451123046875,1.9618500471115112,-3.211862564086914,-4.097362518310547
1750561034597116200,8.9041162109375,2.1170876026153564,-2.5876123905181885,-3.8934500217437744
1750561034606721000,8.913720947265626,2.239187479019165,-1.6578375101089478,-3.2275373935699463
1750561034616325600,8.92332568359375,2.389474868774414,-0.7562500238418579,-2.26847505569458
1750561034625930500,8.932930419921876,2.6191000938415527,-0.18328750133514404,-1.2056000232696533
1750561034635535000,8.94253515625,2.863574981689453,0.1648624986410141,-0.19277499616146088
1750561034645140000,8.952139892578124,2.9906249046325684,0.4984374940395355,0.5805249810218811
1750561034654744800,8.961744873046875,2.9429125785827637,0.6890124678611755,0.9421499967575073
1750561034664349700,8.971349609375,2.591049909591675,0.805062472820282,0.9189124703407288
1750561034673954600,8.98095458984375,1.981374979019165,0.8600624799728394,0.668524980545044
1750561034683559200,8.99055908203125,1.2655500173568726,0.9724000096321106,0.4241875112056732
1750561034693164000,9.0001640625,0.6791124939918518,1.1826374530792236,0.41676250100135803
1750561034702768600,9.0097685546875,0.3345375061035156,1.3182125091552734,0.7418124675750732
1750561034712373800,9.019373779296876,0.234437495470047,1.4282125234603882,1.2792999744415283
1750561034721978400,9.028978271484375,0.3492499887943268,1.3670250177383423,1.7851624488830566
1750561034731583000,9.0385830078125,0.5655375123023987,1.0775874853134155,2.080787420272827
1750561034741187800,9.048187744140625,0.7023500204086304,0.7170624732971191,2.1063625812530518
1750561034750792700,9.057792724609374,0.6619250178337097,0.550962507724762,1.909737467765808
1750561034760397300,9.067397216796875,0.40053749084472656,0.6743000149726868,1.5285874605178833
1750561034770002200,9.077002197265625,-0.05142499879002571,1.0091124773025513,1.0594375133514404
1750561034779606800,9.086606689453125,-0.4179999828338623,1.3242624998092651,0.6782875061035156
1750561034789211600,9.096211669921875,-0.5413374900817871,1.3462624549865723,0.510812520980835
1750561034798816500,9.10581640625,-0.46076250076293945,1.0971125364303589,0.5695250034332275
1750561034808421400,9.11542138671875,-0.2934249937534332,0.612012505531311,0.7123875021934509
1750561034818026200,9.125026123046876,-0.1504250019788742,0.2480500042438507,0.8236249685287476
1750561034827630800,9.134630859375,-0.10284999758005142,0.09157499670982361,0.812624990940094
1750561034837235700,9.144235595703124,-0.13695000112056732,0.07452499866485596,0.6990500092506409
1750561034846840300,9.15384033203125,-0.1956624984741211,0.09033749997615814,0.5182374715805054
1750561034856445000,9.16344482421875,-0.23718750476837158,0.07452499866485596,0.2946625053882599
1750561034866049800,9.1730498046875,-0.24213749170303345,0.01223750039935112,0.08084999769926071
1750561034875655000,9.182655029296875,-0.22618749737739563,-0.0085249999538064,-0.05472499877214432
1750561034885259500,9.192259521484376,-0.18713749945163727,0.08428750187158585,-0.1036750003695488
1750561034894864400,9.201864501953125,-0.11618749797344208,0.1648624986410141,-0.10243749618530273
1750561034904469200,9.21146923828125,-0.030662499368190765,0.1428624987602234,-0.07067500054836273
1750561034914073900,9.221073974609375,0.04386249929666519,0.020762499421834946,-0.03162499889731407
1750561034923678500,9.230678466796874,0.08415000140666962,-0.1722874939441681,-0.013199999928474426
1750561034933283300,9.240283447265625,0.09638749808073044,-0.34814998507499695,-0.015675000846385956
1750561034942888200,9.24988818359375,0.08043749630451202,-0.4105750024318695,-0.03891250118613243
1750561034952493000,9.2594931640625,0.01209999993443489,-0.29809999465942383,-0.09872499853372574
1750561034962097700,9.26909765625,-0.08208750188350677,-0.05252499878406525,-0.18177500367164612
1750561034971702500,9.27870263671875,-0.16142499446868896,0.15028749406337738,-0.25753748416900635
1750561034981307100,9.28830712890625,-0.1919499933719635,0.18081249296665192,-0.28696250915527344
1750561034990912000,9.297912109375,-0.17118750512599945,0.10381250083446503,-0.22577500343322754
1750561035000516900,9.307516845703125,-0.10766249895095825,-0.05004999786615372,-0.08291249722242355
1750561035010121500,9.31712158203125,-0.03684999793767929,-0.21876250207424164,0.0906125009059906
1750561035019726600,9.3267265625,-0.0013749999925494194,-0.32133749127388,0.20542499423027039
1750561035029331200,9.336331298828124,0.007149999961256981,-0.31638750433921814,0.2139499932527542
1750561035038936000,9.34593603515625,-0.01484999991953373,-0.17104999721050262,0.11866249889135361
1750561035048540700,9.355540771484375,-0.06737499684095383,0.025575000792741776,-0.04262499883770943
1750561035058145500,9.3651455078125,-0.08442500233650208,0.14657500386238098,-0.19277499616146088
1750561035067750400,9.37475048828125,-0.06366249918937683,0.18205000460147858,-0.2662000060081482
1750561035077355300,9.384355224609376,-0.033137500286102295,0.1331000030040741,-0.24296249449253082
1750561035086959900,9.3939599609375,0.0010999999940395355,0.035475000739097595,-0.15248750150203705
1750561035096564700,9.403564697265624,0.0193875003606081,-0.06228749826550484,-0.030387500301003456
1750561035106169300,9.41316943359375,0.009624999947845936,-0.10381250083446503,0.06737499684095383
1750561035115774200,9.422774169921874,-0.016087500378489494,-0.10147500038146973,0.10889999568462372
1750561035125378800,9.43237890625,-0.030662499368190765,-0.08428750187158585,0.09790000319480896
1750561035134983700,9.441983642578125,-0.023375000804662704,-0.07081250101327896,0.057612501084804535
1750561035144588500,9.451588623046876,-0.005087499972432852,-0.06228749826550484,0.011137500405311584
1750561035154193200,9.461193115234375,0.02419999986886978,-0.047712501138448715,-0.04743750020861626
1750561035163798300,9.47079833984375,0.05238749831914902,-0.0317624993622303,-0.09872499853372574
1750561035173403000,9.48040283203125,0.0719124972820282,-0.010999999940395355,-0.1256749927997589
1750561035183007700,9.4900078125,0.07919999957084656,-0.0317624993622303,-0.1256749927997589
1750561035192612400,9.4996123046875,0.07438749819993973,-0.08552499860525131,-0.10243749618530273
1750561035202217200,9.50921728515625,0.05362499877810478,-0.12828749418258667,-0.025437500327825546
1750561035211821800,9.51882177734375,0.009624999947845936,-0.12347500026226044,0.10408750176429749
1750561035221427000,9.528427001953125,-0.005087499972432852,-0.11728750169277191,0.2116124927997589
1750561035231031600,9.538031494140625,0.02419999986886978,-0.11357499659061432,0.23842500150203705
1750561035240636400,9.547636474609375,0.06338749825954437,-0.11976250261068344,0.18466250598430634
1750561035250241000,9.557240966796876,0.08167500048875809,-0.12828749418258667,0.07713750004768372
1750561035259846000,9.566845947265625,0.07919999957084656,-0.10752499848604202,-0.05238749831914902
1750561035269450800,9.57645068359375,0.07315000146627426,-0.07576250284910202,-0.15496249496936798
1750561035279055400,9.586055419921875,0.06572499871253967,-0.057475000619888306,-0.20624999701976776
1750561035288660500,9.595660400390624,0.05486249923706055,-0.028049999848008156,-0.20377500355243683
1750561035298265000,9.60526513671875,0.0364375002682209,0.04152499884366989,-0.15372499823570251
1750561035307869700,9.61486962890625,0.018149999901652336,0.09776250272989273,-0.08538749814033508
1750561035317474600,9.624474609375,0.014437500387430191,0.10999999940395355,-0.025437500327825546
1750561035327079200,9.6340791015625,0.020624998956918716,0.07823749631643295,0.005087499972432852
1750561035336684000,9.64368408203125,0.02914999984204769,0.018287500366568565,0.018562499433755875
1750561035346289000,9.653288818359375,0.03396249935030937,-0.05871250107884407,0.023375000804662704
1750561035355893500,9.6628935546875,0.02186249941587448,-0.13805000483989716,0.023375000804662704
1750561035365498600,9.67249853515625,0.0010999999940395355,-0.17833749949932098,0.030799999833106995
1750561035375103200,9.682103271484374,-0.011137500405311584,-0.15757499635219574,0.042899999767541885
1750561035384707800,9.691707763671875,-0.006324999965727329,-0.0635249987244606,0.04413750022649765
1750561035394312700,9.701312744140624,0.004674999974668026,0.035475000739097595,0.02708750031888485
1750561035403917600,9.71091748046875,0.02186249941587448,0.059812501072883606,0.002612499985843897
1750561035413522200,9.720522216796875,0.03396249935030937,0.030524998903274536,-0.004674999974668026
1750561035423127300,9.730127197265626,0.02914999984204769,0.002474999986588955,-0.0034374999813735485
1750561035432732200,9.739732177734375,0.010862499475479126,-0.028049999848008156,-0.009624999947845936
1750561035442336800,9.749336669921876,0.0010999999940395355,-0.06847500056028366,-0.010862499475479126
1750561035451941400,9.75894140625,-0.0013749999925494194,-0.11123749613761902,-0.005912499967962503
1750561035461546200,9.768546142578124,-0.00013749999925494194,-0.11852499842643738,0.008799999952316284
1750561035471151000,9.778151123046875,-0.0038499999791383743,-0.04152499884366989,0.02956249937415123
1750561035480756000,9.787755859375,-0.011137500405311584,0.054999999701976776,0.028324998915195465
1750561035490360600,9.797360595703125,-0.018562499433755875,0.12099999934434891,0.0038499999791383743
1750561035499965400,9.80696533203125,-0.02213750034570694,0.14176249504089355,-0.025437500327825546
1750561035509570000,9.816570068359376,-0.01732499897480011,0.12333749979734421,-0.04262499883770943
1750561035519175000,9.8261748046875,-0.005087499972432852,0.06228749826550484,-0.04496249929070473
1750561035528779800,9.83577978515625,0.010862499475479126,-0.030524998903274536,-0.030387500301003456
1750561035538384600,9.845384521484375,0.020624998956918716,-0.09404999762773514,-0.002199999988079071
1750561035547989200,9.8549892578125,0.020624998956918716,-0.09171249717473984,0.038087498396635056
1750561035557594000,9.864593994140625,0.0193875003606081,-0.05128749832510948,0.06861250102519989
1750561035567199000,9.874198974609374,0.014437500387430191,-0.010999999940395355,0.07961250096559525
1750561035576803600,9.883803466796875,0.010862499475479126,0.025575000792741776,0.04908749833703041
1750561035586408400,9.893408447265625,0.01691249944269657,0.05128749832510948,-0.018149999901652336
1750561035596013000,9.903012939453125,0.025437500327825546,0.08181250095367432,-0.09391249716281891
1750561035605618000,9.912617919921875,0.03891250118613243,0.09281250089406967,-0.14396250247955322
1750561035615222800,9.922222900390626,0.04743750020861626,0.08304999768733978,-0.14396250247955322
1750561035624827400,9.931827392578125,0.04619999974966049,0.057337500154972076,-0.10491249710321426
1750561035634432500,9.9414326171875,0.04496249929070473,0.032999999821186066,-0.040150001645088196
1750561035644037000,9.951037109375,0.032862499356269836,0.025575000792741776,0.012374999932944775
1750561035653641700,9.960641845703124,0.005912499967962503,0.015812499448657036,0.03684999793767929
1750561035663246600,9.97024658203125,-0.023375000804662704,0.0037124999798834324,0.03684999793767929
1750561035672851500,9.9798515625,-0.038087498396635056,-0.015949999913573265,0.02461249940097332
1750561035682456000,9.9894560546875,-0.020899999886751175,-0.0147124994546175,0.012374999932944775
1750561035692060700,9.999060791015625,0.002199999988079071,-0.0012374999932944775,-0.002199999988079071
1750561035701665500,10.00866552734375,0.032862499356269836,0.014574999921023846,-0.0009624999947845936
1750561035711270400,10.0182705078125,0.05967500060796738,0.014574999921023846,0.025849999859929085
1750561035720875300,10.027875244140626,0.06462500244379044,0.02928750030696392,0.050324998795986176
1750561035730479900,10.03747998046875,0.05486249923706055,0.0317624993622303,0.04413750022649765
1750561035740084700,10.047084716796874,0.04262499883770943,0.03423750028014183,0.01732499897480011
1750561035749689300,10.056689453125,0.02186249941587448,0.037812501192092896,-0.03162499889731407
1750561035759294200,10.066294189453124,-0.006324999965727329,0.018287500366568565,-0.06943749636411667
1750561035768899000,10.075899169921875,-0.02461249940097332,-0.02694999985396862,-0.06696250289678574
1750561035778504000,10.08550390625,-0.023375000804662704,-0.11357499659061432,-0.009624999947845936
1750561035788108500,10.095108642578126,0.004674999974668026,-0.17710000276565552,0.08084999769926071
1750561035797713400,10.10471337890625,0.03519999980926514,-0.17833749949932098,0.1480875015258789
1750561035807318300,10.114318359375,0.05115000158548355,-0.10999999940395355,0.1601874977350235
1750561035816923000,10.1239228515625,0.04867500066757202,-0.02928750030696392,0.11508750170469284
1750561035826527500,10.133527587890624,0.03519999980926514,0.032999999821186066,0.04661250114440918
1750561035836132400,10.14313232421875,0.0193875003606081,0.04881250113248825,-0.021724998950958252
1750561035845737200,10.1527373046875,0.009624999947845936,0.03423750028014183,-0.06572499871253967
1750561035855342000,10.162342041015625,0.01209999993443489,0.01952499896287918,-0.07796250283718109
1750561035864946700,10.17194677734375,0.015675000846385956,0.014574999921023846,-0.07067500054836273
1750561035874551600,10.181551513671875,0.0193875003606081,0.01347499992698431,-0.05967500060796738
1750561035884156400,10.191156494140625,0.02419999986886978,-0.0037124999798834324,-0.049912501126527786
1750561035893761000,10.200760986328126,0.03162499889731407,-0.01347499992698431,-0.02419999986886978
1750561035903366000,10.210365966796875,0.03162499889731407,-0.02928750030696392,0.007562499959021807
1750561035912970500,10.219970458984376,0.022962499409914017,-0.030524998903274536,0.02708750031888485
1750561035922575600,10.22957568359375,0.005912499967962503,-0.010999999940395355,0.016087500378489494
1750561035932180200,10.23918017578125,-0.0038499999791383743,0.0085249999538064,-0.01691249944269657
1750561035941785000,10.24878515625,-0.006324999965727329,-0.0012374999932944775,-0.05472499877214432
1750561035951389700,10.2583896484375,-0.008799999952316284,-0.04152499884366989,-0.07438749819993973
1750561035960994600,10.26799462890625,-0.00989999994635582,-0.06847500056028366,-0.05472499877214432
1750561035970599200,10.27759912109375,0.0034374999813735485,-0.09281250089406967,-0.010862499475479126
1750561035980204000,10.2872041015625,0.027912499383091927,-0.1405249983072281,0.03684999793767929
1750561035989809000,10.296808837890625,0.05115000158548355,-0.15399999916553497,0.06984999775886536
1750561035999413500,10.30641357421875,0.04386249929666519,-0.08181250095367432,0.07232499867677689
1750561036009018400,10.316018310546875,0.018149999901652336,0.00976249948143959,0.047849997878074646
1750561036018623200,10.325623291015624,-0.007562499959021807,0.054999999701976776,0.008799999952316284
1750561036028228000,10.33522802734375,-0.02956249937415123,0.05623750016093254,-0.015675000846385956
1750561036037832700,10.344832763671874,-0.04661250114440918,0.04028749838471413,-0.02419999986886978
1750561036047437300,10.354437255859375,-0.042899999767541885,0.03657500073313713,-0.02914999984204769
1750561036057042200,10.364042236328125,-0.01966249942779541,0.037812501192092896,-0.04867500066757202
1750561036066646800,10.373646728515626,0.01209999993443489,0.030524998903274536,-0.07919999957084656
1750561036076251600,10.383251708984375,0.027912499383091927,0.035475000739097595,-0.09267500042915344
1750561036085856500,10.3928564453125,0.020624998956918716,0.06104999780654907,-0.08043749630451202
1750561036095461400,10.40246142578125,0.0034374999813735485,0.07576250284910202,-0.05596249923110008
1750561036105066200,10.412066162109374,-0.005087499972432852,0.05376249924302101,-0.018149999901652336
1750561036114670800,10.4216708984375,-0.0038499999791383743,-0.006187499966472387,0.03189999982714653
1750561036124275700,10.431275634765624,0.005912499967962503,-0.054999999701976776,0.07590000331401825
1750561036133880300,10.44088037109375,0.0193875003606081,-0.07576250284910202,0.07232499867677689
1750561036143485000,10.45048486328125,0.020624998956918716,-0.07576250284910202,0.01732499897480011
1750561036153089800,10.46008984375,0.0010999999940395355,-0.05128749832510948,-0.062150001525878906
1750561036162695000,10.46969482421875,-0.03437500074505806,-0.018287500366568565,-0.14767499268054962
1750561036172299500,10.479299560546876,-0.05884999781847,0.01347499992698431,-0.20996250212192535
1750561036181904100,10.488904052734375,-0.055137500166893005,0.047575000673532486,-0.2367749959230423
1750561036191509200,10.49850927734375,-0.02956249937415123,0.05376249924302101,-0.22220000624656677
1750561036201113600,10.508113525390625,0.0193875003606081,0.002474999986588955,-0.17077499628067017
1750561036210718500,10.517718505859374,0.07438749819993973,-0.07947500050067902,-0.09748750180006027
1750561036220323300,10.5273232421875,0.12196250259876251,-0.16376249492168427,-0.04372499883174896
1750561036229928000,10.536927978515624,0.16843749582767487,-0.23457500338554382,-0.04743750020861626
1750561036239533000,10.546532958984375,0.20996250212192535,-0.29438748955726624,-0.08538749814033508
1750561036249137700,10.5561376953125,0.2404875010251999,-0.3689124882221222,-0.15248750150203705
1750561036258742500,10.565742431640626,0.2857249975204468,-0.4838624894618988,-0.2441999912261963
1750561036268347100,10.57534716796875,0.35048750042915344,-0.6364874839782715,-0.31872498989105225
1750561036277952000,10.584951904296876,0.4188250005245209,-0.8405374884605408,-0.34677499532699585
1750561036287556900,10.594556884765625,0.4811125099658966,-1.0971125364303589,-0.2539624869823456
1750561036297161700,10.60416162109375,0.4482499957084656,-1.2181124687194824,0.030799999833106995
1750561036306766300,10.613766357421875,0.3102000057697296,-0.9383000135421753,0.5609999895095825
1750561036316371200,10.62337109375,0.1891999989748001,-0.5974375009536743,1.152250051498413
1750561036325976000,10.63297607421875,0.04867500066757202,-0.38733750581741333,1.664162516593933
1750561036335580700,10.64258056640625,-0.08813749998807907,-0.10257499665021896,2.085599899291992
1750561036345185300,10.652185302734376,-0.233474999666214,0.2040500044822693,2.29583740234375
1750561036354790100,10.6617900390625,-0.3825249969959259,0.48496249318122864,2.3311750888824463
1750561036364395300,10.671395263671876,-0.5730999708175659,0.7195374965667725,2.283600091934204
1750561036373999900,10.680999755859375,-0.7893875241279602,0.7977749705314636,2.298175096511841
1750561036383604500,10.6906044921875,-1.0117249488830566,0.8185374736785889,2.552412509918213
1750561036393209300,10.700209228515625,-1.2390124797821045,1.035925030708313,3.0263750553131104
1750561036402814200,10.709814208984374,-1.3965874910354614,1.2827374935150146,3.460049867630005
1750561036412418800,10.719418701171875,-1.4821125268936157,1.5075500011444092,3.681149959564209
1750561036422023400,10.7290234375,-1.5151125192642212,1.5637874603271484,3.65310001373291
1750561036431628300,10.738628173828126,-1.534637451171875,1.5320249795913696,3.461287498474121
1750561036441233400,10.7482333984375,-1.5419249534606934,1.5552624464035034,3.1521875858306885
1750561036450838000,10.757838134765626,-1.5896375179290771,1.530787467956543,2.7099874019622803
1750561036460443000,10.76744287109375,-1.699637532234192,1.4134999513626099,2.1357874870300293
1750561036470047500,10.777047607421874,-1.891450047492981,1.214400053024292,1.4870624542236328
1750561036479652400,10.78665234375,-2.108837604522705,1.1386375427246094,0.8614374995231628
1750561036489257000,10.796257080078124,-2.163837432861328,1.2094500064849854,0.28613749146461487
1750561036498861600,10.805861572265625,-1.980549931526184,1.2912625074386597,-0.26496249437332153
1750561036508466700,10.815466796875,-1.6861624717712402,1.272974967956543,-0.8317375183105469
1750561036518071300,10.8250712890625,-1.4491125345230103,1.0604000091552734,-1.4011249542236328
1750561036527676200,10.83467626953125,-1.4075875282287598,0.6316750049591064,-1.9155124425888062
1750561036537280800,10.84428076171875,-1.4955874681472778,0.12209999561309814,-2.334475040435791
1750561036546885600,10.8538857421875,-1.559112548828125,-0.5889124870300293,-2.699812412261963
1750561036556490500,10.863490478515626,-1.55058753490448,-1.5760250091552734,-3.0321500301361084
1750561036566095400,10.873095458984375,-1.3782999515533447,-2.5155625343322754,-3.248300075531006
1750561036575700000,10.882699951171874,-0.9836750030517578,-3.1618125438690186,-3.3130624294281006
1750561036585304600,10.8923046875,-0.47905001044273376,-3.50638747215271,-3.266587495803833
1750561036594909700,10.90190966796875,0.02667500078678131,-3.529487371444702,-3.194537401199341
1750561036604514300,10.911514404296875,0.4652999937534332,-3.3804373741149902,-3.27524995803833
1750561036614119200,10.921119140625,0.8696874976158142,-3.139812469482422,-3.573349952697754
1750561036623723800,10.930723876953126,1.2471250295639038,-2.99076247215271,-4.038787364959717
1750561036633328600,10.94032861328125,1.5342249870300293,-3.056762456893921,-4.55317497253418
1750561036642933500,10.94993359375,1.7480374574661255,-3.222862482070923,-4.900087356567383
1750561036652538000,10.9595380859375,1.9265124797821045,-3.3255748748779297,-4.920849800109863
1750561036662143000,10.96914306640625,2.0498499870300293,-3.207050085067749,-4.490749835968018
1750561036671747800,10.978747802734375,2.0950875282287598,-2.7659499645233154,-3.5403499603271484
1750561036681352400,10.9883525390625,2.0938498973846436,-2.021937370300293,-2.2354750633239746
1750561036690957300,10.997957275390625,2.1634249687194824,-1.1643500328063965,-0.853737473487854
1750561036700562000,11.00756201171875,2.4089999198913574,-0.5094375014305115,0.3324750065803528
1750561036710166800,11.017166748046876,2.6032874584198,-0.14657500386238098,1.1167750358581543
1750561036719771600,11.026771728515625,2.5030500888824463,0.2773374915122986,1.4565374851226807
1750561036729376500,11.03637646484375,2.1768999099731445,0.6767749786376953,1.3612500429153442
1750561036738981400,11.0459814453125,1.6992249488830566,1.089687466621399,1.0117249488830566
1750561036748586000,11.0555859375,1.2020249366760254,1.5320249795913696,0.6868125200271606
1750561036758190600,11.065190673828125,0.8109750151634216,1.5857875347137451,0.6037625074386597
1750561036767795200,11.074795166015624,0.5508249998092651,1.3132624626159668,0.9164375066757202
1750561036777400000,11.084400146484375,0.3993000090122223,0.9235875010490417,1.5090625286102295
1750561036787005000,11.0940048828125,0.3297249972820282,0.5974375009536743,2.1003124713897705
1750561036796609800,11.10360986328125,0.29919999837875366,0.3909125030040741,2.461937427520752
1750561036806214400,11.11321435546875,0.2881999909877777,0.2798124849796295,2.5254623889923096
1750561036815819300,11.1228193359375,0.2502500116825104,0.26633748412132263,2.349600076675415
1750561036825424100,11.132424072265625,0.10119999945163727,0.3310999870300293,1.996500015258789
1750561036835028700,11.14202880859375,-0.16142499446868896,0.4776749908924103,1.542062520980835
1750561036844633600,11.151633544921875,-0.40700000524520874,0.6829624772071838,1.1022000312805176
1750561036854238500,11.161238525390624,-0.5242875218391418,0.7940624952316284,0.7796249985694885
1750561036863843000,11.170843017578125,-0.48647499084472656,0.7488250136375427,0.6342874765396118
1750561036873448000,11.180447998046875,-0.36176249384880066,0.5779125094413757,0.6220499873161316
1750561036883052500,11.190052490234375,-0.21147499978542328,0.4031499922275543,0.6575250029563904
1750561036892657400,11.199657470703125,-0.08442500233650208,0.2773374915122986,0.6598625183105469
1750561036902262300,11.20926220703125,-0.028324998915195465,0.2003374993801117,0.5975750088691711
1750561036911867100,11.2188671875,-0.03932499885559082,0.13928750157356262,0.48028749227523804
1750561036921471700,11.2284716796875,-0.09790000319480896,0.04152499884366989,0.3190000057220459
1750561036931076400,11.238076416015625,-0.1859000027179718,-0.05623750016093254,0.13942499458789825
1750561036940681200,11.24768115234375,-0.2554749846458435,-0.1270499974489212,-0.02419999986886978
1750561036950286000,11.2572861328125,-0.26042500138282776,-0.13805000483989716,-0.13048750162124634
1750561036959891000,11.266890869140624,-0.1859000027179718,-0.02199999988079071,-0.15619999170303345
1750561036969495600,11.27649560546875,-0.062424998730421066,0.1013374999165535,-0.12691250443458557
1750561036979100400,11.286100341796875,0.04496249929070473,0.1625249981880188,-0.08291249722242355
1750561036988705000,11.295705078125,0.0719124972820282,0.1868624985218048,-0.0719124972820282
1750561036998310000,11.305309814453125,0.04386249929666519,0.1405249983072281,-0.1097249984741211
1750561037007914500,11.31491455078125,0.0010999999940395355,0.014574999921023846,-0.15867500007152557
1750561037017519400,11.324519287109375,-0.047849997878074646,-0.17599999904632568,-0.18424999713897705
1750561037027124200,11.334124267578124,-0.08566249907016754,-0.3335750102996826,-0.18067499995231628
1750561037036728800,11.343728759765625,-0.10161250084638596,-0.38967499136924744,-0.16596250236034393
1750561037046333700,11.353333740234374,-0.11013749986886978,-0.30428749322891235,-0.14272500574588776
1750561037055938600,11.3629384765625,-0.11013749986886978,-0.12828749418258667,-0.11591249704360962
1750561037065543200,11.372543212890625,-0.10766249895095825,0.018287500366568565,-0.09872499853372574
1750561037075148000,11.38214794921875,-0.11013749986886978,0.10876250267028809,-0.08538749814033508
1750561037084752600,11.391752685546875,-0.11137499660253525,0.15028749406337738,-0.08043749630451202
1750561037094357500,11.401357421875,-0.09913749992847443,0.1331000030040741,-0.07548750191926956
1750561037103962400,11.41096240234375,-0.07961250096559525,0.04152499884366989,-0.05967500060796738
1750561037113567200,11.420567138671874,-0.062424998730421066,-0.09652499854564667,-0.04372499883174896
1750561037123172000,11.430172119140625,-0.04908749833703041,-0.20886249840259552,-0.04372499883174896
1750561037132776700,11.439776611328124,-0.04908749833703041,-0.273624986410141,-0.04496249929070473
1750561037142381300,11.44938134765625,-0.06984999775886536,-0.18328750133514404,-0.020624998956918716
1750561037151986200,11.458986083984374,-0.08566249907016754,-0.030524998903274536,0.023375000804662704
1750561037161591000,11.468591064453125,-0.07108750194311142,0.07452499866485596,0.06737499684095383
1750561037171195600,11.478195556640625,-0.02708750031888485,0.1307625025510788,0.0943249985575676
1750561037180800500,11.487800537109376,0.02186249941587448,0.13433749973773956,0.09308750182390213
1750561037190405400,11.4974052734375,0.05596249923110008,0.09033749997615814,0.06613750010728836
1750561037200010000,11.507010009765626,0.06572499871253967,-0.006187499966472387,0.03189999982714653
1750561037209614800,11.51661474609375,0.05967500060796738,-0.11728750169277191,0.005087499972432852
1750561037219219500,11.526219482421874,0.05238749831914902,-0.17104999721050262,-0.010862499475479126
1750561037228824300,11.53582421875,0.07315000146627426,-0.14300000667572021,-0.03162499889731407
1750561037238429200,11.54542919921875,0.11715000122785568,-0.02694999985396862,-0.05719999969005585
1750561037248033800,11.55503369140625,0.16967499256134033,0.11110000312328339,-0.08896250277757645
1750561037257638700,11.564638671875,0.20748749375343323,0.2162874937057495,-0.12072499841451645
1750561037267243500,11.574243408203126,0.22577500343322754,0.22962500154972076,-0.13420000672340393
1750561037276848000,11.58384814453125,0.1989624947309494,0.17586250603199005,-0.10848750174045563
1750561037286453000,11.593452880859376,0.12443749606609344,0.08181250095367432,-0.04138749837875366
1750561037296057600,11.6030576171875,0.032862499356269836,-0.02928750030696392,0.03437500074505806
1750561037305662500,11.612662353515624,-0.02213750034570694,-0.11123749613761902,0.08813749998807907
1750561037315267000,11.62226708984375,-0.023375000804662704,-0.12828749418258667,0.09308750182390213
1750561037324872000,11.631871826171874,0.01209999993443489,-0.08552499860525131,0.04661250114440918
1750561037334477000,11.64147705078125,0.05362499877810478,-0.0147124994546175,-0.030387500301003456
1750561037344081700,11.65108154296875,0.07796250283718109,0.06228749826550484,-0.10491249710321426
1750561037353686500,11.6606865234375,0.08043749630451202,0.11976250261068344,-0.1414874941110611
1750561037363291100,11.670291015625,0.06338749825954437,0.13433749973773956,-0.12072499841451645
1750561037372895700,11.679895751953126,0.02914999984204769,0.11728750169277191,-0.049912501126527786
1750561037382500600,11.68950048828125,0.0034374999813735485,0.06104999780654907,0.042899999767541885
1750561037392105500,11.69910546875,-0.00989999994635582,-0.002474999986588955,0.12484999746084213
1750561037401710300,11.70871044921875,-0.013612499460577965,-0.06104999780654907,0.16142499446868896
1750561037411315000,11.71831494140625,-0.0013749999925494194,-0.12457499653100967,0.1381874978542328
1750561037420919800,11.727919921875,0.009624999947845936,-0.15633749961853027,0.07108750194311142
1750561037430524400,11.7375244140625,0.009624999947845936,-0.1270499974489212,0.0013749999925494194
1750561037440129300,11.74712939453125,0.002199999988079071,-0.04895000159740448,-0.04138749837875366
